"Subject","Block","Trial","Age","Handedness","First_Language","Education","Countryself","Countryparents","Shape","Label","Delay","Matching","Origin_Identity","English_Identity","Standarlized_Identity","Response","RT_ms","RT_sec","ACC"
201,1,2,18,"r","English/Farsi","High School","Iran/Canada","Iran",2,1,700,"Nonmatching",1,"Self","Self",1,700,0.7,1
201,1,3,18,"r","English/Farsi","High School","Iran/Canada","Iran",2,1,0,"Nonmatching",1,"Self","Self",1,1285,1.285,1
201,1,4,18,"r","English/Farsi","High School","Iran/Canada","Iran",3,2,0,"Nonmatching",2,"Friend","Close",1,1199,1.199,1
201,1,5,18,"r","English/Farsi","High School","Iran/Canada","Iran",1,1,40,"Matching",1,"Self","Self",1,877,0.877,1
201,1,6,18,"r","English/Farsi","High School","Iran/Canada","Iran",2,1,700,"Nonmatching",1,"Self","Self",1,633,0.633,1
201,1,7,18,"r","English/Farsi","High School","Iran/Canada","Iran",1,1,40,"Matching",1,"Self","Self",1,670,0.67,1
201,1,8,18,"r","English/Farsi","High School","Iran/Canada","Iran",1,3,0,"Nonmatching",3,"Stranger","Stranger",1,861,0.861,1
201,1,9,18,"r","English/Farsi","High School","Iran/Canada","Iran",1,3,0,"Nonmatching",3,"Stranger","Stranger",1,750,0.75,1
201,1,11,18,"r","English/Farsi","High School","Iran/Canada","Iran",1,1,40,"Matching",1,"Self","Self",1,638,0.638,1
201,1,12,18,"r","English/Farsi","High School","Iran/Canada","Iran",1,3,120,"Nonmatching",3,"Stranger","Stranger",1,647,0.647,1
201,1,13,18,"r","English/Farsi","High School","Iran/Canada","Iran",1,2,0,"Nonmatching",2,"Friend","Close",1,1175,1.175,1
201,1,14,18,"r","English/Farsi","High School","Iran/Canada","Iran",1,2,0,"Nonmatching",2,"Friend","Close",1,982,0.982,1
201,1,15,18,"r","English/Farsi","High School","Iran/Canada","Iran",3,3,700,"Matching",3,"Stranger","Stranger",1,634,0.634,1
201,1,16,18,"r","English/Farsi","High School","Iran/Canada","Iran",2,3,120,"Nonmatching",3,"Stranger","Stranger",1,708,0.708,1
201,1,17,18,"r","English/Farsi","High School","Iran/Canada","Iran",2,1,700,"Nonmatching",1,"Self","Self",1,616,0.616,1
201,1,18,18,"r","English/Farsi","High School","Iran/Canada","Iran",3,1,0,"Nonmatching",1,"Self","Self",1,785,0.785,1
201,1,19,18,"r","English/Farsi","High School","Iran/Canada","Iran",3,3,700,"Matching",3,"Stranger","Stranger",1,1020,1.02,1
201,1,20,18,"r","English/Farsi","High School","Iran/Canada","Iran",2,2,120,"Matching",2,"Friend","Close",1,582,0.582,1
201,1,21,18,"r","English/Farsi","High School","Iran/Canada","Iran",3,1,40,"Nonmatching",1,"Self","Self",1,542,0.542,1
201,1,22,18,"r","English/Farsi","High School","Iran/Canada","Iran",2,3,700,"Nonmatching",3,"Stranger","Stranger",1,621,0.621,1
201,1,23,18,"r","English/Farsi","High School","Iran/Canada","Iran",3,3,700,"Matching",3,"Stranger","Stranger",1,605,0.605,1
201,1,25,18,"r","English/Farsi","High School","Iran/Canada","Iran",1,3,120,"Nonmatching",3,"Stranger","Stranger",1,704,0.704,1
201,1,26,18,"r","English/Farsi","High School","Iran/Canada","Iran",3,1,0,"Nonmatching",1,"Self","Self",1,754,0.754,1
201,1,27,18,"r","English/Farsi","High School","Iran/Canada","Iran",3,2,40,"Nonmatching",2,"Friend","Close",1,1082,1.082,1
201,1,28,18,"r","English/Farsi","High School","Iran/Canada","Iran",1,1,120,"Matching",1,"Self","Self",1,604,0.604,1
201,1,30,18,"r","English/Farsi","High School","Iran/Canada","Iran",1,1,0,"Matching",1,"Self","Self",1,600,0.6,1
201,1,31,18,"r","English/Farsi","High School","Iran/Canada","Iran",3,1,40,"Nonmatching",1,"Self","Self",1,706,0.706,1
201,1,33,18,"r","English/Farsi","High School","Iran/Canada","Iran",1,3,0,"Nonmatching",3,"Stranger","Stranger",1,794,0.794,1
201,1,34,18,"r","English/Farsi","High School","Iran/Canada","Iran",3,2,40,"Nonmatching",2,"Friend","Close",1,1113,1.113,1
201,1,35,18,"r","English/Farsi","High School","Iran/Canada","Iran",1,2,120,"Nonmatching",2,"Friend","Close",1,595,0.595,1
201,1,36,18,"r","English/Farsi","High School","Iran/Canada","Iran",1,1,700,"Matching",1,"Self","Self",1,818,0.818,1
201,1,37,18,"r","English/Farsi","High School","Iran/Canada","Iran",1,1,40,"Matching",1,"Self","Self",1,739,0.739,1
201,1,38,18,"r","English/Farsi","High School","Iran/Canada","Iran",2,3,0,"Nonmatching",3,"Stranger","Stranger",1,940,0.94,1
201,1,39,18,"r","English/Farsi","High School","Iran/Canada","Iran",1,3,0,"Nonmatching",3,"Stranger","Stranger",1,851,0.851,1
201,1,40,18,"r","English/Farsi","High School","Iran/Canada","Iran",3,3,40,"Matching",3,"Stranger","Stranger",1,1327,1.327,1
201,1,42,18,"r","English/Farsi","High School","Iran/Canada","Iran",1,2,700,"Nonmatching",2,"Friend","Close",1,772,0.772,1
201,1,43,18,"r","English/Farsi","High School","Iran/Canada","Iran",3,1,700,"Nonmatching",1,"Self","Self",1,1024,1.024,1
201,1,44,18,"r","English/Farsi","High School","Iran/Canada","Iran",2,1,120,"Nonmatching",1,"Self","Self",1,697,0.697,1
201,1,45,18,"r","English/Farsi","High School","Iran/Canada","Iran",1,1,700,"Matching",1,"Self","Self",1,421,0.421,1
201,1,46,18,"r","English/Farsi","High School","Iran/Canada","Iran",3,3,120,"Matching",3,"Stranger","Stranger",1,739,0.739,1
201,1,47,18,"r","English/Farsi","High School","Iran/Canada","Iran",2,1,40,"Nonmatching",1,"Self","Self",1,920,0.92,1
201,1,48,18,"r","English/Farsi","High School","Iran/Canada","Iran",2,1,700,"Nonmatching",1,"Self","Self",1,934,0.934,1
201,1,49,18,"r","English/Farsi","High School","Iran/Canada","Iran",2,2,40,"Matching",2,"Friend","Close",1,635,0.635,1
201,1,50,18,"r","English/Farsi","High School","Iran/Canada","Iran",3,2,40,"Nonmatching",2,"Friend","Close",1,576,0.576,1
201,1,51,18,"r","English/Farsi","High School","Iran/Canada","Iran",2,2,700,"Matching",2,"Friend","Close",1,414,0.414,1
201,1,52,18,"r","English/Farsi","High School","Iran/Canada","Iran",2,3,120,"Nonmatching",3,"Stranger","Stranger",1,756,0.756,1
201,1,53,18,"r","English/Farsi","High School","Iran/Canada","Iran",2,1,700,"Nonmatching",1,"Self","Self",1,521,0.521,1
201,1,54,18,"r","English/Farsi","High School","Iran/Canada","Iran",3,3,700,"Matching",3,"Stranger","Stranger",1,407,0.407,1
201,1,55,18,"r","English/Farsi","High School","Iran/Canada","Iran",3,3,700,"Matching",3,"Stranger","Stranger",1,1208,1.208,1
201,1,56,18,"r","English/Farsi","High School","Iran/Canada","Iran",2,1,120,"Nonmatching",1,"Self","Self",1,990,0.99,1
201,1,57,18,"r","English/Farsi","High School","Iran/Canada","Iran",1,1,40,"Matching",1,"Self","Self",1,524,0.524,1
201,1,58,18,"r","English/Farsi","High School","Iran/Canada","Iran",2,2,40,"Matching",2,"Friend","Close",1,626,0.626,1
201,1,59,18,"r","English/Farsi","High School","Iran/Canada","Iran",1,2,0,"Nonmatching",2,"Friend","Close",1,630,0.63,1
201,1,60,18,"r","English/Farsi","High School","Iran/Canada","Iran",2,3,120,"Nonmatching",3,"Stranger","Stranger",1,1176,1.176,1
201,1,61,18,"r","English/Farsi","High School","Iran/Canada","Iran",3,2,40,"Nonmatching",2,"Friend","Close",1,864,0.864,1
201,1,62,18,"r","English/Farsi","High School","Iran/Canada","Iran",3,2,40,"Nonmatching",2,"Friend","Close",1,1208,1.208,1
201,1,63,18,"r","English/Farsi","High School","Iran/Canada","Iran",3,1,120,"Nonmatching",1,"Self","Self",1,703,0.703,1
201,1,64,18,"r","English/Farsi","High School","Iran/Canada","Iran",3,2,0,"Nonmatching",2,"Friend","Close",1,1360,1.36,1
201,1,65,18,"r","English/Farsi","High School","Iran/Canada","Iran",3,2,120,"Nonmatching",2,"Friend","Close",1,712,0.712,1
201,1,66,18,"r","English/Farsi","High School","Iran/Canada","Iran",3,3,40,"Matching",3,"Stranger","Stranger",1,1330,1.33,1
201,1,67,18,"r","English/Farsi","High School","Iran/Canada","Iran",1,1,700,"Matching",1,"Self","Self",1,432,0.432,1
201,1,68,18,"r","English/Farsi","High School","Iran/Canada","Iran",2,1,700,"Nonmatching",1,"Self","Self",1,587,0.587,1
201,1,69,18,"r","English/Farsi","High School","Iran/Canada","Iran",1,2,40,"Nonmatching",2,"Friend","Close",1,851,0.851,1
201,1,71,18,"r","English/Farsi","High School","Iran/Canada","Iran",3,3,120,"Matching",3,"Stranger","Stranger",1,610,0.61,1
201,1,72,18,"r","English/Farsi","High School","Iran/Canada","Iran",1,2,700,"Nonmatching",2,"Friend","Close",1,533,0.533,1
201,1,73,18,"r","English/Farsi","High School","Iran/Canada","Iran",1,1,0,"Matching",1,"Self","Self",1,829,0.829,1
201,1,74,18,"r","English/Farsi","High School","Iran/Canada","Iran",1,3,700,"Nonmatching",3,"Stranger","Stranger",1,596,0.596,1
201,1,76,18,"r","English/Farsi","High School","Iran/Canada","Iran",1,1,40,"Matching",1,"Self","Self",1,665,0.665,1
201,1,77,18,"r","English/Farsi","High School","Iran/Canada","Iran",3,3,120,"Matching",3,"Stranger","Stranger",1,1233,1.233,1
201,1,78,18,"r","English/Farsi","High School","Iran/Canada","Iran",3,3,0,"Matching",3,"Stranger","Stranger",1,665,0.665,1
201,1,79,18,"r","English/Farsi","High School","Iran/Canada","Iran",2,1,0,"Nonmatching",1,"Self","Self",1,560,0.56,1
201,1,80,18,"r","English/Farsi","High School","Iran/Canada","Iran",2,2,40,"Matching",2,"Friend","Close",1,789,0.789,1
201,1,81,18,"r","English/Farsi","High School","Iran/Canada","Iran",2,2,40,"Matching",2,"Friend","Close",1,604,0.604,1
201,1,82,18,"r","English/Farsi","High School","Iran/Canada","Iran",2,2,120,"Matching",2,"Friend","Close",1,467,0.467,1
201,1,83,18,"r","English/Farsi","High School","Iran/Canada","Iran",3,1,120,"Nonmatching",1,"Self","Self",1,508,0.508,1
201,1,84,18,"r","English/Farsi","High School","Iran/Canada","Iran",2,2,700,"Matching",2,"Friend","Close",1,1164,1.164,1
201,1,87,18,"r","English/Farsi","High School","Iran/Canada","Iran",2,1,120,"Nonmatching",1,"Self","Self",1,985,0.985,1
201,1,88,18,"r","English/Farsi","High School","Iran/Canada","Iran",1,1,700,"Matching",1,"Self","Self",1,373,0.373,1
201,1,89,18,"r","English/Farsi","High School","Iran/Canada","Iran",1,3,700,"Nonmatching",3,"Stranger","Stranger",1,427,0.427,1
201,1,91,18,"r","English/Farsi","High School","Iran/Canada","Iran",2,1,0,"Nonmatching",1,"Self","Self",1,814,0.814,1
201,1,92,18,"r","English/Farsi","High School","Iran/Canada","Iran",2,3,40,"Nonmatching",3,"Stranger","Stranger",1,980,0.98,1
201,1,93,18,"r","English/Farsi","High School","Iran/Canada","Iran",1,2,0,"Nonmatching",2,"Friend","Close",1,1197,1.197,1
201,1,94,18,"r","English/Farsi","High School","Iran/Canada","Iran",1,2,0,"Nonmatching",2,"Friend","Close",1,1117,1.117,1
201,1,95,18,"r","English/Farsi","High School","Iran/Canada","Iran",1,1,0,"Matching",1,"Self","Self",1,757,0.757,1
201,1,96,18,"r","English/Farsi","High School","Iran/Canada","Iran",1,3,120,"Nonmatching",3,"Stranger","Stranger",1,694,0.694,1
201,1,97,18,"r","English/Farsi","High School","Iran/Canada","Iran",2,3,700,"Nonmatching",3,"Stranger","Stranger",1,825,0.825,1
201,1,98,18,"r","English/Farsi","High School","Iran/Canada","Iran",2,1,120,"Nonmatching",1,"Self","Self",1,651,0.651,1
201,1,99,18,"r","English/Farsi","High School","Iran/Canada","Iran",3,3,120,"Matching",3,"Stranger","Stranger",1,909,0.909,1
201,1,100,18,"r","English/Farsi","High School","Iran/Canada","Iran",3,1,120,"Nonmatching",1,"Self","Self",1,708,0.708,1
201,2,2,18,"r","English/Farsi","High School","Iran/Canada","Iran",1,1,40,"Matching",1,"Self","Self",1,543,0.543,1
201,2,3,18,"r","English/Farsi","High School","Iran/Canada","Iran",3,3,0,"Matching",3,"Stranger","Stranger",1,1143,1.143,1
201,2,4,18,"r","English/Farsi","High School","Iran/Canada","Iran",2,3,120,"Nonmatching",3,"Stranger","Stranger",1,963,0.963,1
201,2,5,18,"r","English/Farsi","High School","Iran/Canada","Iran",2,3,0,"Nonmatching",3,"Stranger","Stranger",1,741,0.741,1
201,2,6,18,"r","English/Farsi","High School","Iran/Canada","Iran",3,2,700,"Nonmatching",2,"Friend","Close",1,575,0.575,1
201,2,7,18,"r","English/Farsi","High School","Iran/Canada","Iran",1,2,40,"Nonmatching",2,"Friend","Close",1,994,0.994,1
201,2,8,18,"r","English/Farsi","High School","Iran/Canada","Iran",2,1,0,"Nonmatching",1,"Self","Self",1,995,0.995,1
201,2,10,18,"r","English/Farsi","High School","Iran/Canada","Iran",3,1,40,"Nonmatching",1,"Self","Self",1,949,0.949,1
201,2,12,18,"r","English/Farsi","High School","Iran/Canada","Iran",1,2,120,"Nonmatching",2,"Friend","Close",1,777,0.777,1
201,2,13,18,"r","English/Farsi","High School","Iran/Canada","Iran",1,3,120,"Nonmatching",3,"Stranger","Stranger",1,1182,1.182,1
201,2,14,18,"r","English/Farsi","High School","Iran/Canada","Iran",3,2,0,"Nonmatching",2,"Friend","Close",1,954,0.954,1
201,2,15,18,"r","English/Farsi","High School","Iran/Canada","Iran",3,2,700,"Nonmatching",2,"Friend","Close",1,804,0.804,1
201,2,16,18,"r","English/Farsi","High School","Iran/Canada","Iran",1,3,0,"Nonmatching",3,"Stranger","Stranger",1,770,0.77,1
201,2,17,18,"r","English/Farsi","High School","Iran/Canada","Iran",1,2,120,"Nonmatching",2,"Friend","Close",1,770,0.77,1
201,2,18,18,"r","English/Farsi","High School","Iran/Canada","Iran",3,3,40,"Matching",3,"Stranger","Stranger",1,1357,1.357,1
201,2,19,18,"r","English/Farsi","High School","Iran/Canada","Iran",3,1,700,"Nonmatching",1,"Self","Self",1,538,0.538,1
201,2,20,18,"r","English/Farsi","High School","Iran/Canada","Iran",1,1,0,"Matching",1,"Self","Self",1,871,0.871,1
201,2,21,18,"r","English/Farsi","High School","Iran/Canada","Iran",3,3,700,"Matching",3,"Stranger","Stranger",1,1416,1.416,1
201,2,22,18,"r","English/Farsi","High School","Iran/Canada","Iran",2,1,40,"Nonmatching",1,"Self","Self",1,521,0.521,1
201,2,23,18,"r","English/Farsi","High School","Iran/Canada","Iran",1,1,40,"Matching",1,"Self","Self",1,780,0.78,1
201,2,24,18,"r","English/Farsi","High School","Iran/Canada","Iran",1,3,40,"Nonmatching",3,"Stranger","Stranger",1,1394,1.394,1
201,2,26,18,"r","English/Farsi","High School","Iran/Canada","Iran",1,1,120,"Matching",1,"Self","Self",1,713,0.713,1
201,2,27,18,"r","English/Farsi","High School","Iran/Canada","Iran",1,1,40,"Matching",1,"Self","Self",1,539,0.539,1
201,2,28,18,"r","English/Farsi","High School","Iran/Canada","Iran",2,1,700,"Nonmatching",1,"Self","Self",1,549,0.549,1
201,2,29,18,"r","English/Farsi","High School","Iran/Canada","Iran",1,3,0,"Nonmatching",3,"Stranger","Stranger",1,795,0.795,1
201,2,30,18,"r","English/Farsi","High School","Iran/Canada","Iran",2,1,0,"Nonmatching",1,"Self","Self",1,621,0.621,1
201,2,31,18,"r","English/Farsi","High School","Iran/Canada","Iran",2,2,40,"Matching",2,"Friend","Close",1,786,0.786,1
201,2,32,18,"r","English/Farsi","High School","Iran/Canada","Iran",2,1,120,"Nonmatching",1,"Self","Self",1,498,0.498,1
201,2,33,18,"r","English/Farsi","High School","Iran/Canada","Iran",1,3,0,"Nonmatching",3,"Stranger","Stranger",1,746,0.746,1
201,2,34,18,"r","English/Farsi","High School","Iran/Canada","Iran",1,2,0,"Nonmatching",2,"Friend","Close",1,794,0.794,1
201,2,35,18,"r","English/Farsi","High School","Iran/Canada","Iran",3,1,120,"Nonmatching",1,"Self","Self",1,776,0.776,1
201,2,36,18,"r","English/Farsi","High School","Iran/Canada","Iran",1,3,700,"Nonmatching",3,"Stranger","Stranger",1,1037,1.037,1
201,2,43,18,"r","English/Farsi","High School","Iran/Canada","Iran",1,3,700,"Nonmatching",3,"Stranger","Stranger",1,594,0.594,1
201,2,44,18,"r","English/Farsi","High School","Iran/Canada","Iran",3,2,120,"Nonmatching",2,"Friend","Close",1,833,0.833,1
201,2,45,18,"r","English/Farsi","High School","Iran/Canada","Iran",3,1,700,"Nonmatching",1,"Self","Self",1,732,0.732,1
201,2,47,18,"r","English/Farsi","High School","Iran/Canada","Iran",2,3,120,"Nonmatching",3,"Stranger","Stranger",1,1073,1.073,1
201,2,48,18,"r","English/Farsi","High School","Iran/Canada","Iran",2,3,40,"Nonmatching",3,"Stranger","Stranger",1,905,0.905,1
201,2,49,18,"r","English/Farsi","High School","Iran/Canada","Iran",3,2,0,"Nonmatching",2,"Friend","Close",1,982,0.982,1
201,2,50,18,"r","English/Farsi","High School","Iran/Canada","Iran",1,2,120,"Nonmatching",2,"Friend","Close",1,1058,1.058,1
201,2,51,18,"r","English/Farsi","High School","Iran/Canada","Iran",1,2,0,"Nonmatching",2,"Friend","Close",1,653,0.653,1
201,2,52,18,"r","English/Farsi","High School","Iran/Canada","Iran",1,1,120,"Matching",1,"Self","Self",1,726,0.726,1
201,2,53,18,"r","English/Farsi","High School","Iran/Canada","Iran",3,2,120,"Nonmatching",2,"Friend","Close",1,699,0.699,1
201,2,54,18,"r","English/Farsi","High School","Iran/Canada","Iran",2,2,0,"Matching",2,"Friend","Close",1,753,0.753,1
201,2,55,18,"r","English/Farsi","High School","Iran/Canada","Iran",1,3,120,"Nonmatching",3,"Stranger","Stranger",1,829,0.829,1
201,2,56,18,"r","English/Farsi","High School","Iran/Canada","Iran",3,1,0,"Nonmatching",1,"Self","Self",1,884,0.884,1
201,2,58,18,"r","English/Farsi","High School","Iran/Canada","Iran",1,2,700,"Nonmatching",2,"Friend","Close",1,573,0.573,1
201,2,60,18,"r","English/Farsi","High School","Iran/Canada","Iran",3,1,40,"Nonmatching",1,"Self","Self",1,1154,1.154,1
201,2,63,18,"r","English/Farsi","High School","Iran/Canada","Iran",3,2,40,"Nonmatching",2,"Friend","Close",1,1168,1.168,1
201,2,64,18,"r","English/Farsi","High School","Iran/Canada","Iran",3,3,700,"Matching",3,"Stranger","Stranger",1,393,0.393,1
201,2,65,18,"r","English/Farsi","High School","Iran/Canada","Iran",1,1,40,"Matching",1,"Self","Self",1,692,0.692,1
201,2,66,18,"r","English/Farsi","High School","Iran/Canada","Iran",1,1,40,"Matching",1,"Self","Self",1,766,0.766,1
201,2,67,18,"r","English/Farsi","High School","Iran/Canada","Iran",2,2,120,"Matching",2,"Friend","Close",1,793,0.793,1
201,2,68,18,"r","English/Farsi","High School","Iran/Canada","Iran",2,2,120,"Matching",2,"Friend","Close",1,1331,1.331,1
201,2,69,18,"r","English/Farsi","High School","Iran/Canada","Iran",1,2,120,"Nonmatching",2,"Friend","Close",1,873,0.873,1
201,2,70,18,"r","English/Farsi","High School","Iran/Canada","Iran",3,1,700,"Nonmatching",1,"Self","Self",1,803,0.803,1
201,2,71,18,"r","English/Farsi","High School","Iran/Canada","Iran",3,2,700,"Nonmatching",2,"Friend","Close",1,827,0.827,1
201,2,72,18,"r","English/Farsi","High School","Iran/Canada","Iran",2,1,700,"Nonmatching",1,"Self","Self",1,878,0.878,1
201,2,73,18,"r","English/Farsi","High School","Iran/Canada","Iran",2,1,700,"Nonmatching",1,"Self","Self",1,855,0.855,1
201,2,74,18,"r","English/Farsi","High School","Iran/Canada","Iran",1,3,120,"Nonmatching",3,"Stranger","Stranger",1,980,0.98,1
201,2,75,18,"r","English/Farsi","High School","Iran/Canada","Iran",3,1,0,"Nonmatching",1,"Self","Self",1,857,0.857,1
201,2,76,18,"r","English/Farsi","High School","Iran/Canada","Iran",2,2,700,"Matching",2,"Friend","Close",1,698,0.698,1
201,2,77,18,"r","English/Farsi","High School","Iran/Canada","Iran",2,2,0,"Matching",2,"Friend","Close",1,839,0.839,1
201,2,78,18,"r","English/Farsi","High School","Iran/Canada","Iran",1,2,700,"Nonmatching",2,"Friend","Close",1,1026,1.026,1
201,2,79,18,"r","English/Farsi","High School","Iran/Canada","Iran",1,1,120,"Matching",1,"Self","Self",1,788,0.788,1
201,2,80,18,"r","English/Farsi","High School","Iran/Canada","Iran",1,3,0,"Nonmatching",3,"Stranger","Stranger",1,843,0.843,1
201,2,81,18,"r","English/Farsi","High School","Iran/Canada","Iran",1,2,40,"Nonmatching",2,"Friend","Close",1,855,0.855,1
201,2,82,18,"r","English/Farsi","High School","Iran/Canada","Iran",1,2,700,"Nonmatching",2,"Friend","Close",1,1120,1.12,1
201,2,83,18,"r","English/Farsi","High School","Iran/Canada","Iran",3,2,40,"Nonmatching",2,"Friend","Close",1,1078,1.078,1
201,2,84,18,"r","English/Farsi","High School","Iran/Canada","Iran",2,3,700,"Nonmatching",3,"Stranger","Stranger",1,1063,1.063,1
201,2,85,18,"r","English/Farsi","High School","Iran/Canada","Iran",2,2,0,"Matching",2,"Friend","Close",1,818,0.818,1
201,2,86,18,"r","English/Farsi","High School","Iran/Canada","Iran",1,1,40,"Matching",1,"Self","Self",1,680,0.68,1
201,2,87,18,"r","English/Farsi","High School","Iran/Canada","Iran",1,2,40,"Nonmatching",2,"Friend","Close",1,747,0.747,1
201,2,88,18,"r","English/Farsi","High School","Iran/Canada","Iran",1,3,0,"Nonmatching",3,"Stranger","Stranger",1,1182,1.182,1
201,2,89,18,"r","English/Farsi","High School","Iran/Canada","Iran",2,3,700,"Nonmatching",3,"Stranger","Stranger",1,583,0.583,1
201,2,90,18,"r","English/Farsi","High School","Iran/Canada","Iran",3,2,120,"Nonmatching",2,"Friend","Close",1,819,0.819,1
201,2,91,18,"r","English/Farsi","High School","Iran/Canada","Iran",1,2,40,"Nonmatching",2,"Friend","Close",1,812,0.812,1
201,2,92,18,"r","English/Farsi","High School","Iran/Canada","Iran",2,2,120,"Matching",2,"Friend","Close",1,843,0.843,1
201,2,93,18,"r","English/Farsi","High School","Iran/Canada","Iran",1,3,40,"Nonmatching",3,"Stranger","Stranger",1,1279,1.279,1
201,2,94,18,"r","English/Farsi","High School","Iran/Canada","Iran",1,1,120,"Matching",1,"Self","Self",1,1034,1.034,1
201,2,95,18,"r","English/Farsi","High School","Iran/Canada","Iran",3,1,120,"Nonmatching",1,"Self","Self",1,711,0.711,1
201,2,96,18,"r","English/Farsi","High School","Iran/Canada","Iran",3,3,120,"Matching",3,"Stranger","Stranger",1,1125,1.125,1
201,2,97,18,"r","English/Farsi","High School","Iran/Canada","Iran",1,3,120,"Nonmatching",3,"Stranger","Stranger",1,995,0.995,1
201,2,98,18,"r","English/Farsi","High School","Iran/Canada","Iran",2,1,700,"Nonmatching",1,"Self","Self",1,523,0.523,1
201,2,100,18,"r","English/Farsi","High School","Iran/Canada","Iran",1,2,700,"Nonmatching",2,"Friend","Close",1,1055,1.055,1
201,3,1,18,"r","English/Farsi","High School","Iran/Canada","Iran",2,3,120,"Nonmatching",3,"Stranger","Stranger",1,873,0.873,1
201,3,2,18,"r","English/Farsi","High School","Iran/Canada","Iran",1,2,40,"Nonmatching",2,"Friend","Close",1,947,0.947,1
201,3,3,18,"r","English/Farsi","High School","Iran/Canada","Iran",1,1,40,"Matching",1,"Self","Self",1,819,0.819,1
201,3,4,18,"r","English/Farsi","High School","Iran/Canada","Iran",3,2,40,"Nonmatching",2,"Friend","Close",1,973,0.973,1
201,3,5,18,"r","English/Farsi","High School","Iran/Canada","Iran",2,2,40,"Matching",2,"Friend","Close",1,725,0.725,1
201,3,6,18,"r","English/Farsi","High School","Iran/Canada","Iran",1,2,40,"Nonmatching",2,"Friend","Close",1,570,0.57,1
201,3,7,18,"r","English/Farsi","High School","Iran/Canada","Iran",2,3,0,"Nonmatching",3,"Stranger","Stranger",1,925,0.925,1
201,3,8,18,"r","English/Farsi","High School","Iran/Canada","Iran",1,1,700,"Matching",1,"Self","Self",1,627,0.627,1
201,3,9,18,"r","English/Farsi","High School","Iran/Canada","Iran",2,3,120,"Nonmatching",3,"Stranger","Stranger",1,1244,1.244,1
201,3,10,18,"r","English/Farsi","High School","Iran/Canada","Iran",2,3,0,"Nonmatching",3,"Stranger","Stranger",1,891,0.891,1
201,3,11,18,"r","English/Farsi","High School","Iran/Canada","Iran",1,3,0,"Nonmatching",3,"Stranger","Stranger",1,1156,1.156,1
201,3,12,18,"r","English/Farsi","High School","Iran/Canada","Iran",3,2,120,"Nonmatching",2,"Friend","Close",1,852,0.852,1
201,3,13,18,"r","English/Farsi","High School","Iran/Canada","Iran",3,1,700,"Nonmatching",1,"Self","Self",1,382,0.382,1
201,3,14,18,"r","English/Farsi","High School","Iran/Canada","Iran",1,2,700,"Nonmatching",2,"Friend","Close",1,827,0.827,1
201,3,15,18,"r","English/Farsi","High School","Iran/Canada","Iran",2,1,0,"Nonmatching",1,"Self","Self",1,642,0.642,1
201,3,16,18,"r","English/Farsi","High School","Iran/Canada","Iran",3,3,120,"Matching",3,"Stranger","Stranger",1,868,0.868,1
201,3,17,18,"r","English/Farsi","High School","Iran/Canada","Iran",1,2,40,"Nonmatching",2,"Friend","Close",1,752,0.752,1
201,3,18,18,"r","English/Farsi","High School","Iran/Canada","Iran",3,2,120,"Nonmatching",2,"Friend","Close",1,501,0.501,1
201,3,22,18,"r","English/Farsi","High School","Iran/Canada","Iran",3,2,0,"Nonmatching",2,"Friend","Close",1,951,0.951,1
201,3,23,18,"r","English/Farsi","High School","Iran/Canada","Iran",3,2,120,"Nonmatching",2,"Friend","Close",1,628,0.628,1
201,3,26,18,"r","English/Farsi","High School","Iran/Canada","Iran",1,3,40,"Nonmatching",3,"Stranger","Stranger",1,982,0.982,1
201,3,27,18,"r","English/Farsi","High School","Iran/Canada","Iran",1,1,700,"Matching",1,"Self","Self",1,1127,1.127,1
201,3,28,18,"r","English/Farsi","High School","Iran/Canada","Iran",2,3,0,"Nonmatching",3,"Stranger","Stranger",1,870,0.87,1
201,3,32,18,"r","English/Farsi","High School","Iran/Canada","Iran",3,2,120,"Nonmatching",2,"Friend","Close",1,639,0.639,1
201,3,33,18,"r","English/Farsi","High School","Iran/Canada","Iran",1,1,120,"Matching",1,"Self","Self",1,741,0.741,1
201,3,34,18,"r","English/Farsi","High School","Iran/Canada","Iran",1,1,40,"Matching",1,"Self","Self",1,658,0.658,1
201,3,35,18,"r","English/Farsi","High School","Iran/Canada","Iran",1,3,120,"Nonmatching",3,"Stranger","Stranger",1,791,0.791,1
201,3,37,18,"r","English/Farsi","High School","Iran/Canada","Iran",2,3,40,"Nonmatching",3,"Stranger","Stranger",1,848,0.848,1
201,3,38,18,"r","English/Farsi","High School","Iran/Canada","Iran",1,1,120,"Matching",1,"Self","Self",1,889,0.889,1
201,3,39,18,"r","English/Farsi","High School","Iran/Canada","Iran",1,2,700,"Nonmatching",2,"Friend","Close",1,889,0.889,1
201,3,40,18,"r","English/Farsi","High School","Iran/Canada","Iran",1,3,700,"Nonmatching",3,"Stranger","Stranger",1,418,0.418,1
201,3,41,18,"r","English/Farsi","High School","Iran/Canada","Iran",2,3,700,"Nonmatching",3,"Stranger","Stranger",1,381,0.381,1
201,3,42,18,"r","English/Farsi","High School","Iran/Canada","Iran",3,1,120,"Nonmatching",1,"Self","Self",1,530,0.53,1
201,3,43,18,"r","English/Farsi","High School","Iran/Canada","Iran",1,1,700,"Matching",1,"Self","Self",1,648,0.648,1
201,3,48,18,"r","English/Farsi","High School","Iran/Canada","Iran",1,2,0,"Nonmatching",2,"Friend","Close",1,971,0.971,1
201,3,50,18,"r","English/Farsi","High School","Iran/Canada","Iran",3,1,40,"Nonmatching",1,"Self","Self",1,694,0.694,1
201,3,51,18,"r","English/Farsi","High School","Iran/Canada","Iran",2,2,120,"Matching",2,"Friend","Close",1,1030,1.03,1
201,3,53,18,"r","English/Farsi","High School","Iran/Canada","Iran",3,3,40,"Matching",3,"Stranger","Stranger",1,912,0.912,1
201,3,54,18,"r","English/Farsi","High School","Iran/Canada","Iran",3,2,40,"Nonmatching",2,"Friend","Close",1,809,0.809,1
201,3,55,18,"r","English/Farsi","High School","Iran/Canada","Iran",2,1,120,"Nonmatching",1,"Self","Self",1,820,0.82,1
201,3,56,18,"r","English/Farsi","High School","Iran/Canada","Iran",3,1,700,"Nonmatching",1,"Self","Self",1,1064,1.064,1
201,3,57,18,"r","English/Farsi","High School","Iran/Canada","Iran",1,1,0,"Matching",1,"Self","Self",1,809,0.809,1
201,3,58,18,"r","English/Farsi","High School","Iran/Canada","Iran",3,1,40,"Nonmatching",1,"Self","Self",1,820,0.82,1
201,3,59,18,"r","English/Farsi","High School","Iran/Canada","Iran",1,2,120,"Nonmatching",2,"Friend","Close",1,991,0.991,1
201,3,60,18,"r","English/Farsi","High School","Iran/Canada","Iran",2,1,120,"Nonmatching",1,"Self","Self",1,1230,1.23,1
201,3,61,18,"r","English/Farsi","High School","Iran/Canada","Iran",1,3,120,"Nonmatching",3,"Stranger","Stranger",1,931,0.931,1
201,3,62,18,"r","English/Farsi","High School","Iran/Canada","Iran",3,1,0,"Nonmatching",1,"Self","Self",1,876,0.876,1
201,3,63,18,"r","English/Farsi","High School","Iran/Canada","Iran",1,3,700,"Nonmatching",3,"Stranger","Stranger",1,1109,1.109,1
201,3,64,18,"r","English/Farsi","High School","Iran/Canada","Iran",3,3,0,"Matching",3,"Stranger","Stranger",1,917,0.917,1
201,3,65,18,"r","English/Farsi","High School","Iran/Canada","Iran",2,1,40,"Nonmatching",1,"Self","Self",1,664,0.664,1
201,3,66,18,"r","English/Farsi","High School","Iran/Canada","Iran",1,2,0,"Nonmatching",2,"Friend","Close",1,1027,1.027,1
201,3,67,18,"r","English/Farsi","High School","Iran/Canada","Iran",3,3,120,"Matching",3,"Stranger","Stranger",1,907,0.907,1
201,3,68,18,"r","English/Farsi","High School","Iran/Canada","Iran",3,2,700,"Nonmatching",2,"Friend","Close",1,604,0.604,1
201,3,69,18,"r","English/Farsi","High School","Iran/Canada","Iran",2,2,700,"Matching",2,"Friend","Close",1,473,0.473,1
201,3,70,18,"r","English/Farsi","High School","Iran/Canada","Iran",2,3,700,"Nonmatching",3,"Stranger","Stranger",1,555,0.555,1
201,3,71,18,"r","English/Farsi","High School","Iran/Canada","Iran",2,1,120,"Nonmatching",1,"Self","Self",1,1060,1.06,1
201,3,72,18,"r","English/Farsi","High School","Iran/Canada","Iran",3,1,700,"Nonmatching",1,"Self","Self",1,393,0.393,1
201,3,73,18,"r","English/Farsi","High School","Iran/Canada","Iran",3,1,700,"Nonmatching",1,"Self","Self",1,436,0.436,1
201,3,74,18,"r","English/Farsi","High School","Iran/Canada","Iran",2,1,700,"Nonmatching",1,"Self","Self",1,334,0.334,1
201,3,75,18,"r","English/Farsi","High School","Iran/Canada","Iran",3,1,40,"Nonmatching",1,"Self","Self",1,488,0.488,1
201,3,76,18,"r","English/Farsi","High School","Iran/Canada","Iran",1,3,120,"Nonmatching",3,"Stranger","Stranger",1,984,0.984,1
201,3,77,18,"r","English/Farsi","High School","Iran/Canada","Iran",2,1,120,"Nonmatching",1,"Self","Self",1,491,0.491,1
201,3,78,18,"r","English/Farsi","High School","Iran/Canada","Iran",1,2,40,"Nonmatching",2,"Friend","Close",1,711,0.711,1
201,3,79,18,"r","English/Farsi","High School","Iran/Canada","Iran",1,2,40,"Nonmatching",2,"Friend","Close",1,1136,1.136,1
201,3,80,18,"r","English/Farsi","High School","Iran/Canada","Iran",2,1,700,"Nonmatching",1,"Self","Self",1,793,0.793,1
201,3,81,18,"r","English/Farsi","High School","Iran/Canada","Iran",1,3,0,"Nonmatching",3,"Stranger","Stranger",1,944,0.944,1
201,3,82,18,"r","English/Farsi","High School","Iran/Canada","Iran",3,2,700,"Nonmatching",2,"Friend","Close",1,621,0.621,1
201,3,83,18,"r","English/Farsi","High School","Iran/Canada","Iran",3,3,120,"Matching",3,"Stranger","Stranger",1,918,0.918,1
201,3,84,18,"r","English/Farsi","High School","Iran/Canada","Iran",1,1,40,"Matching",1,"Self","Self",1,976,0.976,1
201,3,85,18,"r","English/Farsi","High School","Iran/Canada","Iran",3,2,700,"Nonmatching",2,"Friend","Close",1,537,0.537,1
201,3,86,18,"r","English/Farsi","High School","Iran/Canada","Iran",3,2,0,"Nonmatching",2,"Friend","Close",1,832,0.832,1
201,3,87,18,"r","English/Farsi","High School","Iran/Canada","Iran",1,1,40,"Matching",1,"Self","Self",1,672,0.672,1
201,3,88,18,"r","English/Farsi","High School","Iran/Canada","Iran",1,3,40,"Nonmatching",3,"Stranger","Stranger",1,987,0.987,1
201,3,90,18,"r","English/Farsi","High School","Iran/Canada","Iran",1,3,40,"Nonmatching",3,"Stranger","Stranger",1,896,0.896,1
201,3,91,18,"r","English/Farsi","High School","Iran/Canada","Iran",2,3,40,"Nonmatching",3,"Stranger","Stranger",1,854,0.854,1
201,3,92,18,"r","English/Farsi","High School","Iran/Canada","Iran",2,3,0,"Nonmatching",3,"Stranger","Stranger",1,740,0.74,1
201,3,93,18,"r","English/Farsi","High School","Iran/Canada","Iran",1,3,700,"Nonmatching",3,"Stranger","Stranger",1,724,0.724,1
201,3,95,18,"r","English/Farsi","High School","Iran/Canada","Iran",3,1,120,"Nonmatching",1,"Self","Self",1,1030,1.03,1
201,3,96,18,"r","English/Farsi","High School","Iran/Canada","Iran",1,1,120,"Matching",1,"Self","Self",1,686,0.686,1
201,3,97,18,"r","English/Farsi","High School","Iran/Canada","Iran",3,1,0,"Nonmatching",1,"Self","Self",1,684,0.684,1
201,3,99,18,"r","English/Farsi","High School","Iran/Canada","Iran",1,3,120,"Nonmatching",3,"Stranger","Stranger",1,573,0.573,1
201,3,100,18,"r","English/Farsi","High School","Iran/Canada","Iran",2,1,40,"Nonmatching",1,"Self","Self",1,753,0.753,1
201,4,1,18,"r","English/Farsi","High School","Iran/Canada","Iran",2,3,700,"Nonmatching",3,"Stranger","Stranger",1,611,0.611,1
201,4,3,18,"r","English/Farsi","High School","Iran/Canada","Iran",1,2,0,"Nonmatching",2,"Friend","Close",1,668,0.668,1
201,4,4,18,"r","English/Farsi","High School","Iran/Canada","Iran",2,2,40,"Matching",2,"Friend","Close",1,871,0.871,1
201,4,5,18,"r","English/Farsi","High School","Iran/Canada","Iran",3,3,120,"Matching",3,"Stranger","Stranger",1,1015,1.015,1
201,4,6,18,"r","English/Farsi","High School","Iran/Canada","Iran",3,3,40,"Matching",3,"Stranger","Stranger",1,485,0.485,1
201,4,7,18,"r","English/Farsi","High School","Iran/Canada","Iran",2,2,700,"Matching",2,"Friend","Close",1,425,0.425,1
201,4,8,18,"r","English/Farsi","High School","Iran/Canada","Iran",3,2,700,"Nonmatching",2,"Friend","Close",1,412,0.412,1
201,4,9,18,"r","English/Farsi","High School","Iran/Canada","Iran",3,1,120,"Nonmatching",1,"Self","Self",1,735,0.735,1
201,4,10,18,"r","English/Farsi","High School","Iran/Canada","Iran",3,3,120,"Matching",3,"Stranger","Stranger",1,972,0.972,1
201,4,11,18,"r","English/Farsi","High School","Iran/Canada","Iran",3,2,120,"Nonmatching",2,"Friend","Close",1,696,0.696,1
201,4,12,18,"r","English/Farsi","High School","Iran/Canada","Iran",3,1,40,"Nonmatching",1,"Self","Self",1,590,0.59,1
201,4,13,18,"r","English/Farsi","High School","Iran/Canada","Iran",3,1,700,"Nonmatching",1,"Self","Self",1,689,0.689,1
201,4,14,18,"r","English/Farsi","High School","Iran/Canada","Iran",1,2,40,"Nonmatching",2,"Friend","Close",1,1145,1.145,1
201,4,15,18,"r","English/Farsi","High School","Iran/Canada","Iran",2,1,40,"Nonmatching",1,"Self","Self",1,772,0.772,1
201,4,16,18,"r","English/Farsi","High School","Iran/Canada","Iran",3,3,40,"Matching",3,"Stranger","Stranger",1,956,0.956,1
201,4,17,18,"r","English/Farsi","High School","Iran/Canada","Iran",1,2,0,"Nonmatching",2,"Friend","Close",1,914,0.914,1
201,4,18,18,"r","English/Farsi","High School","Iran/Canada","Iran",1,2,120,"Nonmatching",2,"Friend","Close",1,631,0.631,1
201,4,19,18,"r","English/Farsi","High School","Iran/Canada","Iran",2,3,700,"Nonmatching",3,"Stranger","Stranger",1,710,0.71,1
201,4,20,18,"r","English/Farsi","High School","Iran/Canada","Iran",3,3,40,"Matching",3,"Stranger","Stranger",1,1417,1.417,1
201,4,21,18,"r","English/Farsi","High School","Iran/Canada","Iran",1,2,0,"Nonmatching",2,"Friend","Close",1,628,0.628,1
201,4,22,18,"r","English/Farsi","High School","Iran/Canada","Iran",2,1,0,"Nonmatching",1,"Self","Self",1,628,0.628,1
201,4,23,18,"r","English/Farsi","High School","Iran/Canada","Iran",3,1,700,"Nonmatching",1,"Self","Self",1,507,0.507,1
201,4,24,18,"r","English/Farsi","High School","Iran/Canada","Iran",3,3,0,"Matching",3,"Stranger","Stranger",1,829,0.829,1
201,4,26,18,"r","English/Farsi","High School","Iran/Canada","Iran",1,3,700,"Nonmatching",3,"Stranger","Stranger",1,568,0.568,1
201,4,27,18,"r","English/Farsi","High School","Iran/Canada","Iran",3,3,120,"Matching",3,"Stranger","Stranger",1,1028,1.028,1
201,4,28,18,"r","English/Farsi","High School","Iran/Canada","Iran",1,2,700,"Nonmatching",2,"Friend","Close",1,598,0.598,1
201,4,29,18,"r","English/Farsi","High School","Iran/Canada","Iran",2,1,120,"Nonmatching",1,"Self","Self",1,692,0.692,1
201,4,30,18,"r","English/Farsi","High School","Iran/Canada","Iran",2,1,700,"Nonmatching",1,"Self","Self",1,428,0.428,1
201,4,32,18,"r","English/Farsi","High School","Iran/Canada","Iran",3,2,0,"Nonmatching",2,"Friend","Close",1,1052,1.052,1
201,4,33,18,"r","English/Farsi","High School","Iran/Canada","Iran",2,2,0,"Matching",2,"Friend","Close",1,846,0.846,1
201,4,34,18,"r","English/Farsi","High School","Iran/Canada","Iran",2,2,120,"Matching",2,"Friend","Close",1,1287,1.287,1
201,4,35,18,"r","English/Farsi","High School","Iran/Canada","Iran",2,3,0,"Nonmatching",3,"Stranger","Stranger",1,785,0.785,1
201,4,37,18,"r","English/Farsi","High School","Iran/Canada","Iran",3,1,40,"Nonmatching",1,"Self","Self",1,787,0.787,1
201,4,38,18,"r","English/Farsi","High School","Iran/Canada","Iran",1,2,120,"Nonmatching",2,"Friend","Close",1,776,0.776,1
201,4,39,18,"r","English/Farsi","High School","Iran/Canada","Iran",2,3,0,"Nonmatching",3,"Stranger","Stranger",1,866,0.866,1
201,4,40,18,"r","English/Farsi","High School","Iran/Canada","Iran",1,3,700,"Nonmatching",3,"Stranger","Stranger",1,478,0.478,1
201,4,41,18,"r","English/Farsi","High School","Iran/Canada","Iran",3,2,0,"Nonmatching",2,"Friend","Close",1,921,0.921,1
201,4,42,18,"r","English/Farsi","High School","Iran/Canada","Iran",1,1,120,"Matching",1,"Self","Self",1,798,0.798,1
201,4,43,18,"r","English/Farsi","High School","Iran/Canada","Iran",1,3,700,"Nonmatching",3,"Stranger","Stranger",1,638,0.638,1
201,4,44,18,"r","English/Farsi","High School","Iran/Canada","Iran",1,2,120,"Nonmatching",2,"Friend","Close",1,1148,1.148,1
201,4,46,18,"r","English/Farsi","High School","Iran/Canada","Iran",2,2,0,"Matching",2,"Friend","Close",1,988,0.988,1
201,4,47,18,"r","English/Farsi","High School","Iran/Canada","Iran",2,3,700,"Nonmatching",3,"Stranger","Stranger",1,1012,1.012,1
201,4,48,18,"r","English/Farsi","High School","Iran/Canada","Iran",2,3,120,"Nonmatching",3,"Stranger","Stranger",1,1059,1.059,1
201,4,49,18,"r","English/Farsi","High School","Iran/Canada","Iran",3,3,0,"Matching",3,"Stranger","Stranger",1,914,0.914,1
201,4,50,18,"r","English/Farsi","High School","Iran/Canada","Iran",1,1,40,"Matching",1,"Self","Self",1,580,0.58,1
201,4,51,18,"r","English/Farsi","High School","Iran/Canada","Iran",2,1,0,"Nonmatching",1,"Self","Self",1,862,0.862,1
201,4,52,18,"r","English/Farsi","High School","Iran/Canada","Iran",3,3,0,"Matching",3,"Stranger","Stranger",1,712,0.712,1
201,4,53,18,"r","English/Farsi","High School","Iran/Canada","Iran",1,1,700,"Matching",1,"Self","Self",1,831,0.831,1
201,4,54,18,"r","English/Farsi","High School","Iran/Canada","Iran",1,1,120,"Matching",1,"Self","Self",1,529,0.529,1
201,4,56,18,"r","English/Farsi","High School","Iran/Canada","Iran",2,1,120,"Nonmatching",1,"Self","Self",1,721,0.721,1
201,4,57,18,"r","English/Farsi","High School","Iran/Canada","Iran",3,2,0,"Nonmatching",2,"Friend","Close",1,826,0.826,1
201,4,58,18,"r","English/Farsi","High School","Iran/Canada","Iran",1,2,700,"Nonmatching",2,"Friend","Close",1,545,0.545,1
201,4,59,18,"r","English/Farsi","High School","Iran/Canada","Iran",1,2,120,"Nonmatching",2,"Friend","Close",1,862,0.862,1
201,4,60,18,"r","English/Farsi","High School","Iran/Canada","Iran",2,1,40,"Nonmatching",1,"Self","Self",1,786,0.786,1
201,4,62,18,"r","English/Farsi","High School","Iran/Canada","Iran",2,3,0,"Nonmatching",3,"Stranger","Stranger",1,954,0.954,1
201,4,63,18,"r","English/Farsi","High School","Iran/Canada","Iran",1,1,700,"Matching",1,"Self","Self",1,544,0.544,1
201,4,65,18,"r","English/Farsi","High School","Iran/Canada","Iran",2,3,120,"Nonmatching",3,"Stranger","Stranger",1,636,0.636,1
201,4,66,18,"r","English/Farsi","High School","Iran/Canada","Iran",3,2,0,"Nonmatching",2,"Friend","Close",1,776,0.776,1
201,4,67,18,"r","English/Farsi","High School","Iran/Canada","Iran",3,1,40,"Nonmatching",1,"Self","Self",1,888,0.888,1
201,4,68,18,"r","English/Farsi","High School","Iran/Canada","Iran",2,2,0,"Matching",2,"Friend","Close",1,950,0.95,1
201,4,69,18,"r","English/Farsi","High School","Iran/Canada","Iran",3,3,120,"Matching",3,"Stranger","Stranger",1,791,0.791,1
201,4,70,18,"r","English/Farsi","High School","Iran/Canada","Iran",3,3,0,"Matching",3,"Stranger","Stranger",1,756,0.756,1
201,4,72,18,"r","English/Farsi","High School","Iran/Canada","Iran",3,3,700,"Matching",3,"Stranger","Stranger",1,1071,1.071,1
201,4,73,18,"r","English/Farsi","High School","Iran/Canada","Iran",3,2,40,"Nonmatching",2,"Friend","Close",1,1046,1.046,1
201,4,74,18,"r","English/Farsi","High School","Iran/Canada","Iran",2,1,700,"Nonmatching",1,"Self","Self",1,544,0.544,1
201,4,75,18,"r","English/Farsi","High School","Iran/Canada","Iran",1,1,40,"Matching",1,"Self","Self",1,832,0.832,1
201,4,77,18,"r","English/Farsi","High School","Iran/Canada","Iran",3,1,120,"Nonmatching",1,"Self","Self",1,1013,1.013,1
201,4,79,18,"r","English/Farsi","High School","Iran/Canada","Iran",1,3,120,"Nonmatching",3,"Stranger","Stranger",1,748,0.748,1
201,4,81,18,"r","English/Farsi","High School","Iran/Canada","Iran",1,2,120,"Nonmatching",2,"Friend","Close",1,894,0.894,1
201,4,82,18,"r","English/Farsi","High School","Iran/Canada","Iran",3,3,120,"Matching",3,"Stranger","Stranger",1,646,0.646,1
201,4,83,18,"r","English/Farsi","High School","Iran/Canada","Iran",2,3,700,"Nonmatching",3,"Stranger","Stranger",1,563,0.563,1
201,4,85,18,"r","English/Farsi","High School","Iran/Canada","Iran",3,3,0,"Matching",3,"Stranger","Stranger",1,657,0.657,1
201,4,86,18,"r","English/Farsi","High School","Iran/Canada","Iran",3,1,0,"Nonmatching",1,"Self","Self",1,868,0.868,1
201,4,87,18,"r","English/Farsi","High School","Iran/Canada","Iran",1,3,0,"Nonmatching",3,"Stranger","Stranger",1,880,0.88,1
201,4,88,18,"r","English/Farsi","High School","Iran/Canada","Iran",2,2,120,"Matching",2,"Friend","Close",1,851,0.851,1
201,4,89,18,"r","English/Farsi","High School","Iran/Canada","Iran",2,3,0,"Nonmatching",3,"Stranger","Stranger",1,889,0.889,1
201,4,90,18,"r","English/Farsi","High School","Iran/Canada","Iran",1,2,40,"Nonmatching",2,"Friend","Close",1,931,0.931,1
201,4,91,18,"r","English/Farsi","High School","Iran/Canada","Iran",1,2,0,"Nonmatching",2,"Friend","Close",1,934,0.934,1
201,4,92,18,"r","English/Farsi","High School","Iran/Canada","Iran",3,1,700,"Nonmatching",1,"Self","Self",1,988,0.988,1
201,4,93,18,"r","English/Farsi","High School","Iran/Canada","Iran",1,2,120,"Nonmatching",2,"Friend","Close",1,516,0.516,1
201,4,94,18,"r","English/Farsi","High School","Iran/Canada","Iran",1,3,700,"Nonmatching",3,"Stranger","Stranger",1,1198,1.198,1
201,4,95,18,"r","English/Farsi","High School","Iran/Canada","Iran",3,2,40,"Nonmatching",2,"Friend","Close",1,764,0.764,1
201,4,97,18,"r","English/Farsi","High School","Iran/Canada","Iran",1,3,120,"Nonmatching",3,"Stranger","Stranger",1,1170,1.17,1
201,4,98,18,"r","English/Farsi","High School","Iran/Canada","Iran",3,1,700,"Nonmatching",1,"Self","Self",1,830,0.83,1
201,4,99,18,"r","English/Farsi","High School","Iran/Canada","Iran",2,2,0,"Matching",2,"Friend","Close",1,717,0.717,1
201,4,100,18,"r","English/Farsi","High School","Iran/Canada","Iran",3,2,120,"Nonmatching",2,"Friend","Close",1,1208,1.208,1
202,1,1,18,"r","English","High School","Canada","Canada",1,1,700,"Matching",1,"Self","Self",1,1015,1.015,1
202,1,2,18,"r","English","High School","Canada","Canada",2,2,120,"Matching",2,"Friend","Close",1,959,0.959,1
202,1,3,18,"r","English","High School","Canada","Canada",3,2,0,"Nonmatching",2,"Friend","Close",1,1173,1.173,1
202,1,5,18,"r","English","High School","Canada","Canada",2,2,40,"Matching",2,"Friend","Close",1,812,0.812,1
202,1,6,18,"r","English","High School","Canada","Canada",2,1,120,"Nonmatching",1,"Self","Self",1,1048,1.048,1
202,1,7,18,"r","English","High School","Canada","Canada",1,1,700,"Matching",1,"Self","Self",1,682,0.682,1
202,1,8,18,"r","English","High School","Canada","Canada",3,2,700,"Nonmatching",2,"Friend","Close",1,915,0.915,1
202,1,9,18,"r","English","High School","Canada","Canada",2,3,40,"Nonmatching",3,"Stranger","Stranger",1,1059,1.059,1
202,1,10,18,"r","English","High School","Canada","Canada",2,1,40,"Nonmatching",1,"Self","Self",1,1042,1.042,1
202,1,11,18,"r","English","High School","Canada","Canada",1,2,40,"Nonmatching",2,"Friend","Close",1,838,0.838,1
202,1,12,18,"r","English","High School","Canada","Canada",2,3,0,"Nonmatching",3,"Stranger","Stranger",1,1234,1.234,1
202,1,13,18,"r","English","High School","Canada","Canada",2,2,40,"Matching",2,"Friend","Close",1,594,0.594,1
202,1,15,18,"r","English","High School","Canada","Canada",3,2,120,"Nonmatching",2,"Friend","Close",1,808,0.808,1
202,1,16,18,"r","English","High School","Canada","Canada",1,1,40,"Matching",1,"Self","Self",1,568,0.568,1
202,1,17,18,"r","English","High School","Canada","Canada",3,3,40,"Matching",3,"Stranger","Stranger",1,1132,1.132,1
202,1,18,18,"r","English","High School","Canada","Canada",2,2,40,"Matching",2,"Friend","Close",1,829,0.829,1
202,1,20,18,"r","English","High School","Canada","Canada",2,2,700,"Matching",2,"Friend","Close",1,714,0.714,1
202,1,21,18,"r","English","High School","Canada","Canada",2,2,120,"Matching",2,"Friend","Close",1,474,0.474,1
202,1,22,18,"r","English","High School","Canada","Canada",2,1,0,"Nonmatching",1,"Self","Self",1,931,0.931,1
202,1,23,18,"r","English","High School","Canada","Canada",1,2,0,"Nonmatching",2,"Friend","Close",1,923,0.923,1
202,1,24,18,"r","English","High School","Canada","Canada",3,3,40,"Matching",3,"Stranger","Stranger",1,796,0.796,1
202,1,25,18,"r","English","High School","Canada","Canada",3,1,0,"Nonmatching",1,"Self","Self",1,894,0.894,1
202,1,26,18,"r","English","High School","Canada","Canada",3,2,40,"Nonmatching",2,"Friend","Close",1,767,0.767,1
202,1,27,18,"r","English","High School","Canada","Canada",2,1,40,"Nonmatching",1,"Self","Self",1,704,0.704,1
202,1,28,18,"r","English","High School","Canada","Canada",3,3,0,"Matching",3,"Stranger","Stranger",1,694,0.694,1
202,1,29,18,"r","English","High School","Canada","Canada",2,3,700,"Nonmatching",3,"Stranger","Stranger",1,1034,1.034,1
202,1,30,18,"r","English","High School","Canada","Canada",1,3,40,"Nonmatching",3,"Stranger","Stranger",1,907,0.907,1
202,1,31,18,"r","English","High School","Canada","Canada",1,1,0,"Matching",1,"Self","Self",1,656,0.656,1
202,1,32,18,"r","English","High School","Canada","Canada",2,3,40,"Nonmatching",3,"Stranger","Stranger",1,849,0.849,1
202,1,33,18,"r","English","High School","Canada","Canada",3,3,40,"Matching",3,"Stranger","Stranger",1,1049,1.049,1
202,1,34,18,"r","English","High School","Canada","Canada",3,3,0,"Matching",3,"Stranger","Stranger",1,1003,1.003,1
202,1,35,18,"r","English","High School","Canada","Canada",2,2,0,"Matching",2,"Friend","Close",1,785,0.785,1
202,1,36,18,"r","English","High School","Canada","Canada",1,3,700,"Nonmatching",3,"Stranger","Stranger",1,622,0.622,1
202,1,37,18,"r","English","High School","Canada","Canada",3,1,700,"Nonmatching",1,"Self","Self",1,664,0.664,1
202,1,38,18,"r","English","High School","Canada","Canada",2,2,700,"Matching",2,"Friend","Close",1,427,0.427,1
202,1,39,18,"r","English","High School","Canada","Canada",1,1,700,"Matching",1,"Self","Self",1,1026,1.026,1
202,1,40,18,"r","English","High School","Canada","Canada",2,1,120,"Nonmatching",1,"Self","Self",1,748,0.748,1
202,1,41,18,"r","English","High School","Canada","Canada",2,2,0,"Matching",2,"Friend","Close",1,908,0.908,1
202,1,42,18,"r","English","High School","Canada","Canada",1,1,700,"Matching",1,"Self","Self",1,647,0.647,1
202,1,43,18,"r","English","High School","Canada","Canada",3,2,40,"Nonmatching",2,"Friend","Close",1,842,0.842,1
202,1,44,18,"r","English","High School","Canada","Canada",3,2,120,"Nonmatching",2,"Friend","Close",1,983,0.983,1
202,1,45,18,"r","English","High School","Canada","Canada",1,2,40,"Nonmatching",2,"Friend","Close",1,1012,1.012,1
202,1,46,18,"r","English","High School","Canada","Canada",2,3,700,"Nonmatching",3,"Stranger","Stranger",1,561,0.561,1
202,1,47,18,"r","English","High School","Canada","Canada",2,1,40,"Nonmatching",1,"Self","Self",1,956,0.956,1
202,1,49,18,"r","English","High School","Canada","Canada",1,3,700,"Nonmatching",3,"Stranger","Stranger",1,574,0.574,1
202,1,50,18,"r","English","High School","Canada","Canada",1,1,700,"Matching",1,"Self","Self",1,385,0.385,1
202,1,52,18,"r","English","High School","Canada","Canada",1,1,120,"Matching",1,"Self","Self",1,811,0.811,1
202,1,53,18,"r","English","High School","Canada","Canada",2,2,0,"Matching",2,"Friend","Close",1,693,0.693,1
202,1,54,18,"r","English","High School","Canada","Canada",2,2,0,"Matching",2,"Friend","Close",1,589,0.589,1
202,1,55,18,"r","English","High School","Canada","Canada",2,2,120,"Matching",2,"Friend","Close",1,741,0.741,1
202,1,57,18,"r","English","High School","Canada","Canada",3,1,120,"Nonmatching",1,"Self","Self",1,821,0.821,1
202,1,58,18,"r","English","High School","Canada","Canada",1,3,120,"Nonmatching",3,"Stranger","Stranger",1,1102,1.102,1
202,1,59,18,"r","English","High School","Canada","Canada",3,1,700,"Nonmatching",1,"Self","Self",1,739,0.739,1
202,1,60,18,"r","English","High School","Canada","Canada",3,3,700,"Matching",3,"Stranger","Stranger",1,990,0.99,1
202,1,61,18,"r","English","High School","Canada","Canada",3,3,700,"Matching",3,"Stranger","Stranger",1,607,0.607,1
202,1,63,18,"r","English","High School","Canada","Canada",3,1,120,"Nonmatching",1,"Self","Self",1,902,0.902,1
202,1,64,18,"r","English","High School","Canada","Canada",1,3,40,"Nonmatching",3,"Stranger","Stranger",1,678,0.678,1
202,1,65,18,"r","English","High School","Canada","Canada",2,2,120,"Matching",2,"Friend","Close",1,516,0.516,1
202,1,66,18,"r","English","High School","Canada","Canada",2,1,0,"Nonmatching",1,"Self","Self",1,910,0.91,1
202,1,67,18,"r","English","High School","Canada","Canada",3,2,0,"Nonmatching",2,"Friend","Close",1,888,0.888,1
202,1,68,18,"r","English","High School","Canada","Canada",1,2,40,"Nonmatching",2,"Friend","Close",1,710,0.71,1
202,1,69,18,"r","English","High School","Canada","Canada",3,1,700,"Nonmatching",1,"Self","Self",1,675,0.675,1
202,1,70,18,"r","English","High School","Canada","Canada",2,1,40,"Nonmatching",1,"Self","Self",1,554,0.554,1
202,1,71,18,"r","English","High School","Canada","Canada",3,3,40,"Matching",3,"Stranger","Stranger",1,941,0.941,1
202,1,72,18,"r","English","High School","Canada","Canada",2,2,40,"Matching",2,"Friend","Close",1,609,0.609,1
202,1,73,18,"r","English","High School","Canada","Canada",3,3,40,"Matching",3,"Stranger","Stranger",1,828,0.828,1
202,1,74,18,"r","English","High School","Canada","Canada",2,3,0,"Nonmatching",3,"Stranger","Stranger",1,694,0.694,1
202,1,75,18,"r","English","High School","Canada","Canada",2,2,700,"Matching",2,"Friend","Close",1,575,0.575,1
202,1,76,18,"r","English","High School","Canada","Canada",1,3,0,"Nonmatching",3,"Stranger","Stranger",1,931,0.931,1
202,1,78,18,"r","English","High School","Canada","Canada",1,3,0,"Nonmatching",3,"Stranger","Stranger",1,976,0.976,1
202,1,79,18,"r","English","High School","Canada","Canada",1,2,40,"Nonmatching",2,"Friend","Close",1,808,0.808,1
202,1,80,18,"r","English","High School","Canada","Canada",2,1,700,"Nonmatching",1,"Self","Self",1,626,0.626,1
202,1,82,18,"r","English","High School","Canada","Canada",1,1,40,"Matching",1,"Self","Self",1,1057,1.057,1
202,1,83,18,"r","English","High School","Canada","Canada",3,2,40,"Nonmatching",2,"Friend","Close",1,659,0.659,1
202,1,84,18,"r","English","High School","Canada","Canada",2,3,700,"Nonmatching",3,"Stranger","Stranger",1,437,0.437,1
202,1,85,18,"r","English","High School","Canada","Canada",3,2,120,"Nonmatching",2,"Friend","Close",1,1194,1.194,1
202,1,86,18,"r","English","High School","Canada","Canada",3,2,0,"Nonmatching",2,"Friend","Close",1,888,0.888,1
202,1,87,18,"r","English","High School","Canada","Canada",3,1,120,"Nonmatching",1,"Self","Self",1,1108,1.108,1
202,1,89,18,"r","English","High School","Canada","Canada",2,2,0,"Matching",2,"Friend","Close",1,999,0.999,1
202,1,90,18,"r","English","High School","Canada","Canada",1,3,120,"Nonmatching",3,"Stranger","Stranger",1,1169,1.169,1
202,1,91,18,"r","English","High School","Canada","Canada",1,1,40,"Matching",1,"Self","Self",1,789,0.789,1
202,1,93,18,"r","English","High School","Canada","Canada",2,2,0,"Matching",2,"Friend","Close",1,693,0.693,1
202,1,94,18,"r","English","High School","Canada","Canada",1,3,700,"Nonmatching",3,"Stranger","Stranger",1,516,0.516,1
202,1,95,18,"r","English","High School","Canada","Canada",2,3,40,"Nonmatching",3,"Stranger","Stranger",1,654,0.654,1
202,1,96,18,"r","English","High School","Canada","Canada",1,3,120,"Nonmatching",3,"Stranger","Stranger",1,528,0.528,1
202,1,97,18,"r","English","High School","Canada","Canada",1,3,700,"Nonmatching",3,"Stranger","Stranger",1,449,0.449,1
202,1,98,18,"r","English","High School","Canada","Canada",1,1,0,"Matching",1,"Self","Self",1,560,0.56,1
202,1,99,18,"r","English","High School","Canada","Canada",2,3,700,"Nonmatching",3,"Stranger","Stranger",1,380,0.38,1
202,1,100,18,"r","English","High School","Canada","Canada",1,2,700,"Nonmatching",2,"Friend","Close",1,653,0.653,1
202,2,1,18,"r","English","High School","Canada","Canada",2,1,40,"Nonmatching",1,"Self","Self",1,1019,1.019,1
202,2,2,18,"r","English","High School","Canada","Canada",3,2,700,"Nonmatching",2,"Friend","Close",1,604,0.604,1
202,2,3,18,"r","English","High School","Canada","Canada",1,1,0,"Matching",1,"Self","Self",1,548,0.548,1
202,2,5,18,"r","English","High School","Canada","Canada",2,2,0,"Matching",2,"Friend","Close",1,948,0.948,1
202,2,6,18,"r","English","High School","Canada","Canada",2,2,700,"Matching",2,"Friend","Close",1,458,0.458,1
202,2,7,18,"r","English","High School","Canada","Canada",3,3,700,"Matching",3,"Stranger","Stranger",1,568,0.568,1
202,2,8,18,"r","English","High School","Canada","Canada",2,1,40,"Nonmatching",1,"Self","Self",1,1029,1.029,1
202,2,9,18,"r","English","High School","Canada","Canada",2,2,120,"Matching",2,"Friend","Close",1,1221,1.221,1
202,2,10,18,"r","English","High School","Canada","Canada",3,2,700,"Nonmatching",2,"Friend","Close",1,533,0.533,1
202,2,12,18,"r","English","High School","Canada","Canada",1,2,120,"Nonmatching",2,"Friend","Close",1,1048,1.048,1
202,2,14,18,"r","English","High School","Canada","Canada",1,1,0,"Matching",1,"Self","Self",1,1202,1.202,1
202,2,15,18,"r","English","High School","Canada","Canada",3,1,40,"Nonmatching",1,"Self","Self",1,669,0.669,1
202,2,16,18,"r","English","High School","Canada","Canada",1,1,0,"Matching",1,"Self","Self",1,564,0.564,1
202,2,17,18,"r","English","High School","Canada","Canada",3,2,40,"Nonmatching",2,"Friend","Close",1,609,0.609,1
202,2,18,18,"r","English","High School","Canada","Canada",1,3,120,"Nonmatching",3,"Stranger","Stranger",1,584,0.584,1
202,2,19,18,"r","English","High School","Canada","Canada",3,3,120,"Matching",3,"Stranger","Stranger",1,642,0.642,1
202,2,20,18,"r","English","High School","Canada","Canada",2,1,700,"Nonmatching",1,"Self","Self",1,685,0.685,1
202,2,21,18,"r","English","High School","Canada","Canada",1,1,0,"Matching",1,"Self","Self",1,560,0.56,1
202,2,23,18,"r","English","High School","Canada","Canada",1,3,120,"Nonmatching",3,"Stranger","Stranger",1,620,0.62,1
202,2,24,18,"r","English","High School","Canada","Canada",3,1,120,"Nonmatching",1,"Self","Self",1,721,0.721,1
202,2,25,18,"r","English","High School","Canada","Canada",2,2,0,"Matching",2,"Friend","Close",1,1125,1.125,1
202,2,26,18,"r","English","High School","Canada","Canada",1,3,0,"Nonmatching",3,"Stranger","Stranger",1,743,0.743,1
202,2,27,18,"r","English","High School","Canada","Canada",3,2,40,"Nonmatching",2,"Friend","Close",1,1180,1.18,1
202,2,28,18,"r","English","High School","Canada","Canada",3,2,700,"Nonmatching",2,"Friend","Close",1,820,0.82,1
202,2,29,18,"r","English","High School","Canada","Canada",1,1,0,"Matching",1,"Self","Self",1,660,0.66,1
202,2,30,18,"r","English","High School","Canada","Canada",2,3,40,"Nonmatching",3,"Stranger","Stranger",1,684,0.684,1
202,2,32,18,"r","English","High School","Canada","Canada",2,3,120,"Nonmatching",3,"Stranger","Stranger",1,704,0.704,1
202,2,33,18,"r","English","High School","Canada","Canada",3,1,0,"Nonmatching",1,"Self","Self",1,910,0.91,1
202,2,34,18,"r","English","High School","Canada","Canada",2,3,700,"Nonmatching",3,"Stranger","Stranger",1,634,0.634,1
202,2,35,18,"r","English","High School","Canada","Canada",1,3,0,"Nonmatching",3,"Stranger","Stranger",1,845,0.845,1
202,2,36,18,"r","English","High School","Canada","Canada",2,2,40,"Matching",2,"Friend","Close",1,894,0.894,1
202,2,37,18,"r","English","High School","Canada","Canada",3,2,40,"Nonmatching",2,"Friend","Close",1,693,0.693,1
202,2,38,18,"r","English","High School","Canada","Canada",2,1,0,"Nonmatching",1,"Self","Self",1,979,0.979,1
202,2,39,18,"r","English","High School","Canada","Canada",1,3,120,"Nonmatching",3,"Stranger","Stranger",1,715,0.715,1
202,2,40,18,"r","English","High School","Canada","Canada",1,2,120,"Nonmatching",2,"Friend","Close",1,1388,1.388,1
202,2,41,18,"r","English","High School","Canada","Canada",1,3,40,"Nonmatching",3,"Stranger","Stranger",1,559,0.559,1
202,2,42,18,"r","English","High School","Canada","Canada",2,1,120,"Nonmatching",1,"Self","Self",1,573,0.573,1
202,2,43,18,"r","English","High School","Canada","Canada",2,3,700,"Nonmatching",3,"Stranger","Stranger",1,456,0.456,1
202,2,44,18,"r","English","High School","Canada","Canada",3,1,0,"Nonmatching",1,"Self","Self",1,778,0.778,1
202,2,45,18,"r","English","High School","Canada","Canada",1,1,0,"Matching",1,"Self","Self",1,670,0.67,1
202,2,46,18,"r","English","High School","Canada","Canada",1,2,700,"Nonmatching",2,"Friend","Close",1,931,0.931,1
202,2,47,18,"r","English","High School","Canada","Canada",3,3,700,"Matching",3,"Stranger","Stranger",1,734,0.734,1
202,2,48,18,"r","English","High School","Canada","Canada",1,2,40,"Nonmatching",2,"Friend","Close",1,1360,1.36,1
202,2,49,18,"r","English","High School","Canada","Canada",1,2,700,"Nonmatching",2,"Friend","Close",1,1020,1.02,1
202,2,50,18,"r","English","High School","Canada","Canada",2,1,120,"Nonmatching",1,"Self","Self",1,893,0.893,1
202,2,51,18,"r","English","High School","Canada","Canada",1,2,120,"Nonmatching",2,"Friend","Close",1,968,0.968,1
202,2,52,18,"r","English","High School","Canada","Canada",2,1,40,"Nonmatching",1,"Self","Self",1,1106,1.106,1
202,2,53,18,"r","English","High School","Canada","Canada",2,2,700,"Matching",2,"Friend","Close",1,362,0.362,1
202,2,54,18,"r","English","High School","Canada","Canada",2,1,700,"Nonmatching",1,"Self","Self",1,805,0.805,1
202,2,55,18,"r","English","High School","Canada","Canada",1,1,40,"Matching",1,"Self","Self",1,715,0.715,1
202,2,56,18,"r","English","High School","Canada","Canada",3,2,40,"Nonmatching",2,"Friend","Close",1,666,0.666,1
202,2,57,18,"r","English","High School","Canada","Canada",2,1,40,"Nonmatching",1,"Self","Self",1,838,0.838,1
202,2,58,18,"r","English","High School","Canada","Canada",2,3,0,"Nonmatching",3,"Stranger","Stranger",1,854,0.854,1
202,2,59,18,"r","English","High School","Canada","Canada",2,3,40,"Nonmatching",3,"Stranger","Stranger",1,492,0.492,1
202,2,60,18,"r","English","High School","Canada","Canada",3,3,120,"Matching",3,"Stranger","Stranger",1,578,0.578,1
202,2,61,18,"r","English","High School","Canada","Canada",3,1,120,"Nonmatching",1,"Self","Self",1,550,0.55,1
202,2,62,18,"r","English","High School","Canada","Canada",1,3,0,"Nonmatching",3,"Stranger","Stranger",1,804,0.804,1
202,2,63,18,"r","English","High School","Canada","Canada",1,3,120,"Nonmatching",3,"Stranger","Stranger",1,562,0.562,1
202,2,64,18,"r","English","High School","Canada","Canada",3,3,40,"Matching",3,"Stranger","Stranger",1,549,0.549,1
202,2,65,18,"r","English","High School","Canada","Canada",2,1,40,"Nonmatching",1,"Self","Self",1,529,0.529,1
202,2,66,18,"r","English","High School","Canada","Canada",2,1,120,"Nonmatching",1,"Self","Self",1,561,0.561,1
202,2,67,18,"r","English","High School","Canada","Canada",1,3,120,"Nonmatching",3,"Stranger","Stranger",1,865,0.865,1
202,2,68,18,"r","English","High School","Canada","Canada",3,2,0,"Nonmatching",2,"Friend","Close",1,674,0.674,1
202,2,69,18,"r","English","High School","Canada","Canada",3,1,40,"Nonmatching",1,"Self","Self",1,611,0.611,1
202,2,70,18,"r","English","High School","Canada","Canada",2,2,700,"Matching",2,"Friend","Close",1,376,0.376,1
202,2,71,18,"r","English","High School","Canada","Canada",3,3,120,"Matching",3,"Stranger","Stranger",1,749,0.749,1
202,2,72,18,"r","English","High School","Canada","Canada",3,3,120,"Matching",3,"Stranger","Stranger",1,604,0.604,1
202,2,73,18,"r","English","High School","Canada","Canada",2,3,700,"Nonmatching",3,"Stranger","Stranger",1,617,0.617,1
202,2,75,18,"r","English","High School","Canada","Canada",3,1,700,"Nonmatching",1,"Self","Self",1,728,0.728,1
202,2,77,18,"r","English","High School","Canada","Canada",1,2,40,"Nonmatching",2,"Friend","Close",1,774,0.774,1
202,2,79,18,"r","English","High School","Canada","Canada",3,2,120,"Nonmatching",2,"Friend","Close",1,579,0.579,1
202,2,81,18,"r","English","High School","Canada","Canada",2,2,0,"Matching",2,"Friend","Close",1,722,0.722,1
202,2,82,18,"r","English","High School","Canada","Canada",2,3,40,"Nonmatching",3,"Stranger","Stranger",1,945,0.945,1
202,2,83,18,"r","English","High School","Canada","Canada",1,1,40,"Matching",1,"Self","Self",1,868,0.868,1
202,2,84,18,"r","English","High School","Canada","Canada",2,3,0,"Nonmatching",3,"Stranger","Stranger",1,662,0.662,1
202,2,86,18,"r","English","High School","Canada","Canada",2,2,120,"Matching",2,"Friend","Close",1,1053,1.053,1
202,2,87,18,"r","English","High School","Canada","Canada",3,2,40,"Nonmatching",2,"Friend","Close",1,708,0.708,1
202,2,88,18,"r","English","High School","Canada","Canada",3,2,40,"Nonmatching",2,"Friend","Close",1,698,0.698,1
202,2,89,18,"r","English","High School","Canada","Canada",1,1,40,"Matching",1,"Self","Self",1,967,0.967,1
202,2,92,18,"r","English","High School","Canada","Canada",3,2,700,"Nonmatching",2,"Friend","Close",1,779,0.779,1
202,2,93,18,"r","English","High School","Canada","Canada",2,3,0,"Nonmatching",3,"Stranger","Stranger",1,863,0.863,1
202,2,94,18,"r","English","High School","Canada","Canada",1,3,120,"Nonmatching",3,"Stranger","Stranger",1,1482,1.482,1
202,2,95,18,"r","English","High School","Canada","Canada",3,2,40,"Nonmatching",2,"Friend","Close",1,856,0.856,1
202,2,96,18,"r","English","High School","Canada","Canada",3,3,700,"Matching",3,"Stranger","Stranger",1,617,0.617,1
202,2,97,18,"r","English","High School","Canada","Canada",1,3,700,"Nonmatching",3,"Stranger","Stranger",1,568,0.568,1
202,2,98,18,"r","English","High School","Canada","Canada",2,2,40,"Matching",2,"Friend","Close",1,718,0.718,1
202,2,99,18,"r","English","High School","Canada","Canada",3,1,40,"Nonmatching",1,"Self","Self",1,942,0.942,1
202,2,100,18,"r","English","High School","Canada","Canada",1,2,700,"Nonmatching",2,"Friend","Close",1,661,0.661,1
202,3,2,18,"r","English","High School","Canada","Canada",3,1,120,"Nonmatching",1,"Self","Self",1,782,0.782,1
202,3,3,18,"r","English","High School","Canada","Canada",2,2,700,"Matching",2,"Friend","Close",1,516,0.516,1
202,3,4,18,"r","English","High School","Canada","Canada",2,2,0,"Matching",2,"Friend","Close",1,530,0.53,1
202,3,5,18,"r","English","High School","Canada","Canada",1,2,700,"Nonmatching",2,"Friend","Close",1,406,0.406,1
202,3,6,18,"r","English","High School","Canada","Canada",2,2,120,"Matching",2,"Friend","Close",1,613,0.613,1
202,3,7,18,"r","English","High School","Canada","Canada",1,1,120,"Matching",1,"Self","Self",1,629,0.629,1
202,3,8,18,"r","English","High School","Canada","Canada",2,1,40,"Nonmatching",1,"Self","Self",1,706,0.706,1
202,3,9,18,"r","English","High School","Canada","Canada",2,3,0,"Nonmatching",3,"Stranger","Stranger",1,1034,1.034,1
202,3,10,18,"r","English","High School","Canada","Canada",1,2,120,"Nonmatching",2,"Friend","Close",1,583,0.583,1
202,3,11,18,"r","English","High School","Canada","Canada",3,3,40,"Matching",3,"Stranger","Stranger",1,849,0.849,1
202,3,12,18,"r","English","High School","Canada","Canada",1,3,40,"Nonmatching",3,"Stranger","Stranger",1,638,0.638,1
202,3,13,18,"r","English","High School","Canada","Canada",2,2,0,"Matching",2,"Friend","Close",1,998,0.998,1
202,3,15,18,"r","English","High School","Canada","Canada",1,2,0,"Nonmatching",2,"Friend","Close",1,1076,1.076,1
202,3,16,18,"r","English","High School","Canada","Canada",2,3,40,"Nonmatching",3,"Stranger","Stranger",1,516,0.516,1
202,3,17,18,"r","English","High School","Canada","Canada",3,1,40,"Nonmatching",1,"Self","Self",1,566,0.566,1
202,3,18,18,"r","English","High School","Canada","Canada",3,1,40,"Nonmatching",1,"Self","Self",1,401,0.401,1
202,3,20,18,"r","English","High School","Canada","Canada",2,1,700,"Nonmatching",1,"Self","Self",1,479,0.479,1
202,3,21,18,"r","English","High School","Canada","Canada",2,1,0,"Nonmatching",1,"Self","Self",1,566,0.566,1
202,3,22,18,"r","English","High School","Canada","Canada",3,1,40,"Nonmatching",1,"Self","Self",1,840,0.84,1
202,3,23,18,"r","English","High School","Canada","Canada",2,3,0,"Nonmatching",3,"Stranger","Stranger",1,930,0.93,1
202,3,26,18,"r","English","High School","Canada","Canada",1,1,40,"Matching",1,"Self","Self",1,853,0.853,1
202,3,27,18,"r","English","High School","Canada","Canada",2,3,700,"Nonmatching",3,"Stranger","Stranger",1,405,0.405,1
202,3,28,18,"r","English","High School","Canada","Canada",1,2,40,"Nonmatching",2,"Friend","Close",1,1026,1.026,1
202,3,30,18,"r","English","High School","Canada","Canada",2,2,120,"Matching",2,"Friend","Close",1,1138,1.138,1
202,3,31,18,"r","English","High School","Canada","Canada",2,2,700,"Matching",2,"Friend","Close",1,521,0.521,1
202,3,32,18,"r","English","High School","Canada","Canada",2,1,700,"Nonmatching",1,"Self","Self",1,587,0.587,1
202,3,33,18,"r","English","High School","Canada","Canada",3,3,120,"Matching",3,"Stranger","Stranger",1,879,0.879,1
202,3,34,18,"r","English","High School","Canada","Canada",1,3,700,"Nonmatching",3,"Stranger","Stranger",1,421,0.421,1
202,3,35,18,"r","English","High School","Canada","Canada",3,1,40,"Nonmatching",1,"Self","Self",1,1076,1.076,1
202,3,36,18,"r","English","High School","Canada","Canada",1,1,0,"Matching",1,"Self","Self",1,678,0.678,1
202,3,37,18,"r","English","High School","Canada","Canada",3,1,700,"Nonmatching",1,"Self","Self",1,561,0.561,1
202,3,38,18,"r","English","High School","Canada","Canada",1,1,0,"Matching",1,"Self","Self",1,755,0.755,1
202,3,39,18,"r","English","High School","Canada","Canada",2,1,40,"Nonmatching",1,"Self","Self",1,881,0.881,1
202,3,40,18,"r","English","High School","Canada","Canada",3,3,700,"Matching",3,"Stranger","Stranger",1,588,0.588,1
202,3,41,18,"r","English","High School","Canada","Canada",3,1,0,"Nonmatching",1,"Self","Self",1,1172,1.172,1
202,3,42,18,"r","English","High School","Canada","Canada",3,3,40,"Matching",3,"Stranger","Stranger",1,825,0.825,1
202,3,43,18,"r","English","High School","Canada","Canada",2,3,700,"Nonmatching",3,"Stranger","Stranger",1,542,0.542,1
202,3,44,18,"r","English","High School","Canada","Canada",3,3,40,"Matching",3,"Stranger","Stranger",1,994,0.994,1
202,3,45,18,"r","English","High School","Canada","Canada",2,2,40,"Matching",2,"Friend","Close",1,1193,1.193,1
202,3,47,18,"r","English","High School","Canada","Canada",3,3,0,"Matching",3,"Stranger","Stranger",1,787,0.787,1
202,3,49,18,"r","English","High School","Canada","Canada",1,2,0,"Nonmatching",2,"Friend","Close",1,801,0.801,1
202,3,52,18,"r","English","High School","Canada","Canada",3,2,0,"Nonmatching",2,"Friend","Close",1,951,0.951,1
202,3,54,18,"r","English","High School","Canada","Canada",1,1,40,"Matching",1,"Self","Self",1,1118,1.118,1
202,3,55,18,"r","English","High School","Canada","Canada",2,3,120,"Nonmatching",3,"Stranger","Stranger",1,494,0.494,1
202,3,56,18,"r","English","High School","Canada","Canada",3,3,40,"Matching",3,"Stranger","Stranger",1,724,0.724,1
202,3,57,18,"r","English","High School","Canada","Canada",1,1,40,"Matching",1,"Self","Self",1,643,0.643,1
202,3,58,18,"r","English","High School","Canada","Canada",1,3,700,"Nonmatching",3,"Stranger","Stranger",1,495,0.495,1
202,3,60,18,"r","English","High School","Canada","Canada",2,2,40,"Matching",2,"Friend","Close",1,1108,1.108,1
202,3,62,18,"r","English","High School","Canada","Canada",1,2,40,"Nonmatching",2,"Friend","Close",1,1123,1.123,1
202,3,63,18,"r","English","High School","Canada","Canada",3,1,40,"Nonmatching",1,"Self","Self",1,840,0.84,1
202,3,64,18,"r","English","High School","Canada","Canada",2,2,120,"Matching",2,"Friend","Close",1,869,0.869,1
202,3,65,18,"r","English","High School","Canada","Canada",1,3,0,"Nonmatching",3,"Stranger","Stranger",1,715,0.715,1
202,3,66,18,"r","English","High School","Canada","Canada",3,3,40,"Matching",3,"Stranger","Stranger",1,1022,1.022,1
202,3,67,18,"r","English","High School","Canada","Canada",1,1,120,"Matching",1,"Self","Self",1,711,0.711,1
202,3,68,18,"r","English","High School","Canada","Canada",1,1,120,"Matching",1,"Self","Self",1,857,0.857,1
202,3,69,18,"r","English","High School","Canada","Canada",2,1,120,"Nonmatching",1,"Self","Self",1,712,0.712,1
202,3,71,18,"r","English","High School","Canada","Canada",2,3,40,"Nonmatching",3,"Stranger","Stranger",1,1044,1.044,1
202,3,73,18,"r","English","High School","Canada","Canada",3,3,0,"Matching",3,"Stranger","Stranger",1,875,0.875,1
202,3,74,18,"r","English","High School","Canada","Canada",3,3,40,"Matching",3,"Stranger","Stranger",1,578,0.578,1
202,3,75,18,"r","English","High School","Canada","Canada",2,2,40,"Matching",2,"Friend","Close",1,833,0.833,1
202,3,76,18,"r","English","High School","Canada","Canada",2,1,700,"Nonmatching",1,"Self","Self",1,403,0.403,1
202,3,77,18,"r","English","High School","Canada","Canada",3,3,700,"Matching",3,"Stranger","Stranger",1,827,0.827,1
202,3,78,18,"r","English","High School","Canada","Canada",1,1,0,"Matching",1,"Self","Self",1,1268,1.268,1
202,3,79,18,"r","English","High School","Canada","Canada",3,3,40,"Matching",3,"Stranger","Stranger",1,1228,1.228,1
202,3,81,18,"r","English","High School","Canada","Canada",3,2,700,"Nonmatching",2,"Friend","Close",1,457,0.457,1
202,3,82,18,"r","English","High School","Canada","Canada",2,3,0,"Nonmatching",3,"Stranger","Stranger",1,1168,1.168,1
202,3,83,18,"r","English","High School","Canada","Canada",1,3,40,"Nonmatching",3,"Stranger","Stranger",1,855,0.855,1
202,3,85,18,"r","English","High School","Canada","Canada",2,3,0,"Nonmatching",3,"Stranger","Stranger",1,957,0.957,1
202,3,86,18,"r","English","High School","Canada","Canada",3,2,120,"Nonmatching",2,"Friend","Close",1,950,0.95,1
202,3,87,18,"r","English","High School","Canada","Canada",1,2,40,"Nonmatching",2,"Friend","Close",1,623,0.623,1
202,3,89,18,"r","English","High School","Canada","Canada",1,3,0,"Nonmatching",3,"Stranger","Stranger",1,682,0.682,1
202,3,90,18,"r","English","High School","Canada","Canada",3,3,700,"Matching",3,"Stranger","Stranger",1,403,0.403,1
202,3,91,18,"r","English","High School","Canada","Canada",3,1,700,"Nonmatching",1,"Self","Self",1,511,0.511,1
202,3,92,18,"r","English","High School","Canada","Canada",2,3,700,"Nonmatching",3,"Stranger","Stranger",1,832,0.832,1
202,3,93,18,"r","English","High School","Canada","Canada",1,3,0,"Nonmatching",3,"Stranger","Stranger",1,1089,1.089,1
202,3,94,18,"r","English","High School","Canada","Canada",1,1,40,"Matching",1,"Self","Self",1,995,0.995,1
202,3,95,18,"r","English","High School","Canada","Canada",1,2,40,"Nonmatching",2,"Friend","Close",1,918,0.918,1
202,3,97,18,"r","English","High School","Canada","Canada",1,3,0,"Nonmatching",3,"Stranger","Stranger",1,924,0.924,1
202,3,98,18,"r","English","High School","Canada","Canada",1,3,0,"Nonmatching",3,"Stranger","Stranger",1,656,0.656,1
202,3,99,18,"r","English","High School","Canada","Canada",3,1,700,"Nonmatching",1,"Self","Self",1,744,0.744,1
202,3,100,18,"r","English","High School","Canada","Canada",2,3,700,"Nonmatching",3,"Stranger","Stranger",1,453,0.453,1
202,4,1,18,"r","English","High School","Canada","Canada",2,3,700,"Nonmatching",3,"Stranger","Stranger",1,596,0.596,1
202,4,2,18,"r","English","High School","Canada","Canada",2,1,0,"Nonmatching",1,"Self","Self",1,896,0.896,1
202,4,3,18,"r","English","High School","Canada","Canada",3,3,40,"Matching",3,"Stranger","Stranger",1,876,0.876,1
202,4,4,18,"r","English","High School","Canada","Canada",3,2,0,"Nonmatching",2,"Friend","Close",1,691,0.691,1
202,4,5,18,"r","English","High School","Canada","Canada",1,1,120,"Matching",1,"Self","Self",1,671,0.671,1
202,4,6,18,"r","English","High School","Canada","Canada",1,3,120,"Nonmatching",3,"Stranger","Stranger",1,586,0.586,1
202,4,8,18,"r","English","High School","Canada","Canada",2,2,40,"Matching",2,"Friend","Close",1,803,0.803,1
202,4,9,18,"r","English","High School","Canada","Canada",3,1,120,"Nonmatching",1,"Self","Self",1,703,0.703,1
202,4,11,18,"r","English","High School","Canada","Canada",2,3,40,"Nonmatching",3,"Stranger","Stranger",1,968,0.968,1
202,4,12,18,"r","English","High School","Canada","Canada",2,1,0,"Nonmatching",1,"Self","Self",1,995,0.995,1
202,4,13,18,"r","English","High School","Canada","Canada",3,3,0,"Matching",3,"Stranger","Stranger",1,1048,1.048,1
202,4,14,18,"r","English","High School","Canada","Canada",1,3,0,"Nonmatching",3,"Stranger","Stranger",1,758,0.758,1
202,4,17,18,"r","English","High School","Canada","Canada",1,1,0,"Matching",1,"Self","Self",1,597,0.597,1
202,4,18,18,"r","English","High School","Canada","Canada",2,3,0,"Nonmatching",3,"Stranger","Stranger",1,802,0.802,1
202,4,19,18,"r","English","High School","Canada","Canada",3,2,700,"Nonmatching",2,"Friend","Close",1,845,0.845,1
202,4,20,18,"r","English","High School","Canada","Canada",1,3,120,"Nonmatching",3,"Stranger","Stranger",1,1031,1.031,1
202,4,21,18,"r","English","High School","Canada","Canada",3,3,700,"Matching",3,"Stranger","Stranger",1,384,0.384,1
202,4,22,18,"r","English","High School","Canada","Canada",1,3,120,"Nonmatching",3,"Stranger","Stranger",1,671,0.671,1
202,4,23,18,"r","English","High School","Canada","Canada",1,1,0,"Matching",1,"Self","Self",1,965,0.965,1
202,4,24,18,"r","English","High School","Canada","Canada",1,1,120,"Matching",1,"Self","Self",1,562,0.562,1
202,4,25,18,"r","English","High School","Canada","Canada",1,1,40,"Matching",1,"Self","Self",1,447,0.447,1
202,4,26,18,"r","English","High School","Canada","Canada",1,2,0,"Nonmatching",2,"Friend","Close",1,967,0.967,1
202,4,27,18,"r","English","High School","Canada","Canada",2,2,120,"Matching",2,"Friend","Close",1,390,0.39,1
202,4,28,18,"r","English","High School","Canada","Canada",3,1,700,"Nonmatching",1,"Self","Self",1,836,0.836,1
202,4,29,18,"r","English","High School","Canada","Canada",2,1,120,"Nonmatching",1,"Self","Self",1,530,0.53,1
202,4,30,18,"r","English","High School","Canada","Canada",1,3,700,"Nonmatching",3,"Stranger","Stranger",1,576,0.576,1
202,4,31,18,"r","English","High School","Canada","Canada",3,2,120,"Nonmatching",2,"Friend","Close",1,680,0.68,1
202,4,32,18,"r","English","High School","Canada","Canada",3,2,120,"Nonmatching",2,"Friend","Close",1,556,0.556,1
202,4,33,18,"r","English","High School","Canada","Canada",3,3,120,"Matching",3,"Stranger","Stranger",1,776,0.776,1
202,4,34,18,"r","English","High School","Canada","Canada",2,3,0,"Nonmatching",3,"Stranger","Stranger",1,934,0.934,1
202,4,35,18,"r","English","High School","Canada","Canada",1,3,700,"Nonmatching",3,"Stranger","Stranger",1,419,0.419,1
202,4,36,18,"r","English","High School","Canada","Canada",1,3,40,"Nonmatching",3,"Stranger","Stranger",1,638,0.638,1
202,4,37,18,"r","English","High School","Canada","Canada",1,3,40,"Nonmatching",3,"Stranger","Stranger",1,714,0.714,1
202,4,38,18,"r","English","High School","Canada","Canada",3,2,120,"Nonmatching",2,"Friend","Close",1,526,0.526,1
202,4,39,18,"r","English","High School","Canada","Canada",1,1,700,"Matching",1,"Self","Self",1,482,0.482,1
202,4,40,18,"r","English","High School","Canada","Canada",1,3,120,"Nonmatching",3,"Stranger","Stranger",1,591,0.591,1
202,4,42,18,"r","English","High School","Canada","Canada",3,3,120,"Matching",3,"Stranger","Stranger",1,519,0.519,1
202,4,43,18,"r","English","High School","Canada","Canada",3,1,120,"Nonmatching",1,"Self","Self",1,579,0.579,1
202,4,44,18,"r","English","High School","Canada","Canada",3,3,120,"Matching",3,"Stranger","Stranger",1,385,0.385,1
202,4,45,18,"r","English","High School","Canada","Canada",2,2,700,"Matching",2,"Friend","Close",1,487,0.487,1
202,4,46,18,"r","English","High School","Canada","Canada",2,2,40,"Matching",2,"Friend","Close",1,531,0.531,1
202,4,47,18,"r","English","High School","Canada","Canada",2,1,40,"Nonmatching",1,"Self","Self",1,529,0.529,1
202,4,48,18,"r","English","High School","Canada","Canada",2,3,120,"Nonmatching",3,"Stranger","Stranger",1,969,0.969,1
202,4,49,18,"r","English","High School","Canada","Canada",2,3,0,"Nonmatching",3,"Stranger","Stranger",1,598,0.598,1
202,4,50,18,"r","English","High School","Canada","Canada",1,1,40,"Matching",1,"Self","Self",1,789,0.789,1
202,4,51,18,"r","English","High School","Canada","Canada",1,2,120,"Nonmatching",2,"Friend","Close",1,210,0.21,1
202,4,52,18,"r","English","High School","Canada","Canada",1,1,700,"Matching",1,"Self","Self",1,371,0.371,1
202,4,54,18,"r","English","High School","Canada","Canada",2,1,700,"Nonmatching",1,"Self","Self",1,413,0.413,1
202,4,55,18,"r","English","High School","Canada","Canada",1,3,700,"Nonmatching",3,"Stranger","Stranger",1,926,0.926,1
202,4,56,18,"r","English","High School","Canada","Canada",1,1,120,"Matching",1,"Self","Self",1,721,0.721,1
202,4,58,18,"r","English","High School","Canada","Canada",1,3,700,"Nonmatching",3,"Stranger","Stranger",1,738,0.738,1
202,4,59,18,"r","English","High School","Canada","Canada",2,2,0,"Matching",2,"Friend","Close",1,681,0.681,1
202,4,60,18,"r","English","High School","Canada","Canada",2,3,120,"Nonmatching",3,"Stranger","Stranger",1,619,0.619,1
202,4,63,18,"r","English","High School","Canada","Canada",1,3,0,"Nonmatching",3,"Stranger","Stranger",1,686,0.686,1
202,4,64,18,"r","English","High School","Canada","Canada",2,2,700,"Matching",2,"Friend","Close",1,1047,1.047,1
202,4,65,18,"r","English","High School","Canada","Canada",2,2,120,"Matching",2,"Friend","Close",1,616,0.616,1
202,4,66,18,"r","English","High School","Canada","Canada",2,1,40,"Nonmatching",1,"Self","Self",1,542,0.542,1
202,4,68,18,"r","English","High School","Canada","Canada",1,1,40,"Matching",1,"Self","Self",1,434,0.434,1
202,4,69,18,"r","English","High School","Canada","Canada",1,3,700,"Nonmatching",3,"Stranger","Stranger",1,575,0.575,1
202,4,70,18,"r","English","High School","Canada","Canada",3,2,0,"Nonmatching",2,"Friend","Close",1,870,0.87,1
202,4,71,18,"r","English","High School","Canada","Canada",2,3,700,"Nonmatching",3,"Stranger","Stranger",1,874,0.874,1
202,4,72,18,"r","English","High School","Canada","Canada",1,3,0,"Nonmatching",3,"Stranger","Stranger",1,706,0.706,1
202,4,73,18,"r","English","High School","Canada","Canada",1,2,120,"Nonmatching",2,"Friend","Close",1,1020,1.02,1
202,4,76,18,"r","English","High School","Canada","Canada",1,2,120,"Nonmatching",2,"Friend","Close",1,1158,1.158,1
202,4,77,18,"r","English","High School","Canada","Canada",2,3,0,"Nonmatching",3,"Stranger","Stranger",1,1003,1.003,1
202,4,78,18,"r","English","High School","Canada","Canada",1,1,40,"Matching",1,"Self","Self",1,452,0.452,1
202,4,82,18,"r","English","High School","Canada","Canada",2,1,40,"Nonmatching",1,"Self","Self",1,669,0.669,1
202,4,83,18,"r","English","High School","Canada","Canada",3,1,0,"Nonmatching",1,"Self","Self",1,791,0.791,1
202,4,84,18,"r","English","High School","Canada","Canada",1,1,40,"Matching",1,"Self","Self",1,913,0.913,1
202,4,85,18,"r","English","High School","Canada","Canada",1,1,0,"Matching",1,"Self","Self",1,733,0.733,1
202,4,86,18,"r","English","High School","Canada","Canada",2,3,120,"Nonmatching",3,"Stranger","Stranger",1,796,0.796,1
202,4,87,18,"r","English","High School","Canada","Canada",3,2,40,"Nonmatching",2,"Friend","Close",1,1008,1.008,1
202,4,88,18,"r","English","High School","Canada","Canada",1,2,0,"Nonmatching",2,"Friend","Close",1,678,0.678,1
202,4,89,18,"r","English","High School","Canada","Canada",3,1,120,"Nonmatching",1,"Self","Self",1,559,0.559,1
202,4,90,18,"r","English","High School","Canada","Canada",3,3,0,"Matching",3,"Stranger","Stranger",1,937,0.937,1
202,4,92,18,"r","English","High School","Canada","Canada",2,1,120,"Nonmatching",1,"Self","Self",1,668,0.668,1
202,4,93,18,"r","English","High School","Canada","Canada",2,2,0,"Matching",2,"Friend","Close",1,1008,1.008,1
202,4,94,18,"r","English","High School","Canada","Canada",2,2,700,"Matching",2,"Friend","Close",1,507,0.507,1
202,4,95,18,"r","English","High School","Canada","Canada",2,3,0,"Nonmatching",3,"Stranger","Stranger",1,704,0.704,1
202,4,96,18,"r","English","High School","Canada","Canada",2,3,40,"Nonmatching",3,"Stranger","Stranger",1,811,0.811,1
202,4,97,18,"r","English","High School","Canada","Canada",2,2,40,"Matching",2,"Friend","Close",1,502,0.502,1
202,4,99,18,"r","English","High School","Canada","Canada",1,2,0,"Nonmatching",2,"Friend","Close",1,1048,1.048,1
203,1,2,17,"r","English/French","High School","Canada","Canada",3,3,120,"Matching",3,"Stranger","Stranger",1,520,0.52,1
203,1,5,17,"r","English/French","High School","Canada","Canada",3,2,120,"Nonmatching",2,"Friend","Close",1,1473,1.473,1
203,1,6,17,"r","English/French","High School","Canada","Canada",2,3,700,"Nonmatching",3,"Stranger","Stranger",1,1419,1.419,1
203,1,8,17,"r","English/French","High School","Canada","Canada",2,1,700,"Nonmatching",1,"Self","Self",1,1237,1.237,1
203,1,9,17,"r","English/French","High School","Canada","Canada",3,3,700,"Matching",3,"Stranger","Stranger",1,941,0.941,1
203,1,10,17,"r","English/French","High School","Canada","Canada",2,1,40,"Nonmatching",1,"Self","Self",1,1367,1.367,1
203,1,12,17,"r","English/French","High School","Canada","Canada",2,3,700,"Nonmatching",3,"Stranger","Stranger",1,1396,1.396,1
203,1,14,17,"r","English/French","High School","Canada","Canada",2,1,40,"Nonmatching",1,"Self","Self",1,884,0.884,1
203,1,16,17,"r","English/French","High School","Canada","Canada",3,2,700,"Nonmatching",2,"Friend","Close",1,342,0.342,1
203,1,17,17,"r","English/French","High School","Canada","Canada",2,3,0,"Nonmatching",3,"Stranger","Stranger",1,1472,1.472,1
203,1,19,17,"r","English/French","High School","Canada","Canada",3,2,0,"Nonmatching",2,"Friend","Close",1,1354,1.354,1
203,1,21,17,"r","English/French","High School","Canada","Canada",3,2,120,"Nonmatching",2,"Friend","Close",1,439,0.439,1
203,1,22,17,"r","English/French","High School","Canada","Canada",3,2,700,"Nonmatching",2,"Friend","Close",1,459,0.459,1
203,1,29,17,"r","English/French","High School","Canada","Canada",2,3,0,"Nonmatching",3,"Stranger","Stranger",1,800,0.8,1
203,1,30,17,"r","English/French","High School","Canada","Canada",2,3,40,"Nonmatching",3,"Stranger","Stranger",1,450,0.45,1
203,1,31,17,"r","English/French","High School","Canada","Canada",2,1,700,"Nonmatching",1,"Self","Self",1,855,0.855,1
203,1,32,17,"r","English/French","High School","Canada","Canada",2,2,0,"Matching",2,"Friend","Close",1,1209,1.209,1
203,1,34,17,"r","English/French","High School","Canada","Canada",3,1,120,"Nonmatching",1,"Self","Self",1,754,0.754,1
203,1,35,17,"r","English/French","High School","Canada","Canada",2,2,40,"Matching",2,"Friend","Close",1,929,0.929,1
203,1,36,17,"r","English/French","High School","Canada","Canada",2,1,120,"Nonmatching",1,"Self","Self",1,532,0.532,1
203,1,37,17,"r","English/French","High School","Canada","Canada",2,1,40,"Nonmatching",1,"Self","Self",1,612,0.612,1
203,1,38,17,"r","English/French","High School","Canada","Canada",3,2,700,"Nonmatching",2,"Friend","Close",1,1088,1.088,1
203,1,40,17,"r","English/French","High School","Canada","Canada",1,3,120,"Nonmatching",3,"Stranger","Stranger",1,683,0.683,1
203,1,42,17,"r","English/French","High School","Canada","Canada",2,1,40,"Nonmatching",1,"Self","Self",1,813,0.813,1
203,1,43,17,"r","English/French","High School","Canada","Canada",2,2,700,"Matching",2,"Friend","Close",1,1177,1.177,1
203,1,45,17,"r","English/French","High School","Canada","Canada",1,3,40,"Nonmatching",3,"Stranger","Stranger",1,1055,1.055,1
203,1,46,17,"r","English/French","High School","Canada","Canada",2,2,40,"Matching",2,"Friend","Close",1,917,0.917,1
203,1,47,17,"r","English/French","High School","Canada","Canada",2,3,120,"Nonmatching",3,"Stranger","Stranger",1,781,0.781,1
203,1,48,17,"r","English/French","High School","Canada","Canada",2,3,0,"Nonmatching",3,"Stranger","Stranger",1,778,0.778,1
203,1,51,17,"r","English/French","High School","Canada","Canada",2,2,0,"Matching",2,"Friend","Close",1,976,0.976,1
203,1,52,17,"r","English/French","High School","Canada","Canada",1,2,0,"Nonmatching",2,"Friend","Close",1,1195,1.195,1
203,1,54,17,"r","English/French","High School","Canada","Canada",2,2,40,"Matching",2,"Friend","Close",1,1352,1.352,1
203,1,55,17,"r","English/French","High School","Canada","Canada",2,2,40,"Matching",2,"Friend","Close",1,606,0.606,1
203,1,56,17,"r","English/French","High School","Canada","Canada",2,1,120,"Nonmatching",1,"Self","Self",1,1155,1.155,1
203,1,58,17,"r","English/French","High School","Canada","Canada",1,3,40,"Nonmatching",3,"Stranger","Stranger",1,846,0.846,1
203,1,59,17,"r","English/French","High School","Canada","Canada",3,1,0,"Nonmatching",1,"Self","Self",1,852,0.852,1
203,1,60,17,"r","English/French","High School","Canada","Canada",1,3,40,"Nonmatching",3,"Stranger","Stranger",1,1097,1.097,1
203,1,61,17,"r","English/French","High School","Canada","Canada",1,3,700,"Nonmatching",3,"Stranger","Stranger",1,918,0.918,1
203,1,65,17,"r","English/French","High School","Canada","Canada",2,1,0,"Nonmatching",1,"Self","Self",1,997,0.997,1
203,1,66,17,"r","English/French","High School","Canada","Canada",1,3,40,"Nonmatching",3,"Stranger","Stranger",1,785,0.785,1
203,1,68,17,"r","English/French","High School","Canada","Canada",3,2,0,"Nonmatching",2,"Friend","Close",1,1189,1.189,1
203,1,75,17,"r","English/French","High School","Canada","Canada",2,2,120,"Matching",2,"Friend","Close",1,1084,1.084,1
203,1,77,17,"r","English/French","High School","Canada","Canada",1,2,120,"Nonmatching",2,"Friend","Close",1,1147,1.147,1
203,1,78,17,"r","English/French","High School","Canada","Canada",2,1,40,"Nonmatching",1,"Self","Self",1,821,0.821,1
203,1,81,17,"r","English/French","High School","Canada","Canada",2,2,0,"Matching",2,"Friend","Close",1,968,0.968,1
203,1,82,17,"r","English/French","High School","Canada","Canada",1,2,120,"Nonmatching",2,"Friend","Close",1,1131,1.131,1
203,1,83,17,"r","English/French","High School","Canada","Canada",1,2,700,"Nonmatching",2,"Friend","Close",1,872,0.872,1
203,1,84,17,"r","English/French","High School","Canada","Canada",1,2,120,"Nonmatching",2,"Friend","Close",1,627,0.627,1
203,1,86,17,"r","English/French","High School","Canada","Canada",1,2,40,"Nonmatching",2,"Friend","Close",1,1045,1.045,1
203,1,89,17,"r","English/French","High School","Canada","Canada",3,2,0,"Nonmatching",2,"Friend","Close",1,899,0.899,1
203,1,90,17,"r","English/French","High School","Canada","Canada",2,3,120,"Nonmatching",3,"Stranger","Stranger",1,861,0.861,1
203,1,91,17,"r","English/French","High School","Canada","Canada",3,2,700,"Nonmatching",2,"Friend","Close",1,1138,1.138,1
203,1,92,17,"r","English/French","High School","Canada","Canada",2,1,40,"Nonmatching",1,"Self","Self",1,1081,1.081,1
203,1,93,17,"r","English/French","High School","Canada","Canada",3,2,40,"Nonmatching",2,"Friend","Close",1,1146,1.146,1
203,1,97,17,"r","English/French","High School","Canada","Canada",2,2,0,"Matching",2,"Friend","Close",1,1224,1.224,1
203,1,98,17,"r","English/French","High School","Canada","Canada",1,3,120,"Nonmatching",3,"Stranger","Stranger",1,820,0.82,1
203,2,2,17,"r","English/French","High School","Canada","Canada",3,2,0,"Nonmatching",2,"Friend","Close",1,815,0.815,1
203,2,3,17,"r","English/French","High School","Canada","Canada",3,1,0,"Nonmatching",1,"Self","Self",1,813,0.813,1
203,2,4,17,"r","English/French","High School","Canada","Canada",3,1,0,"Nonmatching",1,"Self","Self",1,943,0.943,1
203,2,5,17,"r","English/French","High School","Canada","Canada",2,3,0,"Nonmatching",3,"Stranger","Stranger",1,1383,1.383,1
203,2,6,17,"r","English/French","High School","Canada","Canada",1,3,700,"Nonmatching",3,"Stranger","Stranger",1,618,0.618,1
203,2,7,17,"r","English/French","High School","Canada","Canada",2,3,700,"Nonmatching",3,"Stranger","Stranger",1,1016,1.016,1
203,2,8,17,"r","English/French","High School","Canada","Canada",2,3,40,"Nonmatching",3,"Stranger","Stranger",1,571,0.571,1
203,2,9,17,"r","English/French","High School","Canada","Canada",2,1,120,"Nonmatching",1,"Self","Self",1,799,0.799,1
203,2,10,17,"r","English/French","High School","Canada","Canada",1,2,0,"Nonmatching",2,"Friend","Close",1,1287,1.287,1
203,2,11,17,"r","English/French","High School","Canada","Canada",1,2,700,"Nonmatching",2,"Friend","Close",1,753,0.753,1
203,2,12,17,"r","English/French","High School","Canada","Canada",1,2,120,"Nonmatching",2,"Friend","Close",1,564,0.564,1
203,2,13,17,"r","English/French","High School","Canada","Canada",1,2,0,"Nonmatching",2,"Friend","Close",1,833,0.833,1
203,2,14,17,"r","English/French","High School","Canada","Canada",1,3,40,"Nonmatching",3,"Stranger","Stranger",1,645,0.645,1
203,2,15,17,"r","English/French","High School","Canada","Canada",2,3,40,"Nonmatching",3,"Stranger","Stranger",1,617,0.617,1
203,2,16,17,"r","English/French","High School","Canada","Canada",1,1,120,"Matching",1,"Self","Self",1,726,0.726,1
203,2,17,17,"r","English/French","High School","Canada","Canada",3,2,0,"Nonmatching",2,"Friend","Close",1,1424,1.424,1
203,2,19,17,"r","English/French","High School","Canada","Canada",2,2,120,"Matching",2,"Friend","Close",1,720,0.72,1
203,2,20,17,"r","English/French","High School","Canada","Canada",2,1,0,"Nonmatching",1,"Self","Self",1,730,0.73,1
203,2,22,17,"r","English/French","High School","Canada","Canada",3,3,120,"Matching",3,"Stranger","Stranger",1,875,0.875,1
203,2,23,17,"r","English/French","High School","Canada","Canada",2,2,40,"Matching",2,"Friend","Close",1,1380,1.38,1
203,2,25,17,"r","English/French","High School","Canada","Canada",2,1,700,"Nonmatching",1,"Self","Self",1,1289,1.289,1
203,2,26,17,"r","English/French","High School","Canada","Canada",2,1,40,"Nonmatching",1,"Self","Self",1,983,0.983,1
203,2,28,17,"r","English/French","High School","Canada","Canada",3,2,700,"Nonmatching",2,"Friend","Close",1,686,0.686,1
203,2,29,17,"r","English/French","High School","Canada","Canada",3,3,40,"Matching",3,"Stranger","Stranger",1,498,0.498,1
203,2,30,17,"r","English/French","High School","Canada","Canada",3,2,700,"Nonmatching",2,"Friend","Close",1,570,0.57,1
203,2,31,17,"r","English/French","High School","Canada","Canada",1,1,700,"Matching",1,"Self","Self",1,377,0.377,1
203,2,33,17,"r","English/French","High School","Canada","Canada",3,3,0,"Matching",3,"Stranger","Stranger",1,1089,1.089,1
203,2,34,17,"r","English/French","High School","Canada","Canada",2,3,120,"Nonmatching",3,"Stranger","Stranger",1,826,0.826,1
203,2,36,17,"r","English/French","High School","Canada","Canada",1,2,40,"Nonmatching",2,"Friend","Close",1,1511,1.511,1
203,2,37,17,"r","English/French","High School","Canada","Canada",1,3,120,"Nonmatching",3,"Stranger","Stranger",1,968,0.968,1
203,2,38,17,"r","English/French","High School","Canada","Canada",3,3,120,"Matching",3,"Stranger","Stranger",1,1002,1.002,1
203,2,39,17,"r","English/French","High School","Canada","Canada",3,3,700,"Matching",3,"Stranger","Stranger",1,1150,1.15,1
203,2,40,17,"r","English/French","High School","Canada","Canada",3,2,0,"Nonmatching",2,"Friend","Close",1,1068,1.068,1
203,2,41,17,"r","English/French","High School","Canada","Canada",3,2,700,"Nonmatching",2,"Friend","Close",1,756,0.756,1
203,2,43,17,"r","English/French","High School","Canada","Canada",3,1,40,"Nonmatching",1,"Self","Self",1,999,0.999,1
203,2,45,17,"r","English/French","High School","Canada","Canada",3,2,120,"Nonmatching",2,"Friend","Close",1,1204,1.204,1
203,2,46,17,"r","English/French","High School","Canada","Canada",2,2,40,"Matching",2,"Friend","Close",1,1004,1.004,1
203,2,47,17,"r","English/French","High School","Canada","Canada",3,2,40,"Nonmatching",2,"Friend","Close",1,871,0.871,1
203,2,48,17,"r","English/French","High School","Canada","Canada",3,1,700,"Nonmatching",1,"Self","Self",1,790,0.79,1
203,2,50,17,"r","English/French","High School","Canada","Canada",2,1,0,"Nonmatching",1,"Self","Self",1,867,0.867,1
203,2,51,17,"r","English/French","High School","Canada","Canada",1,1,700,"Matching",1,"Self","Self",1,999,0.999,1
203,2,54,17,"r","English/French","High School","Canada","Canada",2,2,0,"Matching",2,"Friend","Close",1,916,0.916,1
203,2,55,17,"r","English/French","High School","Canada","Canada",2,2,700,"Matching",2,"Friend","Close",1,589,0.589,1
203,2,56,17,"r","English/French","High School","Canada","Canada",3,1,700,"Nonmatching",1,"Self","Self",1,594,0.594,1
203,2,57,17,"r","English/French","High School","Canada","Canada",3,1,700,"Nonmatching",1,"Self","Self",1,767,0.767,1
203,2,58,17,"r","English/French","High School","Canada","Canada",3,1,40,"Nonmatching",1,"Self","Self",1,762,0.762,1
203,2,59,17,"r","English/French","High School","Canada","Canada",2,3,40,"Nonmatching",3,"Stranger","Stranger",1,1379,1.379,1
203,2,61,17,"r","English/French","High School","Canada","Canada",3,1,120,"Nonmatching",1,"Self","Self",1,1328,1.328,1
203,2,62,17,"r","English/French","High School","Canada","Canada",2,3,40,"Nonmatching",3,"Stranger","Stranger",1,1301,1.301,1
203,2,63,17,"r","English/French","High School","Canada","Canada",2,1,0,"Nonmatching",1,"Self","Self",1,1123,1.123,1
203,2,64,17,"r","English/French","High School","Canada","Canada",2,3,700,"Nonmatching",3,"Stranger","Stranger",1,1200,1.2,1
203,2,65,17,"r","English/French","High School","Canada","Canada",3,2,120,"Nonmatching",2,"Friend","Close",1,1143,1.143,1
203,2,67,17,"r","English/French","High School","Canada","Canada",3,3,0,"Matching",3,"Stranger","Stranger",1,1153,1.153,1
203,2,68,17,"r","English/French","High School","Canada","Canada",2,3,700,"Nonmatching",3,"Stranger","Stranger",1,1442,1.442,1
203,2,69,17,"r","English/French","High School","Canada","Canada",1,1,120,"Matching",1,"Self","Self",1,757,0.757,1
203,2,70,17,"r","English/French","High School","Canada","Canada",1,3,0,"Nonmatching",3,"Stranger","Stranger",1,1068,1.068,1
203,2,71,17,"r","English/French","High School","Canada","Canada",1,1,40,"Matching",1,"Self","Self",1,631,0.631,1
203,2,72,17,"r","English/French","High School","Canada","Canada",2,1,40,"Nonmatching",1,"Self","Self",1,668,0.668,1
203,2,73,17,"r","English/French","High School","Canada","Canada",2,2,700,"Matching",2,"Friend","Close",1,1017,1.017,1
203,2,74,17,"r","English/French","High School","Canada","Canada",2,1,0,"Nonmatching",1,"Self","Self",1,1086,1.086,1
203,2,75,17,"r","English/French","High School","Canada","Canada",2,3,40,"Nonmatching",3,"Stranger","Stranger",1,1324,1.324,1
203,2,76,17,"r","English/French","High School","Canada","Canada",1,3,40,"Nonmatching",3,"Stranger","Stranger",1,689,0.689,1
203,2,77,17,"r","English/French","High School","Canada","Canada",2,3,0,"Nonmatching",3,"Stranger","Stranger",1,1126,1.126,1
203,2,78,17,"r","English/French","High School","Canada","Canada",3,2,40,"Nonmatching",2,"Friend","Close",1,1137,1.137,1
203,2,79,17,"r","English/French","High School","Canada","Canada",3,3,40,"Matching",3,"Stranger","Stranger",1,1328,1.328,1
203,2,80,17,"r","English/French","High School","Canada","Canada",3,1,120,"Nonmatching",1,"Self","Self",1,648,0.648,1
203,2,81,17,"r","English/French","High School","Canada","Canada",1,2,0,"Nonmatching",2,"Friend","Close",1,938,0.938,1
203,2,82,17,"r","English/French","High School","Canada","Canada",1,1,0,"Matching",1,"Self","Self",1,625,0.625,1
203,2,83,17,"r","English/French","High School","Canada","Canada",3,2,120,"Nonmatching",2,"Friend","Close",1,1199,1.199,1
203,2,84,17,"r","English/French","High School","Canada","Canada",3,2,120,"Nonmatching",2,"Friend","Close",1,814,0.814,1
203,2,85,17,"r","English/French","High School","Canada","Canada",3,3,40,"Matching",3,"Stranger","Stranger",1,789,0.789,1
203,2,86,17,"r","English/French","High School","Canada","Canada",2,1,120,"Nonmatching",1,"Self","Self",1,775,0.775,1
203,2,87,17,"r","English/French","High School","Canada","Canada",2,2,120,"Matching",2,"Friend","Close",1,600,0.6,1
203,2,88,17,"r","English/French","High School","Canada","Canada",3,2,40,"Nonmatching",2,"Friend","Close",1,663,0.663,1
203,2,90,17,"r","English/French","High School","Canada","Canada",1,3,40,"Nonmatching",3,"Stranger","Stranger",1,1021,1.021,1
203,2,91,17,"r","English/French","High School","Canada","Canada",1,1,700,"Matching",1,"Self","Self",1,904,0.904,1
203,2,92,17,"r","English/French","High School","Canada","Canada",3,1,120,"Nonmatching",1,"Self","Self",1,624,0.624,1
203,2,93,17,"r","English/French","High School","Canada","Canada",2,1,700,"Nonmatching",1,"Self","Self",1,539,0.539,1
203,2,94,17,"r","English/French","High School","Canada","Canada",2,3,0,"Nonmatching",3,"Stranger","Stranger",1,1554,1.554,1
203,2,95,17,"r","English/French","High School","Canada","Canada",1,1,40,"Matching",1,"Self","Self",1,614,0.614,1
203,2,96,17,"r","English/French","High School","Canada","Canada",1,1,0,"Matching",1,"Self","Self",1,593,0.593,1
203,2,97,17,"r","English/French","High School","Canada","Canada",1,1,700,"Matching",1,"Self","Self",1,336,0.336,1
203,2,98,17,"r","English/French","High School","Canada","Canada",2,1,0,"Nonmatching",1,"Self","Self",1,811,0.811,1
203,2,99,17,"r","English/French","High School","Canada","Canada",1,2,0,"Nonmatching",2,"Friend","Close",1,1056,1.056,1
203,2,100,17,"r","English/French","High School","Canada","Canada",2,2,120,"Matching",2,"Friend","Close",1,1140,1.14,1
203,3,2,17,"r","English/French","High School","Canada","Canada",2,1,700,"Nonmatching",1,"Self","Self",1,858,0.858,1
203,3,3,17,"r","English/French","High School","Canada","Canada",1,2,120,"Nonmatching",2,"Friend","Close",1,906,0.906,1
203,3,4,17,"r","English/French","High School","Canada","Canada",2,2,700,"Matching",2,"Friend","Close",1,350,0.35,1
203,3,5,17,"r","English/French","High School","Canada","Canada",1,3,0,"Nonmatching",3,"Stranger","Stranger",1,1099,1.099,1
203,3,6,17,"r","English/French","High School","Canada","Canada",2,2,700,"Matching",2,"Friend","Close",1,574,0.574,1
203,3,7,17,"r","English/French","High School","Canada","Canada",1,1,120,"Matching",1,"Self","Self",1,981,0.981,1
203,3,8,17,"r","English/French","High School","Canada","Canada",2,2,40,"Matching",2,"Friend","Close",1,634,0.634,1
203,3,9,17,"r","English/French","High School","Canada","Canada",2,2,40,"Matching",2,"Friend","Close",1,823,0.823,1
203,3,10,17,"r","English/French","High School","Canada","Canada",1,1,700,"Matching",1,"Self","Self",1,867,0.867,1
203,3,11,17,"r","English/French","High School","Canada","Canada",2,1,40,"Nonmatching",1,"Self","Self",1,785,0.785,1
203,3,12,17,"r","English/French","High School","Canada","Canada",3,3,40,"Matching",3,"Stranger","Stranger",1,709,0.709,1
203,3,13,17,"r","English/French","High School","Canada","Canada",3,3,120,"Matching",3,"Stranger","Stranger",1,505,0.505,1
203,3,14,17,"r","English/French","High School","Canada","Canada",3,2,120,"Nonmatching",2,"Friend","Close",1,683,0.683,1
203,3,15,17,"r","English/French","High School","Canada","Canada",3,1,0,"Nonmatching",1,"Self","Self",1,1072,1.072,1
203,3,16,17,"r","English/French","High School","Canada","Canada",1,1,0,"Matching",1,"Self","Self",1,1026,1.026,1
203,3,18,17,"r","English/French","High School","Canada","Canada",2,2,700,"Matching",2,"Friend","Close",1,401,0.401,1
203,3,19,17,"r","English/French","High School","Canada","Canada",2,1,0,"Nonmatching",1,"Self","Self",1,703,0.703,1
203,3,20,17,"r","English/French","High School","Canada","Canada",2,2,0,"Matching",2,"Friend","Close",1,677,0.677,1
203,3,21,17,"r","English/French","High School","Canada","Canada",1,1,700,"Matching",1,"Self","Self",1,630,0.63,1
203,3,22,17,"r","English/French","High School","Canada","Canada",3,3,700,"Matching",3,"Stranger","Stranger",1,395,0.395,1
203,3,23,17,"r","English/French","High School","Canada","Canada",2,2,0,"Matching",2,"Friend","Close",1,1121,1.121,1
203,3,24,17,"r","English/French","High School","Canada","Canada",2,2,120,"Matching",2,"Friend","Close",1,526,0.526,1
203,3,25,17,"r","English/French","High School","Canada","Canada",2,1,700,"Nonmatching",1,"Self","Self",1,635,0.635,1
203,3,26,17,"r","English/French","High School","Canada","Canada",3,1,40,"Nonmatching",1,"Self","Self",1,1114,1.114,1
203,3,27,17,"r","English/French","High School","Canada","Canada",1,1,0,"Matching",1,"Self","Self",1,904,0.904,1
203,3,28,17,"r","English/French","High School","Canada","Canada",1,3,40,"Nonmatching",3,"Stranger","Stranger",1,1077,1.077,1
203,3,29,17,"r","English/French","High School","Canada","Canada",3,3,120,"Matching",3,"Stranger","Stranger",1,723,0.723,1
203,3,30,17,"r","English/French","High School","Canada","Canada",3,1,120,"Nonmatching",1,"Self","Self",1,1093,1.093,1
203,3,31,17,"r","English/French","High School","Canada","Canada",1,2,120,"Nonmatching",2,"Friend","Close",1,1233,1.233,1
203,3,33,17,"r","English/French","High School","Canada","Canada",3,1,120,"Nonmatching",1,"Self","Self",1,699,0.699,1
203,3,34,17,"r","English/French","High School","Canada","Canada",1,2,700,"Nonmatching",2,"Friend","Close",1,604,0.604,1
