ExperimentName,Subject,Session,Age,Group,Handedness,Sex,Label,Identity,Shape,Target.ACC,Target.RESP,Target.RT
breaking,10,1,19,2,right,male,self,Self,S.bmp,0,,0
breaking,10,1,19,2,right,male,stranger,Friend,C.bmp,0,,0
breaking,10,1,19,2,right,male,friend,Friend,C.bmp,0,,0
breaking,10,1,19,2,right,male,self,stranger,T.bmp,1,m,315
breaking,10,1,19,2,right,male,stranger,Self,S.bmp,0,m,305
breaking,10,1,19,2,right,male,stranger,stranger,T.bmp,1,m,1095
breaking,10,1,19,2,right,male,friend,stranger,T.bmp,1,n,421
breaking,10,1,19,2,right,male,self,Friend,C.bmp,1,n,501
breaking,10,1,19,2,right,male,friend,Self,S.bmp,1,m,837
breaking,10,1,19,2,right,male,stranger,Self,S.bmp,0,m,625
breaking,10,1,19,2,right,male,stranger,stranger,T.bmp,1,m,801
breaking,10,1,19,2,right,male,friend,stranger,T.bmp,0,m,921
breaking,10,1,19,2,right,male,stranger,stranger,T.bmp,0,n,945
breaking,10,1,19,2,right,male,stranger,Friend,C.bmp,0,n,295
breaking,10,1,19,2,right,male,friend,Friend,C.bmp,1,m,925
breaking,10,1,19,2,right,male,self,stranger,T.bmp,1,m,867
breaking,10,1,19,2,right,male,friend,Self,S.bmp,1,m,633
breaking,10,1,19,2,right,male,friend,stranger,T.bmp,0,m,511
breaking,10,1,19,2,right,male,friend,Self,S.bmp,1,m,477
breaking,10,1,19,2,right,male,self,Self,S.bmp,1,m,579
breaking,10,1,19,2,right,male,stranger,stranger,T.bmp,1,m,921
breaking,10,1,19,2,right,male,stranger,Friend,C.bmp,1,m,743
breaking,10,1,19,2,right,male,friend,stranger,T.bmp,0,m,940
breaking,10,1,19,2,right,male,self,Friend,C.bmp,1,n,722
breaking,10,1,19,2,right,male,self,Self,S.bmp,0,n,792
breaking,10,1,19,2,right,male,friend,Self,S.bmp,1,m,1062
breaking,10,1,19,2,right,male,friend,Friend,C.bmp,1,m,756
breaking,10,1,19,2,right,male,self,Friend,C.bmp,1,n,482
breaking,10,1,19,2,right,male,self,Friend,C.bmp,1,n,456
breaking,10,1,19,2,right,male,stranger,Friend,C.bmp,1,m,438
breaking,10,1,19,2,right,male,self,stranger,T.bmp,1,m,820
breaking,10,1,19,2,right,male,self,stranger,T.bmp,1,m,594
breaking,10,1,19,2,right,male,stranger,Self,S.bmp,0,m,673
breaking,10,1,19,2,right,male,stranger,Self,S.bmp,1,n,791
breaking,10,1,19,2,right,male,friend,Friend,C.bmp,1,m,741
breaking,10,1,19,2,right,male,self,Self,S.bmp,1,m,891
breaking,10,1,19,2,right,male,friend,stranger,T.bmp,1,n,993
breaking,10,1,19,2,right,male,stranger,Self,S.bmp,0,m,807
breaking,10,1,19,2,right,male,friend,Self,S.bmp,1,m,1037
breaking,10,1,19,2,right,male,stranger,stranger,T.bmp,1,m,603
breaking,10,1,19,2,right,male,friend,Friend,C.bmp,1,m,537
breaking,10,1,19,2,right,male,stranger,stranger,T.bmp,1,m,713
breaking,10,1,19,2,right,male,friend,Self,S.bmp,1,m,697
breaking,10,1,19,2,right,male,friend,Self,S.bmp,1,m,729
breaking,10,1,19,2,right,male,stranger,Self,S.bmp,0,,0
breaking,10,1,19,2,right,male,stranger,Friend,C.bmp,0,,0
breaking,10,1,19,2,right,male,self,stranger,T.bmp,1,m,1055
breaking,10,1,19,2,right,male,friend,stranger,T.bmp,1,n,647
breaking,10,1,19,2,right,male,stranger,stranger,T.bmp,1,m,942
breaking,10,1,19,2,right,male,stranger,Friend,C.bmp,1,m,468
breaking,10,1,19,2,right,male,stranger,Friend,C.bmp,1,m,1074
breaking,10,1,19,2,right,male,friend,stranger,T.bmp,1,n,432
breaking,10,1,19,2,right,male,self,Friend,C.bmp,1,n,430
breaking,10,1,19,2,right,male,stranger,Self,S.bmp,0,m,452
breaking,10,1,19,2,right,male,self,Friend,C.bmp,1,n,354
breaking,10,1,19,2,right,male,self,Self,S.bmp,0,n,624
breaking,10,1,19,2,right,male,self,Self,S.bmp,1,m,526
breaking,10,1,19,2,right,male,self,stranger,T.bmp,0,,0
breaking,10,1,19,2,right,male,friend,Friend,C.bmp,1,m,642
breaking,10,1,19,2,right,male,self,Self,S.bmp,1,m,472
breaking,10,1,19,2,right,male,self,Friend,C.bmp,1,n,342
breaking,10,1,19,2,right,male,friend,Friend,C.bmp,1,m,460
breaking,10,1,19,2,right,male,self,stranger,T.bmp,1,m,402
breaking,10,1,19,2,right,male,self,stranger,T.bmp,1,m,416
breaking,10,1,19,2,right,male,self,Self,S.bmp,1,m,398
breaking,10,1,19,2,right,male,self,Friend,C.bmp,1,n,388
breaking,10,1,19,2,right,male,friend,Self,S.bmp,0,,0
breaking,10,1,19,2,right,male,friend,Self,S.bmp,1,m,728
breaking,10,1,19,2,right,male,friend,Friend,C.bmp,1,m,430
breaking,10,1,19,2,right,male,self,Friend,C.bmp,1,n,645
breaking,10,1,19,2,right,male,friend,Self,S.bmp,1,m,381
breaking,10,1,19,2,right,male,stranger,Friend,C.bmp,1,m,469
breaking,10,1,19,2,right,male,stranger,stranger,T.bmp,1,m,779
breaking,10,1,19,2,right,male,stranger,stranger,T.bmp,1,m,384
breaking,10,1,19,2,right,male,friend,stranger,T.bmp,1,n,870
breaking,10,1,19,2,right,male,friend,Friend,C.bmp,1,m,556
breaking,10,1,19,2,right,male,stranger,Self,S.bmp,1,n,674
breaking,10,1,19,2,right,male,stranger,Self,S.bmp,1,n,512
breaking,10,1,19,2,right,male,friend,stranger,T.bmp,1,n,510
breaking,10,1,19,2,right,male,self,Self,S.bmp,1,m,878
breaking,10,1,19,2,right,male,stranger,stranger,T.bmp,0,n,974
breaking,10,1,19,2,right,male,self,stranger,T.bmp,1,m,582
breaking,10,1,19,2,right,male,friend,stranger,T.bmp,1,n,846
breaking,10,1,19,2,right,male,self,Self,S.bmp,1,m,662
breaking,10,1,19,2,right,male,stranger,Self,S.bmp,0,m,894
breaking,10,1,19,2,right,male,stranger,Friend,C.bmp,1,m,486
breaking,10,1,19,2,right,male,stranger,Friend,C.bmp,1,m,526
breaking,10,1,19,2,right,male,friend,Friend,C.bmp,1,m,348
breaking,10,1,19,2,right,male,self,stranger,T.bmp,1,m,754
breaking,10,1,19,2,right,male,self,Friend,C.bmp,1,n,448
breaking,10,1,19,2,right,male,self,Friend,C.bmp,1,n,422
breaking,10,1,19,2,right,male,friend,Friend,C.bmp,0,n,242
breaking,10,1,19,2,right,male,friend,stranger,T.bmp,0,m,746
breaking,10,1,19,2,right,male,friend,Self,S.bmp,1,m,1072
breaking,10,1,19,2,right,male,stranger,stranger,T.bmp,1,m,501
breaking,10,1,19,2,right,male,self,Friend,C.bmp,1,n,739
breaking,10,1,19,2,right,male,friend,Self,S.bmp,1,m,777
breaking,10,1,19,2,right,male,friend,Self,S.bmp,0,n,624
breaking,10,1,19,2,right,male,stranger,Self,S.bmp,0,m,552
breaking,10,1,19,2,right,male,stranger,stranger,T.bmp,1,m,566
breaking,10,1,19,2,right,male,stranger,Self,S.bmp,0,m,1004
breaking,10,1,19,2,right,male,self,Self,S.bmp,1,m,719
breaking,10,1,19,2,right,male,friend,Friend,C.bmp,1,m,541
breaking,10,1,19,2,right,male,self,Self,S.bmp,1,m,614
breaking,10,1,19,2,right,male,self,stranger,T.bmp,1,m,533
breaking,10,1,19,2,right,male,friend,Friend,C.bmp,1,m,506
breaking,10,1,19,2,right,male,self,Self,S.bmp,0,n,826
breaking,10,1,19,2,right,male,friend,stranger,T.bmp,1,n,850
breaking,10,1,19,2,right,male,self,Friend,C.bmp,1,n,746
breaking,10,1,19,2,right,male,stranger,Friend,C.bmp,1,m,522
breaking,10,1,19,2,right,male,stranger,Friend,C.bmp,1,m,426
breaking,10,1,19,2,right,male,stranger,Friend,C.bmp,1,m,842
breaking,10,1,19,2,right,male,stranger,Self,S.bmp,1,n,578
breaking,10,1,19,2,right,male,stranger,stranger,T.bmp,0,,0
breaking,10,1,19,2,right,male,self,stranger,T.bmp,1,m,832
breaking,10,1,19,2,right,male,self,stranger,T.bmp,1,m,935
breaking,10,1,19,2,right,male,friend,stranger,T.bmp,0,m,196
breaking,10,1,19,2,right,male,friend,Friend,C.bmp,1,m,658
breaking,10,1,19,2,right,male,stranger,stranger,T.bmp,1,m,512
breaking,10,1,19,2,right,male,friend,stranger,T.bmp,1,n,421
breaking,10,1,19,2,right,male,self,stranger,T.bmp,1,m,819
breaking,10,1,19,2,right,male,friend,Self,S.bmp,1,m,762
breaking,10,1,19,2,right,male,self,stranger,T.bmp,1,m,498
breaking,10,1,19,2,right,male,self,Friend,C.bmp,1,n,365
breaking,10,1,19,2,right,male,stranger,Friend,C.bmp,1,m,566
breaking,10,1,19,2,right,male,self,Friend,C.bmp,1,n,732
breaking,10,1,19,2,right,male,self,Self,S.bmp,1,m,821
breaking,10,1,19,2,right,male,friend,Self,S.bmp,1,m,718
breaking,10,1,19,2,right,male,stranger,Friend,C.bmp,1,m,595
breaking,10,1,19,2,right,male,stranger,stranger,T.bmp,1,m,617
breaking,10,1,19,2,right,male,stranger,stranger,T.bmp,1,m,570
breaking,10,1,19,2,right,male,self,Self,S.bmp,1,m,461
breaking,10,1,19,2,right,male,stranger,Self,S.bmp,1,n,691
breaking,10,1,19,2,right,male,stranger,Friend,C.bmp,1,m,521
breaking,10,1,19,2,right,male,self,stranger,T.bmp,1,m,591
breaking,10,1,19,2,right,male,friend,stranger,T.bmp,1,n,937
breaking,10,1,19,2,right,male,friend,Friend,C.bmp,1,m,524
breaking,10,1,19,2,right,male,friend,Self,S.bmp,1,m,778
breaking,10,1,19,2,right,male,stranger,Self,S.bmp,1,n,674
breaking,10,1,19,2,right,male,friend,stranger,T.bmp,1,n,606
breaking,10,1,19,2,right,male,stranger,Self,S.bmp,0,m,644
breaking,10,1,19,2,right,male,self,Friend,C.bmp,1,n,414
breaking,10,1,19,2,right,male,friend,Friend,C.bmp,1,m,466
breaking,10,1,19,2,right,male,self,Self,S.bmp,1,m,665
breaking,10,1,19,2,right,male,friend,Self,S.bmp,1,m,690
breaking,10,1,19,2,right,male,friend,Friend,C.bmp,1,m,518
breaking,10,1,19,2,right,male,stranger,Self,S.bmp,0,m,1021
breaking,10,1,19,2,right,male,stranger,stranger,T.bmp,1,m,635
breaking,10,1,19,2,right,male,friend,Friend,C.bmp,1,m,485
breaking,10,1,19,2,right,male,friend,stranger,T.bmp,0,m,500
breaking,10,1,19,2,right,male,self,Friend,C.bmp,1,n,359
breaking,10,1,19,2,right,male,friend,Self,S.bmp,1,m,679
breaking,10,1,19,2,right,male,stranger,Friend,C.bmp,1,m,480
breaking,10,1,19,2,right,male,self,stranger,T.bmp,1,m,553
breaking,10,1,19,2,right,male,stranger,Self,S.bmp,1,n,602
breaking,10,1,19,2,right,male,friend,stranger,T.bmp,1,n,683
breaking,10,1,19,2,right,male,friend,Self,S.bmp,1,m,707
breaking,10,1,19,2,right,male,self,Self,S.bmp,1,m,745
breaking,10,1,19,2,right,male,stranger,Friend,C.bmp,0,,0
breaking,10,1,19,2,right,male,stranger,stranger,T.bmp,1,m,709
breaking,10,1,19,2,right,male,stranger,Friend,C.bmp,1,m,511
breaking,10,1,19,2,right,male,stranger,Self,S.bmp,1,n,441
breaking,10,1,19,2,right,male,friend,stranger,T.bmp,1,n,663
breaking,10,1,19,2,right,male,self,Self,S.bmp,1,m,805
breaking,10,1,19,2,right,male,stranger,stranger,T.bmp,1,m,675
breaking,10,1,19,2,right,male,self,Self,S.bmp,1,m,548
breaking,10,1,19,2,right,male,self,Friend,C.bmp,1,n,607
breaking,10,1,19,2,right,male,self,Friend,C.bmp,1,n,438
breaking,10,1,19,2,right,male,friend,Friend,C.bmp,1,m,372
breaking,10,1,19,2,right,male,self,stranger,T.bmp,1,m,761
breaking,10,1,19,2,right,male,self,stranger,T.bmp,1,m,537
breaking,10,1,19,2,right,male,friend,Friend,C.bmp,1,m,715
breaking,10,1,19,2,right,male,friend,Self,S.bmp,1,m,477
breaking,10,1,19,2,right,male,friend,Friend,C.bmp,1,m,371
breaking,10,1,19,2,right,male,stranger,stranger,T.bmp,1,m,337
breaking,10,1,19,2,right,male,self,Self,S.bmp,1,m,545
breaking,10,1,19,2,right,male,self,Friend,C.bmp,1,n,701
breaking,10,1,19,2,right,male,friend,Self,S.bmp,1,m,483
breaking,10,1,19,2,right,male,self,Friend,C.bmp,1,n,319
breaking,10,1,19,2,right,male,stranger,stranger,T.bmp,1,m,873
breaking,10,1,19,2,right,male,self,stranger,T.bmp,1,m,812
breaking,10,1,19,2,right,male,friend,Friend,C.bmp,1,m,457
breaking,10,1,19,2,right,male,stranger,Friend,C.bmp,1,m,442
breaking,10,1,19,2,right,male,friend,stranger,T.bmp,1,n,717
breaking,10,1,19,2,right,male,friend,stranger,T.bmp,1,n,798
breaking,10,1,19,2,right,male,friend,stranger,T.bmp,1,n,409
breaking,10,1,19,2,right,male,self,Friend,C.bmp,1,n,631
breaking,10,1,19,2,right,male,self,Self,S.bmp,0,n,637
breaking,10,1,19,2,right,male,self,Self,S.bmp,0,n,1027
breaking,10,1,19,2,right,male,self,stranger,T.bmp,1,m,554
breaking,10,1,19,2,right,male,stranger,Friend,C.bmp,1,m,543
breaking,10,1,19,2,right,male,stranger,Self,S.bmp,0,m,492
breaking,10,1,19,2,right,male,stranger,Self,S.bmp,1,n,570
breaking,10,1,19,2,right,male,self,stranger,T.bmp,1,m,672
breaking,10,1,19,2,right,male,stranger,stranger,T.bmp,1,m,607
breaking,10,1,19,2,right,male,stranger,Friend,C.bmp,1,m,465
breaking,10,1,19,2,right,male,stranger,Self,S.bmp,1,n,468
breaking,10,1,19,2,right,male,friend,Self,S.bmp,1,m,633
breaking,10,1,19,2,right,male,friend,Friend,C.bmp,1,m,423
breaking,10,1,19,2,right,male,self,stranger,T.bmp,1,m,573
breaking,10,1,19,2,right,male,self,Friend,C.bmp,1,n,387
breaking,10,1,19,2,right,male,self,Self,S.bmp,1,m,425
breaking,10,1,19,2,right,male,self,Self,S.bmp,1,m,345
breaking,10,1,19,2,right,male,stranger,Self,S.bmp,1,n,741
breaking,10,1,19,2,right,male,friend,Self,S.bmp,1,m,539
breaking,10,1,19,2,right,male,friend,Self,S.bmp,0,n,825
breaking,10,1,19,2,right,male,stranger,Friend,C.bmp,1,m,562
breaking,10,1,19,2,right,male,stranger,Self,S.bmp,1,n,922
breaking,10,1,19,2,right,male,stranger,stranger,T.bmp,1,m,649
breaking,10,1,19,2,right,male,friend,Friend,C.bmp,1,m,511
breaking,10,1,19,2,right,male,friend,stranger,T.bmp,1,n,501
breaking,10,1,19,2,right,male,stranger,Self,S.bmp,0,m,651
breaking,10,1,19,2,right,male,self,stranger,T.bmp,1,m,973
breaking,10,1,19,2,right,male,friend,Self,S.bmp,1,m,618
breaking,10,1,19,2,right,male,stranger,Friend,C.bmp,1,m,535
breaking,10,1,19,2,right,male,stranger,Friend,C.bmp,1,m,468
breaking,10,1,19,2,right,male,friend,stranger,T.bmp,1,n,466
breaking,10,1,19,2,right,male,friend,stranger,T.bmp,1,n,576
breaking,10,1,19,2,right,male,stranger,stranger,T.bmp,1,m,460
breaking,10,1,19,2,right,male,self,Friend,C.bmp,1,n,773
breaking,10,1,19,2,right,male,friend,Friend,C.bmp,0,n,291
breaking,10,1,19,2,right,male,self,stranger,T.bmp,1,m,609
breaking,10,1,19,2,right,male,self,Friend,C.bmp,1,n,492
breaking,10,1,19,2,right,male,self,Self,S.bmp,1,m,478
breaking,10,1,19,2,right,male,stranger,stranger,T.bmp,1,m,756
breaking,10,1,19,2,right,male,friend,Self,S.bmp,1,m,777
breaking,10,1,19,2,right,male,self,Self,S.bmp,1,m,564
breaking,10,1,19,2,right,male,stranger,Self,S.bmp,1,n,627
breaking,10,1,19,2,right,male,friend,stranger,T.bmp,1,n,908
breaking,10,1,19,2,right,male,stranger,stranger,T.bmp,1,m,726
breaking,10,1,19,2,right,male,self,Friend,C.bmp,1,n,566
breaking,10,1,19,2,right,male,stranger,Friend,C.bmp,0,n,483
breaking,10,1,19,2,right,male,friend,stranger,T.bmp,1,n,495
breaking,10,1,19,2,right,male,self,stranger,T.bmp,1,m,519
breaking,10,1,19,2,right,male,stranger,Self,S.bmp,0,m,758
breaking,10,1,19,2,right,male,friend,Friend,C.bmp,1,m,499
breaking,10,1,19,2,right,male,friend,Self,S.bmp,1,m,593
breaking,10,1,19,2,right,male,stranger,Friend,C.bmp,1,m,517
breaking,10,1,19,2,right,male,friend,Self,S.bmp,1,m,703
breaking,10,1,19,2,right,male,stranger,Self,S.bmp,1,n,989
breaking,10,1,19,2,right,male,self,stranger,T.bmp,1,m,794
breaking,10,1,19,2,right,male,self,Self,S.bmp,1,m,559
breaking,10,1,19,2,right,male,friend,Friend,C.bmp,1,m,471
breaking,10,1,19,2,right,male,friend,Friend,C.bmp,1,m,468
breaking,10,1,19,2,right,male,self,Self,S.bmp,1,m,445
breaking,10,1,19,2,right,male,stranger,Friend,C.bmp,1,m,466
breaking,10,1,19,2,right,male,friend,stranger,T.bmp,1,n,480
breaking,10,1,19,2,right,male,self,stranger,T.bmp,1,m,414
breaking,10,1,19,2,right,male,stranger,stranger,T.bmp,1,m,412
breaking,10,1,19,2,right,male,self,Friend,C.bmp,1,n,442
breaking,10,1,19,2,right,male,stranger,stranger,T.bmp,1,m,582
breaking,10,1,19,2,right,male,self,Friend,C.bmp,1,n,599
breaking,10,1,19,2,right,male,friend,stranger,T.bmp,1,n,656
breaking,10,1,19,2,right,male,stranger,stranger,T.bmp,1,m,620
breaking,10,1,19,2,right,male,self,Self,S.bmp,1,m,738
breaking,10,1,19,2,right,male,self,stranger,T.bmp,1,m,968
breaking,10,1,19,2,right,male,self,Friend,C.bmp,1,n,393
breaking,10,1,19,2,right,male,friend,Friend,C.bmp,1,m,511
breaking,10,1,19,2,right,male,stranger,Friend,C.bmp,1,m,504
breaking,10,1,19,2,right,male,stranger,Self,S.bmp,0,m,443
breaking,10,1,19,2,right,male,stranger,Friend,C.bmp,1,m,553
breaking,10,1,19,2,right,male,friend,Friend,C.bmp,1,m,471
breaking,10,1,19,2,right,male,friend,stranger,T.bmp,1,n,557
breaking,10,1,19,2,right,male,friend,Self,S.bmp,1,m,769
breaking,10,1,19,2,right,male,self,Self,S.bmp,1,m,584
breaking,10,1,19,2,right,male,self,stranger,T.bmp,1,m,1009
breaking,10,1,19,2,right,male,friend,Self,S.bmp,1,m,540
breaking,10,1,19,2,right,male,self,stranger,T.bmp,1,m,659
breaking,10,1,19,2,right,male,stranger,stranger,T.bmp,1,m,560
breaking,10,1,19,2,right,male,friend,stranger,T.bmp,1,n,391
breaking,10,1,19,2,right,male,self,Self,S.bmp,1,m,630
breaking,10,1,19,2,right,male,stranger,Self,S.bmp,1,n,854
breaking,10,1,19,2,right,male,stranger,Friend,C.bmp,1,m,492
breaking,10,1,19,2,right,male,stranger,stranger,T.bmp,1,m,775
breaking,10,1,19,2,right,male,stranger,Self,S.bmp,1,n,598
breaking,10,1,19,2,right,male,friend,Friend,C.bmp,1,m,502
breaking,10,1,19,2,right,male,self,Friend,C.bmp,1,n,420
breaking,10,1,19,2,right,male,self,Friend,C.bmp,1,n,471
breaking,10,1,19,2,right,male,friend,Self,S.bmp,1,m,622
breaking,10,1,19,2,right,male,stranger,stranger,T.bmp,1,m,1007
breaking,10,1,19,2,right,male,self,Self,S.bmp,1,m,599
breaking,10,1,19,2,right,male,friend,stranger,T.bmp,0,m,418
breaking,10,1,19,2,right,male,stranger,Self,S.bmp,0,m,496
breaking,10,1,19,2,right,male,friend,Self,S.bmp,1,m,886
breaking,10,1,19,2,right,male,self,Friend,C.bmp,1,n,444
breaking,10,1,19,2,right,male,self,Self,S.bmp,1,m,874
breaking,10,1,19,2,right,male,self,stranger,T.bmp,1,m,536
breaking,10,1,19,2,right,male,stranger,stranger,T.bmp,1,m,446
breaking,10,1,19,2,right,male,self,stranger,T.bmp,1,m,448
breaking,10,1,19,2,right,male,friend,Friend,C.bmp,1,m,530
breaking,10,1,19,2,right,male,self,Self,S.bmp,1,m,542
breaking,10,1,19,2,right,male,friend,Self,S.bmp,1,m,494
breaking,10,1,19,2,right,male,stranger,Friend,C.bmp,1,m,472
breaking,10,1,19,2,right,male,friend,stranger,T.bmp,1,n,748
breaking,10,1,19,2,right,male,stranger,stranger,T.bmp,0,,0
breaking,10,1,19,2,right,male,self,stranger,T.bmp,1,m,591
breaking,10,1,19,2,right,male,friend,Self,S.bmp,1,m,663
breaking,10,1,19,2,right,male,stranger,Self,S.bmp,1,n,1044
breaking,10,1,19,2,right,male,friend,stranger,T.bmp,1,n,482
breaking,10,1,19,2,right,male,stranger,Self,S.bmp,0,m,864
breaking,10,1,19,2,right,male,self,Friend,C.bmp,1,n,418
breaking,10,1,19,2,right,male,self,Friend,C.bmp,1,n,406
breaking,10,1,19,2,right,male,friend,Friend,C.bmp,1,m,448
breaking,10,1,19,2,right,male,stranger,Friend,C.bmp,1,m,476
breaking,10,1,19,2,right,male,friend,Friend,C.bmp,1,m,684
breaking,10,1,19,2,right,male,stranger,Friend,C.bmp,1,m,533
breaking,10,1,19,2,right,male,friend,Self,S.bmp,1,m,714
breaking,10,1,19,2,right,male,self,stranger,T.bmp,1,m,833
breaking,10,1,19,2,right,male,self,stranger,T.bmp,1,m,841
breaking,10,1,19,2,right,male,stranger,stranger,T.bmp,1,m,439
breaking,10,1,19,2,right,male,stranger,Friend,C.bmp,1,m,548
breaking,10,1,19,2,right,male,self,Friend,C.bmp,1,n,720
breaking,10,1,19,2,right,male,self,Self,S.bmp,1,m,558
breaking,10,1,19,2,right,male,stranger,stranger,T.bmp,1,m,583
breaking,10,1,19,2,right,male,friend,stranger,T.bmp,1,n,666
breaking,10,1,19,2,right,male,stranger,stranger,T.bmp,1,m,641
breaking,10,1,19,2,right,male,self,Self,S.bmp,1,m,567
breaking,10,1,19,2,right,male,stranger,Self,S.bmp,1,n,931
breaking,10,1,19,2,right,male,stranger,Self,S.bmp,0,m,481
breaking,10,1,19,2,right,male,friend,Friend,C.bmp,1,m,544
breaking,10,1,19,2,right,male,friend,Friend,C.bmp,1,m,515
breaking,10,1,19,2,right,male,friend,stranger,T.bmp,1,n,603
breaking,10,1,19,2,right,male,friend,Friend,C.bmp,1,m,708
breaking,10,1,19,2,right,male,stranger,Self,S.bmp,0,m,712
breaking,10,1,19,2,right,male,friend,Self,S.bmp,1,m,781
breaking,10,1,19,2,right,male,stranger,Friend,C.bmp,1,m,531
breaking,10,1,19,2,right,male,friend,stranger,T.bmp,1,n,505
breaking,10,1,19,2,right,male,self,Friend,C.bmp,1,n,479
breaking,10,1,19,2,right,male,friend,Self,S.bmp,1,m,783
breaking,10,1,19,2,right,male,self,Friend,C.bmp,1,n,332
breaking,10,1,19,2,right,male,stranger,Friend,C.bmp,1,m,594
breaking,10,1,19,2,right,male,self,Self,S.bmp,1,m,436
breaking,10,1,19,2,right,male,self,stranger,T.bmp,1,m,790
breaking,10,1,19,2,right,male,stranger,Self,S.bmp,0,m,801
breaking,10,1,19,2,right,male,stranger,stranger,T.bmp,1,m,417
breaking,10,1,19,2,right,male,self,Self,S.bmp,1,m,620
breaking,10,1,19,2,right,male,friend,Friend,C.bmp,1,m,436
breaking,10,1,19,2,right,male,stranger,Self,S.bmp,1,n,575
breaking,10,1,19,2,right,male,stranger,Friend,C.bmp,1,m,477
breaking,10,1,19,2,right,male,friend,Self,S.bmp,1,m,731
breaking,10,1,19,2,right,male,stranger,Self,S.bmp,1,n,859
breaking,10,1,19,2,right,male,friend,stranger,T.bmp,1,n,914
breaking,10,1,19,2,right,male,friend,Friend,C.bmp,1,m,757
breaking,10,1,19,2,right,male,friend,Self,S.bmp,0,n,935
breaking,10,1,19,2,right,male,self,Friend,C.bmp,1,n,372
breaking,10,1,19,2,right,male,stranger,Friend,C.bmp,0,,0
breaking,10,1,19,2,right,male,self,stranger,T.bmp,1,m,782
breaking,10,1,19,2,right,male,friend,stranger,T.bmp,1,n,528
breaking,10,1,19,2,right,male,self,stranger,T.bmp,1,m,746
breaking,10,1,19,2,right,male,self,Self,S.bmp,1,m,513
breaking,10,1,19,2,right,male,self,stranger,T.bmp,1,m,374
breaking,10,1,19,2,right,male,self,Friend,C.bmp,1,n,476
breaking,10,1,19,2,right,male,stranger,stranger,T.bmp,1,m,588
breaking,10,1,19,2,right,male,friend,stranger,T.bmp,0,m,636
breaking,10,1,19,2,right,male,self,Friend,C.bmp,1,n,436
breaking,10,1,19,2,right,male,stranger,Friend,C.bmp,1,m,534
breaking,10,1,19,2,right,male,self,Self,S.bmp,1,m,547
breaking,10,1,19,2,right,male,friend,Friend,C.bmp,1,m,750
breaking,10,1,19,2,right,male,stranger,stranger,T.bmp,1,m,932
breaking,10,1,19,2,right,male,friend,Self,S.bmp,1,m,878
breaking,10,1,19,2,right,male,self,stranger,T.bmp,1,m,469
breaking,10,1,19,2,right,male,self,Self,S.bmp,1,m,422
breaking,10,1,19,2,right,male,self,Self,S.bmp,1,m,462
breaking,10,1,19,2,right,male,friend,Friend,C.bmp,1,m,722
breaking,10,1,19,2,right,male,stranger,Friend,C.bmp,1,m,426
breaking,10,1,19,2,right,male,friend,Friend,C.bmp,1,m,567
breaking,10,1,19,2,right,male,friend,Self,S.bmp,1,m,436
breaking,10,1,19,2,right,male,self,Friend,C.bmp,1,n,544
breaking,10,1,19,2,right,male,stranger,Friend,C.bmp,1,m,449
breaking,10,1,19,2,right,male,self,Friend,C.bmp,1,n,893
breaking,10,1,19,2,right,male,self,stranger,T.bmp,1,m,474
breaking,10,1,19,2,right,male,friend,stranger,T.bmp,0,m,438
breaking,10,1,19,2,right,male,friend,Self,S.bmp,1,m,479
breaking,10,1,19,2,right,male,friend,stranger,T.bmp,1,n,892
breaking,10,1,19,2,right,male,self,stranger,T.bmp,1,m,411
breaking,10,1,19,2,right,male,friend,Self,S.bmp,1,m,524
breaking,10,1,19,2,right,male,self,Friend,C.bmp,1,n,391
breaking,10,1,19,2,right,male,stranger,Friend,C.bmp,1,m,949
breaking,10,1,19,2,right,male,stranger,Self,S.bmp,1,n,821
breaking,10,1,19,2,right,male,stranger,stranger,T.bmp,1,m,596
breaking,10,1,19,2,right,male,stranger,stranger,T.bmp,0,n,577
breaking,10,1,19,2,right,male,stranger,Self,S.bmp,1,n,1025
breaking,10,1,19,2,right,male,self,Self,S.bmp,1,m,761
breaking,10,1,19,2,right,male,stranger,stranger,T.bmp,1,m,1041
breaking,10,1,19,2,right,male,stranger,Self,S.bmp,1,n,896
breaking,10,1,19,2,right,male,friend,stranger,T.bmp,1,n,640
breaking,10,1,19,2,right,male,friend,Friend,C.bmp,1,m,520
breaking,10,1,19,2,right,male,stranger,stranger,T.bmp,1,m,512
breaking,10,1,19,2,right,male,stranger,Self,S.bmp,1,n,728
breaking,10,1,19,2,right,male,friend,Friend,C.bmp,1,m,712
breaking,10,1,19,2,right,male,friend,stranger,T.bmp,1,n,646
breaking,10,1,19,2,right,male,stranger,Friend,C.bmp,1,m,636
breaking,10,1,19,2,right,male,friend,Friend,C.bmp,1,m,514
breaking,10,1,19,2,right,male,friend,Friend,C.bmp,1,m,473
breaking,10,1,19,2,right,male,self,stranger,T.bmp,1,m,536
breaking,10,1,19,2,right,male,stranger,stranger,T.bmp,1,m,486
breaking,10,1,19,2,right,male,self,Friend,C.bmp,1,n,458
breaking,10,1,19,2,right,male,friend,Self,S.bmp,1,m,360
breaking,10,1,19,2,right,male,friend,Self,S.bmp,1,m,502
breaking,10,1,19,2,right,male,self,stranger,T.bmp,1,m,466
breaking,10,1,19,2,right,male,friend,Self,S.bmp,1,m,418
breaking,10,1,19,2,right,male,stranger,Friend,C.bmp,1,m,385
breaking,10,1,19,2,right,male,stranger,stranger,T.bmp,1,m,431
breaking,10,1,19,2,right,male,self,Self,S.bmp,1,m,572
breaking,10,1,19,2,right,male,self,Friend,C.bmp,1,n,434
breaking,10,1,19,2,right,male,self,Self,S.bmp,1,m,555
breaking,10,1,19,2,right,male,friend,stranger,T.bmp,1,n,534
breaking,10,1,19,2,right,male,self,Self,S.bmp,1,m,668
breaking,10,1,19,2,right,male,self,stranger,T.bmp,1,m,795
breaking,10,1,19,2,right,male,stranger,Friend,C.bmp,1,m,657
breaking,10,1,19,2,right,male,self,Friend,C.bmp,1,n,670
breaking,10,1,19,2,right,male,stranger,Self,S.bmp,1,n,876
breaking,10,1,19,2,right,male,stranger,Self,S.bmp,0,m,420
breaking,10,1,19,2,right,male,friend,stranger,T.bmp,1,n,592
breaking,10,1,19,2,right,male,friend,Friend,C.bmp,1,m,458
breaking,10,1,19,2,right,male,friend,stranger,T.bmp,1,n,458
breaking,10,1,19,2,right,male,self,Friend,C.bmp,1,n,442
breaking,10,1,19,2,right,male,stranger,Self,S.bmp,0,m,732
breaking,10,1,19,2,right,male,stranger,stranger,T.bmp,1,m,548
breaking,10,1,19,2,right,male,self,Self,S.bmp,0,n,600
breaking,10,1,19,2,right,male,friend,Self,S.bmp,1,m,982
breaking,10,1,19,2,right,male,stranger,Friend,C.bmp,1,m,846
breaking,10,1,19,2,right,male,friend,stranger,T.bmp,1,n,386
breaking,10,1,19,2,right,male,self,stranger,T.bmp,1,m,784
breaking,10,1,19,2,right,male,self,Self,S.bmp,1,m,601
breaking,10,1,19,2,right,male,stranger,Friend,C.bmp,1,m,565
breaking,10,1,19,2,right,male,stranger,stranger,T.bmp,1,m,426
breaking,10,1,19,2,right,male,self,stranger,T.bmp,1,m,624
breaking,10,1,19,2,right,male,friend,Friend,C.bmp,1,m,462
breaking,10,1,19,2,right,male,self,stranger,T.bmp,1,m,468
breaking,10,1,19,2,right,male,self,Friend,C.bmp,1,n,572
breaking,10,1,19,2,right,male,self,Self,S.bmp,1,m,556
breaking,10,1,19,2,right,male,stranger,Self,S.bmp,1,n,921
breaking,10,1,19,2,right,male,self,Friend,C.bmp,1,n,387
breaking,10,1,19,2,right,male,stranger,stranger,T.bmp,1,m,661
breaking,10,1,19,2,right,male,stranger,Friend,C.bmp,1,m,928
breaking,10,1,19,2,right,male,friend,Friend,C.bmp,1,m,766
breaking,10,1,19,2,right,male,friend,Self,S.bmp,1,m,613
breaking,10,1,19,2,right,male,friend,stranger,T.bmp,1,n,338
breaking,10,1,19,2,right,male,friend,Self,S.bmp,1,m,504
breaking,10,1,19,2,right,male,stranger,Self,S.bmp,1,n,678
breaking,10,1,19,2,right,male,self,stranger,T.bmp,1,m,812
breaking,10,1,19,2,right,male,self,Self,S.bmp,1,m,523
breaking,10,1,19,2,right,male,stranger,Self,S.bmp,1,n,539
breaking,10,1,19,2,right,male,friend,Friend,C.bmp,1,m,602
breaking,10,1,19,2,right,male,stranger,Self,S.bmp,1,n,708
breaking,10,1,19,2,right,male,friend,stranger,T.bmp,1,n,525
breaking,10,1,19,2,right,male,stranger,Friend,C.bmp,1,m,850
breaking,10,1,19,2,right,male,self,Friend,C.bmp,1,n,648
breaking,10,1,19,2,right,male,friend,Friend,C.bmp,0,n,374
breaking,10,1,19,2,right,male,stranger,Friend,C.bmp,1,m,828
breaking,10,1,19,2,right,male,self,Self,S.bmp,1,m,490
breaking,10,1,19,2,right,male,friend,Self,S.bmp,1,m,553
breaking,10,1,19,2,right,male,friend,Self,S.bmp,1,m,473
breaking,10,1,19,2,right,male,stranger,stranger,T.bmp,1,m,436
breaking,10,1,19,2,right,male,self,Friend,C.bmp,1,n,413
breaking,10,1,19,2,right,male,stranger,stranger,T.bmp,1,m,463
breaking,10,1,19,2,right,male,friend,Friend,C.bmp,1,m,437
breaking,10,1,19,2,right,male,self,Friend,C.bmp,1,n,429
breaking,10,1,19,2,right,male,stranger,Self,S.bmp,0,,0
breaking,10,1,19,2,right,male,friend,stranger,T.bmp,1,n,535
breaking,10,1,19,2,right,male,stranger,stranger,T.bmp,1,m,605
breaking,10,1,19,2,right,male,self,Self,S.bmp,1,m,820
breaking,10,1,19,2,right,male,self,stranger,T.bmp,1,m,643
breaking,10,1,19,2,right,male,friend,stranger,T.bmp,1,n,586
breaking,10,1,19,2,right,male,self,stranger,T.bmp,1,m,655
breaking,10,1,19,2,right,male,stranger,Friend,C.bmp,1,m,468
breaking,10,1,19,2,right,male,friend,Self,S.bmp,1,m,657
breaking,10,1,19,2,right,male,self,stranger,T.bmp,0,n,479
breaking,10,1,19,2,right,male,self,stranger,T.bmp,1,m,894
breaking,10,1,19,2,right,male,friend,Friend,C.bmp,1,m,412
breaking,10,1,19,2,right,male,friend,stranger,T.bmp,1,n,735
breaking,10,1,19,2,right,male,self,Self,S.bmp,1,m,665
breaking,10,1,19,2,right,male,stranger,Friend,C.bmp,1,m,510
breaking,10,1,19,2,right,male,friend,Self,S.bmp,1,m,860
breaking,10,1,19,2,right,male,self,Self,S.bmp,1,m,392
breaking,10,1,19,2,right,male,friend,stranger,T.bmp,0,m,446
breaking,10,1,19,2,right,male,self,Friend,C.bmp,1,n,598
breaking,10,1,19,2,right,male,friend,Self,S.bmp,1,m,508
breaking,10,1,19,2,right,male,stranger,Self,S.bmp,1,n,554
breaking,10,1,19,2,right,male,self,Friend,C.bmp,1,n,403
breaking,10,1,19,2,right,male,stranger,stranger,T.bmp,1,m,559
breaking,10,1,19,2,right,male,self,Self,S.bmp,1,m,766
breaking,10,1,19,2,right,male,stranger,Self,S.bmp,1,n,588
breaking,10,1,19,2,right,male,friend,Self,S.bmp,1,m,665
breaking,10,1,19,2,right,male,friend,stranger,T.bmp,1,n,752
breaking,10,1,19,2,right,male,stranger,stranger,T.bmp,0,n,537
breaking,10,1,19,2,right,male,self,Friend,C.bmp,1,n,323
breaking,10,1,19,2,right,male,self,stranger,T.bmp,1,m,563
breaking,10,1,19,2,right,male,friend,Friend,C.bmp,1,m,463
breaking,10,1,19,2,right,male,stranger,Self,S.bmp,0,m,392
breaking,10,1,19,2,right,male,stranger,Friend,C.bmp,1,m,918
breaking,10,1,19,2,right,male,friend,Friend,C.bmp,1,m,738
breaking,10,1,19,2,right,male,stranger,Friend,C.bmp,1,m,722
breaking,10,1,19,2,right,male,stranger,stranger,T.bmp,1,m,581
breaking,10,1,19,2,right,male,friend,Friend,C.bmp,1,m,673
breaking,10,1,19,2,right,male,self,Friend,C.bmp,1,n,502
breaking,10,1,19,2,right,male,self,Self,S.bmp,0,n,503
breaking,10,1,19,2,right,male,stranger,Friend,C.bmp,1,m,602
breaking,10,1,19,2,right,male,friend,Self,S.bmp,1,m,672
breaking,10,1,19,2,right,male,stranger,stranger,T.bmp,1,m,706
breaking,10,1,19,2,right,male,friend,Self,S.bmp,1,m,620
breaking,10,1,19,2,right,male,stranger,stranger,T.bmp,1,m,506
breaking,10,1,19,2,right,male,self,stranger,T.bmp,1,m,457
breaking,10,1,19,2,right,male,self,stranger,T.bmp,1,m,509
breaking,10,1,19,2,right,male,stranger,Self,S.bmp,1,n,769
breaking,10,1,19,2,right,male,friend,stranger,T.bmp,0,m,450
breaking,10,1,19,2,right,male,friend,Friend,C.bmp,1,m,519
breaking,10,1,19,2,right,male,friend,stranger,T.bmp,1,n,613
breaking,10,1,19,2,right,male,self,stranger,T.bmp,1,m,816
breaking,10,1,19,2,right,male,stranger,Friend,C.bmp,1,m,443
breaking,10,1,19,2,right,male,self,Self,S.bmp,1,m,579
breaking,10,1,19,2,right,male,friend,stranger,T.bmp,0,m,663
breaking,10,1,19,2,right,male,self,Self,S.bmp,1,m,757
breaking,10,1,19,2,right,male,friend,Self,S.bmp,1,m,630
breaking,10,1,19,2,right,male,self,Friend,C.bmp,1,n,835
breaking,10,1,19,2,right,male,stranger,Self,S.bmp,0,m,599
breaking,10,1,19,2,right,male,stranger,stranger,T.bmp,1,m,600
breaking,10,1,19,2,right,male,friend,Friend,C.bmp,1,m,492
breaking,10,1,19,2,right,male,stranger,Self,S.bmp,0,m,489
breaking,10,1,19,2,right,male,self,Friend,C.bmp,1,n,344
breaking,10,1,19,2,right,male,stranger,Friend,C.bmp,1,m,579
breaking,10,1,19,2,right,male,friend,stranger,T.bmp,1,n,627
breaking,10,1,19,2,right,male,stranger,Friend,C.bmp,1,m,537
breaking,10,1,19,2,right,male,stranger,Self,S.bmp,0,m,479
breaking,10,1,19,2,right,male,self,stranger,T.bmp,1,m,981
breaking,10,1,19,2,right,male,stranger,stranger,T.bmp,1,m,915
breaking,10,1,19,2,right,male,self,Self,S.bmp,1,m,648
breaking,10,1,19,2,right,male,friend,Self,S.bmp,1,m,575
breaking,10,1,19,2,right,male,self,Self,S.bmp,1,m,613
breaking,10,1,19,2,right,male,stranger,Friend,C.bmp,1,m,459
breaking,10,1,19,2,right,male,self,Self,S.bmp,1,m,601
breaking,10,1,19,2,right,male,stranger,stranger,T.bmp,1,m,423
breaking,10,1,19,2,right,male,friend,Friend,C.bmp,1,m,453
breaking,10,1,19,2,right,male,friend,Friend,C.bmp,1,m,427
breaking,10,1,19,2,right,male,self,Friend,C.bmp,1,n,393
breaking,10,1,19,2,right,male,self,stranger,T.bmp,1,m,471
breaking,10,1,19,2,right,male,stranger,Self,S.bmp,1,n,671
breaking,10,1,19,2,right,male,friend,stranger,T.bmp,1,n,485
breaking,10,1,19,2,right,male,stranger,Friend,C.bmp,1,m,549
breaking,10,1,19,2,right,male,self,stranger,T.bmp,1,m,613
breaking,10,1,19,2,right,male,friend,stranger,T.bmp,1,n,595
breaking,10,1,19,2,right,male,self,Friend,C.bmp,1,n,345
breaking,10,1,19,2,right,male,friend,Self,S.bmp,1,m,529
breaking,10,1,19,2,right,male,self,Friend,C.bmp,1,n,373
breaking,10,1,19,2,right,male,stranger,stranger,T.bmp,1,m,443
breaking,10,1,19,2,right,male,friend,Self,S.bmp,1,m,617
breaking,10,1,19,2,right,male,stranger,Self,S.bmp,1,n,426
breaking,10,1,19,2,right,male,friend,Friend,C.bmp,1,m,541
breaking,10,1,19,2,right,male,friend,Self,S.bmp,1,m,899
breaking,10,1,19,2,right,male,stranger,Friend,C.bmp,0,n,457
breaking,10,1,19,2,right,male,friend,stranger,T.bmp,1,n,455
breaking,10,1,19,2,right,male,stranger,stranger,T.bmp,1,m,796
breaking,10,1,19,2,right,male,stranger,Friend,C.bmp,1,m,510
breaking,10,1,19,2,right,male,stranger,stranger,T.bmp,1,m,424
breaking,10,1,19,2,right,male,friend,Friend,C.bmp,1,m,434
breaking,10,1,19,2,right,male,self,stranger,T.bmp,1,m,487
breaking,10,1,19,2,right,male,friend,stranger,T.bmp,1,n,498
breaking,10,1,19,2,right,male,friend,Self,S.bmp,1,m,318
breaking,10,1,19,2,right,male,friend,Friend,C.bmp,1,m,504
breaking,10,1,19,2,right,male,stranger,Self,S.bmp,0,m,437
breaking,10,1,19,2,right,male,self,Friend,C.bmp,1,n,330
breaking,10,1,19,2,right,male,stranger,Self,S.bmp,1,n,864
breaking,10,1,19,2,right,male,self,stranger,T.bmp,1,m,628
breaking,10,1,19,2,right,male,self,Self,S.bmp,1,m,640
breaking,10,1,19,2,right,male,stranger,Self,S.bmp,1,n,743
breaking,10,1,19,2,right,male,stranger,stranger,T.bmp,1,m,559
breaking,10,1,19,2,right,male,friend,Friend,C.bmp,1,m,521
breaking,10,1,19,2,right,male,friend,Self,S.bmp,1,m,871
breaking,10,1,19,2,right,male,self,Friend,C.bmp,1,n,502
breaking,10,1,19,2,right,male,self,stranger,T.bmp,1,m,883
breaking,10,1,19,2,right,male,friend,stranger,T.bmp,1,n,576
breaking,10,1,19,2,right,male,self,Self,S.bmp,1,m,664
breaking,10,1,19,2,right,male,stranger,Friend,C.bmp,1,m,661
breaking,10,1,19,2,right,male,self,Friend,C.bmp,1,n,651
breaking,10,1,19,2,right,male,self,Self,S.bmp,1,m,355
breaking,10,1,19,2,right,male,self,stranger,T.bmp,1,m,234
breaking,10,1,19,2,right,male,friend,stranger,T.bmp,1,n,496
breaking,10,1,19,2,right,male,friend,Self,S.bmp,1,m,446
breaking,10,1,19,2,right,male,stranger,Friend,C.bmp,1,m,484
breaking,10,1,19,2,right,male,friend,Friend,C.bmp,1,m,290
breaking,10,1,19,2,right,male,self,Friend,C.bmp,1,n,488
breaking,10,1,19,2,right,male,self,stranger,T.bmp,1,m,398
breaking,10,1,19,2,right,male,stranger,stranger,T.bmp,1,m,604
breaking,10,1,19,2,right,male,friend,Friend,C.bmp,1,m,394
breaking,10,1,19,2,right,male,self,Friend,C.bmp,0,m,344
breaking,10,1,19,2,right,male,friend,stranger,T.bmp,1,n,630
breaking,10,1,19,2,right,male,stranger,stranger,T.bmp,1,m,412
breaking,10,1,19,2,right,male,self,stranger,T.bmp,1,m,571
breaking,10,1,19,2,right,male,stranger,stranger,T.bmp,1,m,587
breaking,10,1,19,2,right,male,stranger,Self,S.bmp,1,n,554
breaking,10,1,19,2,right,male,stranger,Friend,C.bmp,1,m,424
breaking,10,1,19,2,right,male,friend,Friend,C.bmp,1,m,491
breaking,10,1,19,2,right,male,friend,Self,S.bmp,1,m,433
breaking,10,1,19,2,right,male,self,Self,S.bmp,1,m,407
breaking,10,1,19,2,right,male,friend,Self,S.bmp,1,m,397
breaking,10,1,19,2,right,male,self,Friend,C.bmp,1,n,371
breaking,10,1,19,2,right,male,stranger,Friend,C.bmp,1,m,481
breaking,10,1,19,2,right,male,stranger,Self,S.bmp,1,n,632
breaking,10,1,19,2,right,male,friend,stranger,T.bmp,1,n,536
breaking,10,1,19,2,right,male,stranger,Self,S.bmp,1,n,824
breaking,10,1,19,2,right,male,self,Self,S.bmp,1,m,466
breaking,10,1,19,2,right,male,self,Self,S.bmp,1,m,715
breaking,10,1,19,2,right,male,stranger,Friend,C.bmp,1,m,408
breaking,10,1,19,2,right,male,friend,Friend,C.bmp,1,m,504
breaking,10,1,19,2,right,male,friend,stranger,T.bmp,1,n,552
breaking,10,1,19,2,right,male,stranger,Self,S.bmp,1,n,576
breaking,10,1,19,2,right,male,self,Friend,C.bmp,1,n,407
breaking,10,1,19,2,right,male,friend,stranger,T.bmp,1,n,410
breaking,10,1,19,2,right,male,stranger,Friend,C.bmp,1,m,498
breaking,10,1,19,2,right,male,self,Self,S.bmp,1,m,758
breaking,10,1,19,2,right,male,friend,Friend,C.bmp,1,m,500
breaking,10,1,19,2,right,male,stranger,stranger,T.bmp,1,m,588
breaking,10,1,19,2,right,male,stranger,Friend,C.bmp,1,m,465
breaking,10,1,19,2,right,male,self,Friend,C.bmp,0,m,598
breaking,10,1,19,2,right,male,friend,Self,S.bmp,1,m,572
breaking,10,1,19,2,right,male,self,Friend,C.bmp,1,n,442
breaking,10,1,19,2,right,male,self,stranger,T.bmp,1,m,704
breaking,10,1,19,2,right,male,self,stranger,T.bmp,0,n,582
breaking,10,1,19,2,right,male,friend,Friend,C.bmp,1,m,652
breaking,10,1,19,2,right,male,friend,Self,S.bmp,1,m,1006
breaking,10,1,19,2,right,male,stranger,stranger,T.bmp,1,m,440
breaking,10,1,19,2,right,male,self,Self,S.bmp,1,m,590
breaking,10,1,19,2,right,male,friend,Self,S.bmp,1,m,628
breaking,10,1,19,2,right,male,stranger,stranger,T.bmp,1,m,473
breaking,10,1,19,2,right,male,self,stranger,T.bmp,1,m,743
breaking,10,1,19,2,right,male,self,Self,S.bmp,1,m,415
breaking,10,1,19,2,right,male,friend,stranger,T.bmp,1,n,380
breaking,10,1,19,2,right,male,stranger,Self,S.bmp,1,n,445
breaking,10,1,19,2,right,male,stranger,Self,S.bmp,1,n,459
breaking,10,1,19,2,right,male,stranger,stranger,T.bmp,1,m,526
breaking,10,1,19,2,right,male,friend,Friend,C.bmp,1,m,406
breaking,10,1,19,2,right,male,self,Friend,C.bmp,1,n,413
breaking,10,1,19,2,right,male,stranger,Self,S.bmp,1,n,840
breaking,10,1,19,2,right,male,stranger,Friend,C.bmp,1,m,622
breaking,10,1,19,2,right,male,self,Friend,C.bmp,1,n,358
breaking,10,1,19,2,right,male,friend,Self,S.bmp,1,m,929
breaking,10,1,19,2,right,male,friend,stranger,T.bmp,1,n,509
breaking,10,1,19,2,right,male,stranger,Self,S.bmp,1,n,578
breaking,10,1,19,2,right,male,self,Self,S.bmp,1,m,496
breaking,10,1,19,2,right,male,self,Friend,C.bmp,1,n,438
breaking,10,1,19,2,right,male,stranger,stranger,T.bmp,1,m,532
breaking,10,1,19,2,right,male,stranger,Self,S.bmp,1,n,594
breaking,10,1,19,2,right,male,stranger,stranger,T.bmp,1,m,761
breaking,10,1,19,2,right,male,stranger,Friend,C.bmp,1,m,398
breaking,10,1,19,2,right,male,self,Self,S.bmp,1,m,492
breaking,10,1,19,2,right,male,self,stranger,T.bmp,1,m,442
breaking,10,1,19,2,right,male,friend,stranger,T.bmp,0,m,448
breaking,10,1,19,2,right,male,self,Self,S.bmp,1,m,406
breaking,10,1,19,2,right,male,friend,Friend,C.bmp,1,m,478
breaking,10,1,19,2,right,male,friend,Self,S.bmp,1,m,516
breaking,10,1,19,2,right,male,friend,Self,S.bmp,1,m,471
breaking,10,1,19,2,right,male,self,stranger,T.bmp,1,m,413
breaking,10,1,19,2,right,male,friend,Friend,C.bmp,1,m,651
breaking,10,1,19,2,right,male,friend,stranger,T.bmp,1,n,731
breaking,10,1,19,2,right,male,self,stranger,T.bmp,1,m,479
breaking,10,1,19,2,right,male,stranger,Friend,C.bmp,1,m,502
breaking,3,1,21,2,right,male,stranger,Friend,T.bmp,0,n,941
breaking,3,1,21,2,right,male,stranger,stranger,C.bmp,0,,0
breaking,3,1,21,2,right,male,friend,Self,S.bmp,0,,0
breaking,3,1,21,2,right,male,self,Friend,T.bmp,0,,0
breaking,3,1,21,2,right,male,self,Self,S.bmp,0,,0
breaking,3,1,21,2,right,male,friend,Friend,T.bmp,0,,0
breaking,3,1,21,2,right,male,friend,stranger,C.bmp,0,,0
breaking,3,1,21,2,right,male,stranger,Self,S.bmp,0,,0
breaking,3,1,21,2,right,male,self,stranger,C.bmp,0,,0
breaking,3,1,21,2,right,male,self,Self,S.bmp,1,m,818
breaking,3,1,21,2,right,male,friend,Self,S.bmp,1,m,872
breaking,3,1,21,2,right,male,stranger,Friend,T.bmp,1,m,854
breaking,3,1,21,2,right,male,stranger,stranger,C.bmp,1,m,908
breaking,3,1,21,2,right,male,friend,Self,S.bmp,1,m,1090
breaking,3,1,21,2,right,male,friend,stranger,C.bmp,1,n,1056
breaking,3,1,21,2,right,male,self,Self,S.bmp,1,m,814
breaking,3,1,21,2,right,male,self,Friend,T.bmp,1,n,476
breaking,3,1,21,2,right,male,friend,Friend,T.bmp,1,m,610
breaking,3,1,21,2,right,male,stranger,stranger,C.bmp,0,,0
breaking,3,1,21,2,right,male,stranger,Self,S.bmp,0,m,694
breaking,3,1,21,2,right,male,stranger,Self,S.bmp,0,m,574
breaking,3,1,21,2,right,male,self,stranger,C.bmp,1,m,868
breaking,3,1,21,2,right,male,friend,Friend,T.bmp,1,m,578
breaking,3,1,21,2,right,male,stranger,Friend,T.bmp,1,m,496
breaking,3,1,21,2,right,male,self,Friend,T.bmp,1,n,366
breaking,3,1,21,2,right,male,friend,Self,S.bmp,0,,0
breaking,3,1,21,2,right,male,friend,stranger,C.bmp,0,m,618
breaking,3,1,21,2,right,male,friend,Friend,T.bmp,1,m,522
breaking,3,1,21,2,right,male,self,stranger,C.bmp,1,m,730
breaking,3,1,21,2,right,male,stranger,stranger,C.bmp,1,m,1050
breaking,3,1,21,2,right,male,friend,stranger,C.bmp,1,n,506
breaking,3,1,21,2,right,male,stranger,Friend,T.bmp,1,m,498
breaking,3,1,21,2,right,male,stranger,Self,S.bmp,0,,0
breaking,3,1,21,2,right,male,self,Self,S.bmp,1,m,826
breaking,3,1,21,2,right,male,self,stranger,C.bmp,1,m,618
breaking,3,1,21,2,right,male,self,Friend,T.bmp,1,n,594
breaking,3,1,21,2,right,male,stranger,Friend,T.bmp,1,m,602
breaking,3,1,21,2,right,male,self,Self,S.bmp,1,m,632
breaking,3,1,21,2,right,male,stranger,stranger,C.bmp,1,m,514
breaking,3,1,21,2,right,male,stranger,Friend,T.bmp,1,m,636
breaking,3,1,21,2,right,male,self,Friend,T.bmp,1,n,466
breaking,3,1,21,2,right,male,self,Self,S.bmp,1,m,592
breaking,3,1,21,2,right,male,self,Friend,T.bmp,1,n,742
breaking,3,1,21,2,right,male,friend,Friend,T.bmp,1,m,428
breaking,3,1,21,2,right,male,friend,Friend,T.bmp,1,m,458
breaking,3,1,21,2,right,male,stranger,stranger,C.bmp,1,m,511
breaking,3,1,21,2,right,male,self,stranger,C.bmp,0,n,654
breaking,3,1,21,2,right,male,friend,stranger,C.bmp,0,,0
breaking,3,1,21,2,right,male,friend,Self,S.bmp,1,m,809
breaking,3,1,21,2,right,male,stranger,Self,S.bmp,0,,0
breaking,3,1,21,2,right,male,friend,Self,S.bmp,1,m,749
breaking,3,1,21,2,right,male,friend,stranger,C.bmp,1,n,963
breaking,3,1,21,2,right,male,friend,stranger,C.bmp,1,n,393
breaking,3,1,21,2,right,male,friend,Self,S.bmp,1,m,616
breaking,3,1,21,2,right,male,stranger,Self,S.bmp,0,m,630
breaking,3,1,21,2,right,male,stranger,Self,S.bmp,1,n,868
breaking,3,1,21,2,right,male,self,stranger,C.bmp,1,m,602
breaking,3,1,21,2,right,male,stranger,Friend,T.bmp,1,m,632
breaking,3,1,21,2,right,male,friend,Friend,T.bmp,1,m,542
breaking,3,1,21,2,right,male,stranger,stranger,C.bmp,1,m,532
breaking,3,1,21,2,right,male,self,stranger,C.bmp,1,m,642
breaking,3,1,21,2,right,male,self,Friend,T.bmp,1,n,520
breaking,3,1,21,2,right,male,self,Self,S.bmp,1,m,568
breaking,3,1,21,2,right,male,stranger,stranger,C.bmp,1,m,672
breaking,3,1,21,2,right,male,stranger,stranger,C.bmp,1,m,576
breaking,3,1,21,2,right,male,friend,stranger,C.bmp,1,n,584
breaking,3,1,21,2,right,male,friend,Self,S.bmp,1,m,622
breaking,3,1,21,2,right,male,stranger,Friend,T.bmp,1,m,500
breaking,3,1,21,2,right,male,friend,stranger,C.bmp,1,n,746
breaking,3,1,21,2,right,male,stranger,Self,S.bmp,0,m,488
breaking,3,1,21,2,right,male,stranger,Self,S.bmp,1,n,646
breaking,3,1,21,2,right,male,friend,Friend,T.bmp,1,m,499
breaking,3,1,21,2,right,male,stranger,Friend,T.bmp,1,m,985
breaking,3,1,21,2,right,male,friend,Self,S.bmp,0,n,903
breaking,3,1,21,2,right,male,self,Friend,T.bmp,1,n,461
breaking,3,1,21,2,right,male,friend,Friend,T.bmp,1,m,419
breaking,3,1,21,2,right,male,self,Self,S.bmp,0,,0
breaking,3,1,21,2,right,male,self,stranger,C.bmp,1,m,775
breaking,3,1,21,2,right,male,self,Friend,T.bmp,0,,0
breaking,3,1,21,2,right,male,friend,Self,S.bmp,1,m,827
breaking,3,1,21,2,right,male,friend,stranger,C.bmp,0,m,407
breaking,3,1,21,2,right,male,self,Friend,T.bmp,1,n,381
breaking,3,1,21,2,right,male,stranger,Self,S.bmp,0,m,923
breaking,3,1,21,2,right,male,stranger,stranger,C.bmp,1,m,665
breaking,3,1,21,2,right,male,friend,Friend,T.bmp,1,m,567
breaking,3,1,21,2,right,male,stranger,Friend,T.bmp,1,m,501
breaking,3,1,21,2,right,male,self,Self,S.bmp,1,m,675
breaking,3,1,21,2,right,male,self,Self,S.bmp,1,m,769
breaking,3,1,21,2,right,male,self,stranger,C.bmp,1,m,503
breaking,3,1,21,2,right,male,self,stranger,C.bmp,1,m,469
breaking,3,1,21,2,right,male,friend,Friend,T.bmp,1,m,421
breaking,3,1,21,2,right,male,friend,Friend,T.bmp,1,m,405
breaking,3,1,21,2,right,male,friend,stranger,C.bmp,1,n,731
breaking,3,1,21,2,right,male,stranger,Self,S.bmp,0,m,755
breaking,3,1,21,2,right,male,self,stranger,C.bmp,1,m,649
breaking,3,1,21,2,right,male,friend,stranger,C.bmp,1,n,561
breaking,3,1,21,2,right,male,stranger,stranger,C.bmp,1,m,511
breaking,3,1,21,2,right,male,stranger,Friend,T.bmp,1,m,469
breaking,3,1,21,2,right,male,self,Self,S.bmp,1,m,987
breaking,3,1,21,2,right,male,stranger,stranger,C.bmp,1,m,841
breaking,3,1,21,2,right,male,friend,Friend,T.bmp,1,m,479
breaking,3,1,21,2,right,male,self,Self,S.bmp,1,m,1097
breaking,3,1,21,2,right,male,self,stranger,C.bmp,1,m,803
breaking,3,1,21,2,right,male,friend,Self,S.bmp,1,m,865
breaking,3,1,21,2,right,male,stranger,Self,S.bmp,1,n,511
breaking,3,1,21,2,right,male,friend,stranger,C.bmp,1,n,949
breaking,3,1,21,2,right,male,self,Friend,T.bmp,1,n,395
breaking,3,1,21,2,right,male,stranger,stranger,C.bmp,1,m,729
breaking,3,1,21,2,right,male,friend,Self,S.bmp,1,m,847
breaking,3,1,21,2,right,male,self,stranger,C.bmp,1,m,665
breaking,3,1,21,2,right,male,self,Friend,T.bmp,1,n,467
breaking,3,1,21,2,right,male,stranger,Self,S.bmp,0,m,697
breaking,3,1,21,2,right,male,stranger,Friend,T.bmp,1,m,551
breaking,3,1,21,2,right,male,self,Self,S.bmp,1,m,581
breaking,3,1,21,2,right,male,stranger,Friend,T.bmp,1,m,443
breaking,3,1,21,2,right,male,friend,Self,S.bmp,1,m,673
breaking,3,1,21,2,right,male,self,Friend,T.bmp,1,n,455
breaking,3,1,21,2,right,male,stranger,Self,S.bmp,1,n,877
breaking,3,1,21,2,right,male,friend,stranger,C.bmp,1,n,755
breaking,3,1,21,2,right,male,friend,Self,S.bmp,1,m,585
breaking,3,1,21,2,right,male,self,Friend,T.bmp,1,n,767
breaking,3,1,21,2,right,male,stranger,Friend,T.bmp,1,m,431
breaking,3,1,21,2,right,male,stranger,Self,S.bmp,0,m,933
breaking,3,1,21,2,right,male,stranger,Self,S.bmp,0,,0
breaking,3,1,21,2,right,male,self,Self,S.bmp,1,m,627
breaking,3,1,21,2,right,male,self,Self,S.bmp,1,m,705
breaking,3,1,21,2,right,male,self,Self,S.bmp,1,m,711
breaking,3,1,21,2,right,male,friend,Friend,T.bmp,1,m,749
breaking,3,1,21,2,right,male,self,stranger,C.bmp,1,m,531
breaking,3,1,21,2,right,male,stranger,stranger,C.bmp,1,m,881
breaking,3,1,21,2,right,male,friend,stranger,C.bmp,1,n,503
breaking,3,1,21,2,right,male,stranger,stranger,C.bmp,1,m,925
breaking,3,1,21,2,right,male,stranger,stranger,C.bmp,1,m,723
breaking,3,1,21,2,right,male,friend,Self,S.bmp,0,,0
breaking,3,1,21,2,right,male,friend,Friend,T.bmp,1,m,503
breaking,3,1,21,2,right,male,stranger,Friend,T.bmp,1,m,509
breaking,3,1,21,2,right,male,friend,Friend,T.bmp,1,m,723
breaking,3,1,21,2,right,male,self,stranger,C.bmp,1,m,544
breaking,3,1,21,2,right,male,friend,Self,S.bmp,1,m,534
breaking,3,1,21,2,right,male,self,stranger,C.bmp,1,m,564
breaking,3,1,21,2,right,male,self,Friend,T.bmp,1,n,378
breaking,3,1,21,2,right,male,self,Friend,T.bmp,1,n,480
breaking,3,1,21,2,right,male,stranger,Friend,T.bmp,1,m,567
breaking,3,1,21,2,right,male,friend,stranger,C.bmp,1,n,589
breaking,3,1,21,2,right,male,stranger,Self,S.bmp,1,n,661
breaking,3,1,21,2,right,male,stranger,Self,S.bmp,1,n,457
breaking,3,1,21,2,right,male,self,Self,S.bmp,1,m,463
breaking,3,1,21,2,right,male,self,Friend,T.bmp,1,n,869
breaking,3,1,21,2,right,male,stranger,Friend,T.bmp,1,m,491
breaking,3,1,21,2,right,male,stranger,Self,S.bmp,1,n,1035
breaking,3,1,21,2,right,male,stranger,stranger,C.bmp,1,m,579
breaking,3,1,21,2,right,male,stranger,stranger,C.bmp,1,m,763
breaking,3,1,21,2,right,male,friend,Friend,T.bmp,1,m,451
breaking,3,1,21,2,right,male,friend,Friend,T.bmp,1,m,361
breaking,3,1,21,2,right,male,self,Self,S.bmp,1,m,527
breaking,3,1,21,2,right,male,stranger,Friend,T.bmp,1,m,453
breaking,3,1,21,2,right,male,friend,stranger,C.bmp,1,n,419
breaking,3,1,21,2,right,male,self,Self,S.bmp,1,m,585
breaking,3,1,21,2,right,male,stranger,stranger,C.bmp,1,m,783
breaking,3,1,21,2,right,male,self,stranger,C.bmp,1,m,693
breaking,3,1,21,2,right,male,self,stranger,C.bmp,1,m,451
breaking,3,1,21,2,right,male,friend,Self,S.bmp,1,m,705
breaking,3,1,21,2,right,male,friend,stranger,C.bmp,1,n,615
breaking,3,1,21,2,right,male,friend,Self,S.bmp,1,m,492
breaking,3,1,21,2,right,male,self,stranger,C.bmp,0,n,690
breaking,3,1,21,2,right,male,self,Friend,T.bmp,1,n,496
breaking,3,1,21,2,right,male,friend,Self,S.bmp,1,m,574
breaking,3,1,21,2,right,male,friend,Friend,T.bmp,1,m,556
breaking,3,1,21,2,right,male,friend,stranger,C.bmp,1,n,530
breaking,3,1,21,2,right,male,self,Friend,T.bmp,1,n,384
breaking,3,1,21,2,right,male,stranger,Friend,T.bmp,1,m,575
breaking,3,1,21,2,right,male,friend,Friend,T.bmp,1,m,385
breaking,3,1,21,2,right,male,self,Self,S.bmp,1,m,569
breaking,3,1,21,2,right,male,stranger,Friend,T.bmp,1,m,503
breaking,3,1,21,2,right,male,friend,Self,S.bmp,1,m,669
breaking,3,1,21,2,right,male,stranger,Friend,T.bmp,1,m,451
breaking,3,1,21,2,right,male,friend,stranger,C.bmp,1,n,441
breaking,3,1,21,2,right,male,stranger,Self,S.bmp,1,n,535
breaking,3,1,21,2,right,male,friend,Self,S.bmp,1,m,757
breaking,3,1,21,2,right,male,self,Self,S.bmp,1,m,571
breaking,3,1,21,2,right,male,self,stranger,C.bmp,1,m,473
breaking,3,1,21,2,right,male,self,Friend,T.bmp,1,n,407
breaking,3,1,21,2,right,male,stranger,stranger,C.bmp,1,m,685
breaking,3,1,21,2,right,male,friend,Self,S.bmp,1,m,691
breaking,3,1,21,2,right,male,friend,Friend,T.bmp,1,m,451
breaking,3,1,21,2,right,male,stranger,stranger,C.bmp,1,m,662
breaking,3,1,21,2,right,male,self,Self,S.bmp,1,m,468
breaking,3,1,21,2,right,male,stranger,Friend,T.bmp,1,m,498
breaking,3,1,21,2,right,male,stranger,stranger,C.bmp,1,m,758
breaking,3,1,21,2,right,male,friend,stranger,C.bmp,1,n,351
breaking,3,1,21,2,right,male,self,stranger,C.bmp,0,,0
breaking,3,1,21,2,right,male,self,Friend,T.bmp,1,n,496
breaking,3,1,21,2,right,male,self,stranger,C.bmp,0,n,465
breaking,3,1,21,2,right,male,stranger,Self,S.bmp,0,,0
breaking,3,1,21,2,right,male,self,Friend,T.bmp,1,n,485
breaking,3,1,21,2,right,male,stranger,Self,S.bmp,0,m,771
breaking,3,1,21,2,right,male,friend,Friend,T.bmp,1,m,809
breaking,3,1,21,2,right,male,friend,stranger,C.bmp,0,m,911
breaking,3,1,21,2,right,male,friend,Self,S.bmp,1,m,702
breaking,3,1,21,2,right,male,friend,Friend,T.bmp,1,m,531
breaking,3,1,21,2,right,male,friend,Self,S.bmp,1,m,761
breaking,3,1,21,2,right,male,stranger,Self,S.bmp,1,n,471
breaking,3,1,21,2,right,male,self,stranger,C.bmp,1,m,677
breaking,3,1,21,2,right,male,self,Friend,T.bmp,1,n,515
breaking,3,1,21,2,right,male,stranger,Friend,T.bmp,1,m,502
breaking,3,1,21,2,right,male,self,stranger,C.bmp,1,m,559
breaking,3,1,21,2,right,male,friend,stranger,C.bmp,1,n,597
breaking,3,1,21,2,right,male,friend,stranger,C.bmp,1,n,414
breaking,3,1,21,2,right,male,stranger,stranger,C.bmp,1,m,601
breaking,3,1,21,2,right,male,friend,Self,S.bmp,1,m,622
breaking,3,1,21,2,right,male,friend,Friend,T.bmp,1,m,452
breaking,3,1,21,2,right,male,self,stranger,C.bmp,1,m,626
breaking,3,1,21,2,right,male,stranger,stranger,C.bmp,1,m,632
breaking,3,1,21,2,right,male,self,Self,S.bmp,0,n,462
breaking,3,1,21,2,right,male,self,Friend,T.bmp,1,n,404
breaking,3,1,21,2,right,male,stranger,Self,S.bmp,0,m,730
breaking,3,1,21,2,right,male,stranger,stranger,C.bmp,1,m,625
breaking,3,1,21,2,right,male,stranger,Self,S.bmp,1,n,784
breaking,3,1,21,2,right,male,self,Friend,T.bmp,1,n,397
breaking,3,1,21,2,right,male,friend,Friend,T.bmp,1,m,411
breaking,3,1,21,2,right,male,self,Self,S.bmp,1,m,545
breaking,3,1,21,2,right,male,self,Self,S.bmp,1,m,671
breaking,3,1,21,2,right,male,stranger,Friend,T.bmp,1,m,861
breaking,3,1,21,2,right,male,stranger,Friend,T.bmp,1,m,507
breaking,3,1,21,2,right,male,friend,stranger,C.bmp,0,m,729
breaking,3,1,21,2,right,male,self,Friend,T.bmp,1,n,457
breaking,3,1,21,2,right,male,friend,stranger,C.bmp,0,m,751
breaking,3,1,21,2,right,male,stranger,Friend,T.bmp,1,m,679
breaking,3,1,21,2,right,male,self,Friend,T.bmp,1,n,557
breaking,3,1,21,2,right,male,friend,Friend,T.bmp,1,m,459
breaking,3,1,21,2,right,male,stranger,Self,S.bmp,1,n,729
breaking,3,1,21,2,right,male,stranger,stranger,C.bmp,1,m,507
breaking,3,1,21,2,right,male,friend,Friend,T.bmp,1,m,471
breaking,3,1,21,2,right,male,self,Self,S.bmp,1,m,859
breaking,3,1,21,2,right,male,stranger,Self,S.bmp,1,n,664
breaking,3,1,21,2,right,male,self,stranger,C.bmp,1,m,486
breaking,3,1,21,2,right,male,stranger,stranger,C.bmp,1,m,692
breaking,3,1,21,2,right,male,friend,Self,S.bmp,0,,0
breaking,3,1,21,2,right,male,friend,Self,S.bmp,1,m,904
breaking,3,1,21,2,right,male,friend,stranger,C.bmp,1,n,982
breaking,3,1,21,2,right,male,stranger,Self,S.bmp,0,m,548
breaking,3,1,21,2,right,male,friend,Friend,T.bmp,1,m,506
breaking,3,1,21,2,right,male,friend,Self,S.bmp,1,m,944
breaking,3,1,21,2,right,male,self,Self,S.bmp,0,n,510
breaking,3,1,21,2,right,male,stranger,Friend,T.bmp,1,m,869
breaking,3,1,21,2,right,male,self,stranger,C.bmp,1,m,779
breaking,3,1,21,2,right,male,stranger,Friend,T.bmp,1,m,465
breaking,3,1,21,2,right,male,self,Self,S.bmp,1,m,495
breaking,3,1,21,2,right,male,friend,stranger,C.bmp,0,,0
breaking,3,1,21,2,right,male,self,stranger,C.bmp,1,m,475
breaking,3,1,21,2,right,male,stranger,stranger,C.bmp,1,m,489
breaking,3,1,21,2,right,male,self,Friend,T.bmp,1,n,439
breaking,3,1,21,2,right,male,stranger,stranger,C.bmp,1,m,913
breaking,3,1,21,2,right,male,friend,Self,S.bmp,1,m,999
breaking,3,1,21,2,right,male,stranger,stranger,C.bmp,1,m,661
breaking,3,1,21,2,right,male,self,stranger,C.bmp,1,m,747
breaking,3,1,21,2,right,male,friend,Friend,T.bmp,1,m,520
breaking,3,1,21,2,right,male,friend,Self,S.bmp,1,m,790
breaking,3,1,21,2,right,male,stranger,Self,S.bmp,1,n,876
breaking,3,1,21,2,right,male,friend,Friend,T.bmp,1,m,490
breaking,3,1,21,2,right,male,stranger,Friend,T.bmp,1,m,922
breaking,3,1,21,2,right,male,stranger,Friend,T.bmp,1,m,686
breaking,3,1,21,2,right,male,self,Self,S.bmp,1,m,572
breaking,3,1,21,2,right,male,self,Self,S.bmp,1,m,547
breaking,3,1,21,2,right,male,friend,stranger,C.bmp,1,n,985
breaking,3,1,21,2,right,male,self,stranger,C.bmp,1,m,511
breaking,3,1,21,2,right,male,self,Friend,T.bmp,1,n,437
breaking,3,1,21,2,right,male,stranger,Friend,T.bmp,1,m,427
breaking,3,1,21,2,right,male,self,Self,S.bmp,1,m,665
breaking,3,1,21,2,right,male,friend,Friend,T.bmp,1,m,463
breaking,3,1,21,2,right,male,friend,stranger,C.bmp,1,n,461
breaking,3,1,21,2,right,male,self,Friend,T.bmp,1,n,413
breaking,3,1,21,2,right,male,stranger,Self,S.bmp,1,n,549
breaking,3,1,21,2,right,male,friend,stranger,C.bmp,1,n,669
breaking,3,1,21,2,right,male,stranger,stranger,C.bmp,1,m,747
breaking,3,1,21,2,right,male,stranger,Self,S.bmp,1,n,691
breaking,3,1,21,2,right,male,self,Friend,T.bmp,1,n,425
breaking,3,1,21,2,right,male,friend,Self,S.bmp,1,m,1039
breaking,3,1,21,2,right,male,self,stranger,C.bmp,1,m,605
breaking,3,1,21,2,right,male,friend,Friend,T.bmp,1,m,1035
breaking,3,1,21,2,right,male,self,Self,S.bmp,1,m,553
breaking,3,1,21,2,right,male,friend,Friend,T.bmp,1,m,462
breaking,3,1,21,2,right,male,friend,Self,S.bmp,1,m,476
breaking,3,1,21,2,right,male,friend,stranger,C.bmp,1,n,426
breaking,3,1,21,2,right,male,self,Friend,T.bmp,1,n,411
breaking,3,1,21,2,right,male,self,Self,S.bmp,1,m,558
breaking,3,1,21,2,right,male,self,stranger,C.bmp,1,m,479
breaking,3,1,21,2,right,male,friend,Self,S.bmp,1,m,570
breaking,3,1,21,2,right,male,stranger,Friend,T.bmp,1,m,504
breaking,3,1,21,2,right,male,self,stranger,C.bmp,1,m,686
breaking,3,1,21,2,right,male,self,Friend,T.bmp,1,n,420
breaking,3,1,21,2,right,male,stranger,stranger,C.bmp,1,m,875
breaking,3,1,21,2,right,male,stranger,Friend,T.bmp,1,m,465
breaking,3,1,21,2,right,male,self,Friend,T.bmp,1,n,703
breaking,3,1,21,2,right,male,stranger,Self,S.bmp,1,n,893
breaking,3,1,21,2,right,male,stranger,stranger,C.bmp,1,m,819
breaking,3,1,21,2,right,male,stranger,Friend,T.bmp,1,m,481
breaking,3,1,21,2,right,male,friend,stranger,C.bmp,1,n,623
breaking,3,1,21,2,right,male,friend,Friend,T.bmp,1,m,477
breaking,3,1,21,2,right,male,stranger,stranger,C.bmp,1,m,973
breaking,3,1,21,2,right,male,friend,Self,S.bmp,1,m,797
breaking,3,1,21,2,right,male,friend,stranger,C.bmp,1,n,661
breaking,3,1,21,2,right,male,self,stranger,C.bmp,1,m,605
breaking,3,1,21,2,right,male,self,Self,S.bmp,1,m,533
breaking,3,1,21,2,right,male,stranger,Self,S.bmp,1,n,835
breaking,3,1,21,2,right,male,stranger,Self,S.bmp,1,n,881
breaking,3,1,21,2,right,male,stranger,Self,S.bmp,1,n,479
breaking,3,1,21,2,right,male,self,stranger,C.bmp,1,m,628
breaking,3,1,21,2,right,male,stranger,Friend,T.bmp,1,m,474
breaking,3,1,21,2,right,male,stranger,Friend,T.bmp,1,m,776
breaking,3,1,21,2,right,male,self,Self,S.bmp,1,m,558
breaking,3,1,21,2,right,male,stranger,stranger,C.bmp,1,m,556
breaking,3,1,21,2,right,male,stranger,Self,S.bmp,1,n,872
breaking,3,1,21,2,right,male,self,stranger,C.bmp,1,m,664
breaking,3,1,21,2,right,male,stranger,stranger,C.bmp,1,m,1046
breaking,3,1,21,2,right,male,friend,Friend,T.bmp,1,m,468
breaking,3,1,21,2,right,male,friend,Self,S.bmp,1,m,755
breaking,3,1,21,2,right,male,friend,Friend,T.bmp,1,m,472
breaking,3,1,21,2,right,male,self,Friend,T.bmp,1,n,422
breaking,3,1,21,2,right,male,friend,stranger,C.bmp,1,n,1028
breaking,3,1,21,2,right,male,self,stranger,C.bmp,1,m,507
breaking,3,1,21,2,right,male,self,Friend,T.bmp,1,n,425
breaking,3,1,21,2,right,male,self,Friend,T.bmp,1,n,463
breaking,3,1,21,2,right,male,self,Self,S.bmp,1,m,597
breaking,3,1,21,2,right,male,stranger,stranger,C.bmp,1,m,755
breaking,3,1,21,2,right,male,stranger,Friend,T.bmp,1,m,537
breaking,3,1,21,2,right,male,friend,Self,S.bmp,1,m,1007
breaking,3,1,21,2,right,male,self,Self,S.bmp,1,m,573
breaking,3,1,21,2,right,male,friend,Self,S.bmp,1,m,741
breaking,3,1,21,2,right,male,stranger,Self,S.bmp,1,n,517
breaking,3,1,21,2,right,male,friend,stranger,C.bmp,1,n,763
breaking,3,1,21,2,right,male,friend,stranger,C.bmp,1,n,544
breaking,3,1,21,2,right,male,friend,Friend,T.bmp,1,m,430
breaking,3,1,21,2,right,male,self,Self,S.bmp,1,m,656
breaking,3,1,21,2,right,male,self,Self,S.bmp,1,m,478
breaking,3,1,21,2,right,male,stranger,stranger,C.bmp,1,m,876
breaking,3,1,21,2,right,male,friend,Friend,T.bmp,1,m,402
breaking,3,1,21,2,right,male,stranger,Self,S.bmp,1,n,1016
breaking,3,1,21,2,right,male,friend,Self,S.bmp,1,m,742
breaking,3,1,21,2,right,male,friend,Friend,T.bmp,1,m,460
breaking,3,1,21,2,right,male,friend,Friend,T.bmp,1,m,738
breaking,3,1,21,2,right,male,self,stranger,C.bmp,1,m,521
breaking,3,1,21,2,right,male,stranger,stranger,C.bmp,1,m,543
breaking,3,1,21,2,right,male,friend,stranger,C.bmp,1,n,349
breaking,3,1,21,2,right,male,friend,Self,S.bmp,1,m,819
breaking,3,1,21,2,right,male,friend,stranger,C.bmp,1,n,601
breaking,3,1,21,2,right,male,self,Self,S.bmp,1,m,695
breaking,3,1,21,2,right,male,friend,stranger,C.bmp,1,n,617
breaking,3,1,21,2,right,male,stranger,Self,S.bmp,0,m,733
breaking,3,1,21,2,right,male,self,Friend,T.bmp,1,n,421
breaking,3,1,21,2,right,male,stranger,Friend,T.bmp,1,m,485
breaking,3,1,21,2,right,male,self,Friend,T.bmp,1,n,522
breaking,3,1,21,2,right,male,self,stranger,C.bmp,1,m,642
breaking,3,1,21,2,right,male,stranger,Friend,T.bmp,1,m,504
breaking,3,1,21,2,right,male,stranger,Friend,T.bmp,1,m,502
breaking,3,1,21,2,right,male,stranger,stranger,C.bmp,1,m,556
breaking,3,1,21,2,right,male,stranger,Self,S.bmp,1,n,482
breaking,3,1,21,2,right,male,friend,Self,S.bmp,1,m,824
breaking,3,1,21,2,right,male,self,stranger,C.bmp,1,m,558
breaking,3,1,21,2,right,male,self,Friend,T.bmp,1,n,444
breaking,3,1,21,2,right,male,friend,Self,S.bmp,1,m,530
breaking,3,1,21,2,right,male,friend,stranger,C.bmp,1,n,536
breaking,3,1,21,2,right,male,self,Friend,T.bmp,1,n,438
breaking,3,1,21,2,right,male,friend,Friend,T.bmp,1,m,484
breaking,3,1,21,2,right,male,self,Friend,T.bmp,1,n,450
breaking,3,1,21,2,right,male,self,stranger,C.bmp,1,m,408
breaking,3,1,21,2,right,male,stranger,Friend,T.bmp,1,m,462
breaking,3,1,21,2,right,male,self,Self,S.bmp,1,m,524
breaking,3,1,21,2,right,male,friend,stranger,C.bmp,1,n,458
breaking,3,1,21,2,right,male,friend,Friend,T.bmp,1,m,817
breaking,3,1,21,2,right,male,self,stranger,C.bmp,1,m,463
breaking,3,1,21,2,right,male,friend,stranger,C.bmp,1,n,669
breaking,3,1,21,2,right,male,self,stranger,C.bmp,1,m,451
breaking,3,1,21,2,right,male,stranger,Self,S.bmp,1,n,849
breaking,3,1,21,2,right,male,stranger,stranger,C.bmp,1,m,519
breaking,3,1,21,2,right,male,self,Self,S.bmp,1,m,533
breaking,3,1,21,2,right,male,self,Friend,T.bmp,1,n,379
breaking,3,1,21,2,right,male,stranger,Self,S.bmp,1,n,913
breaking,3,1,21,2,right,male,stranger,Friend,T.bmp,1,m,454
breaking,3,1,21,2,right,male,friend,Self,S.bmp,1,m,972
breaking,3,1,21,2,right,male,friend,Self,S.bmp,1,m,506
breaking,3,1,21,2,right,male,self,Self,S.bmp,0,,0
breaking,3,1,21,2,right,male,stranger,stranger,C.bmp,1,m,910
breaking,3,1,21,2,right,male,friend,Friend,T.bmp,1,m,508
breaking,3,1,21,2,right,male,stranger,Self,S.bmp,1,n,818
breaking,3,1,21,2,right,male,stranger,Friend,T.bmp,1,m,624
breaking,3,1,21,2,right,male,stranger,stranger,C.bmp,1,m,470
breaking,3,1,21,2,right,male,stranger,stranger,C.bmp,1,m,428
breaking,3,1,21,2,right,male,stranger,Friend,T.bmp,1,m,474
breaking,3,1,21,2,right,male,self,stranger,C.bmp,1,m,552
breaking,3,1,21,2,right,male,stranger,stranger,C.bmp,1,m,606
breaking,3,1,21,2,right,male,self,stranger,C.bmp,1,m,452
breaking,3,1,21,2,right,male,stranger,Self,S.bmp,1,n,586
breaking,3,1,21,2,right,male,self,Self,S.bmp,1,m,592
breaking,3,1,21,2,right,male,stranger,Friend,T.bmp,1,m,478
breaking,3,1,21,2,right,male,stranger,Self,S.bmp,1,n,772
breaking,3,1,21,2,right,male,friend,stranger,C.bmp,1,n,754
breaking,3,1,21,2,right,male,self,Friend,T.bmp,1,n,377
breaking,3,1,21,2,right,male,self,Self,S.bmp,1,m,490
breaking,3,1,21,2,right,male,friend,Friend,T.bmp,1,m,381
breaking,3,1,21,2,right,male,friend,stranger,C.bmp,1,n,435
breaking,3,1,21,2,right,male,stranger,Self,S.bmp,1,n,937
breaking,3,1,21,2,right,male,friend,Friend,T.bmp,1,m,439
breaking,3,1,21,2,right,male,self,Friend,T.bmp,1,n,493
breaking,3,1,21,2,right,male,self,Self,S.bmp,1,m,602
breaking,3,1,21,2,right,male,friend,Self,S.bmp,0,n,762
breaking,3,1,21,2,right,male,friend,Self,S.bmp,1,m,842
breaking,3,1,21,2,right,male,friend,stranger,C.bmp,1,n,570
breaking,3,1,21,2,right,male,self,stranger,C.bmp,1,m,584
breaking,3,1,21,2,right,male,stranger,stranger,C.bmp,1,m,822
breaking,3,1,21,2,right,male,friend,Self,S.bmp,1,m,844
breaking,3,1,21,2,right,male,stranger,Friend,T.bmp,1,m,514
breaking,3,1,21,2,right,male,friend,Friend,T.bmp,1,m,448
breaking,3,1,21,2,right,male,self,Friend,T.bmp,1,n,446
breaking,3,1,21,2,right,male,stranger,Self,S.bmp,1,n,800
breaking,3,1,21,2,right,male,self,Friend,T.bmp,1,n,414
breaking,3,1,21,2,right,male,friend,Friend,T.bmp,1,m,404
breaking,3,1,21,2,right,male,self,Friend,T.bmp,1,n,466
breaking,3,1,21,2,right,male,friend,Self,S.bmp,1,m,945
breaking,3,1,21,2,right,male,stranger,Friend,T.bmp,1,m,527
breaking,3,1,21,2,right,male,self,Self,S.bmp,1,m,637
breaking,3,1,21,2,right,male,self,stranger,C.bmp,1,m,739
breaking,3,1,21,2,right,male,stranger,Self,S.bmp,1,n,905
breaking,3,1,21,2,right,male,self,stranger,C.bmp,1,m,634
breaking,3,1,21,2,right,male,friend,Self,S.bmp,1,m,833
breaking,3,1,21,2,right,male,stranger,stranger,C.bmp,1,m,628
breaking,3,1,21,2,right,male,self,Self,S.bmp,1,m,546
breaking,3,1,21,2,right,male,self,stranger,C.bmp,1,m,484
breaking,3,1,21,2,right,male,friend,stranger,C.bmp,1,n,744
breaking,3,1,21,2,right,male,friend,Friend,T.bmp,1,m,494
breaking,3,1,21,2,right,male,self,Self,S.bmp,1,m,868
breaking,3,1,21,2,right,male,friend,stranger,C.bmp,1,n,562
breaking,3,1,21,2,right,male,stranger,Self,S.bmp,1,n,888
breaking,3,1,21,2,right,male,friend,stranger,C.bmp,1,n,430
breaking,3,1,21,2,right,male,stranger,Friend,T.bmp,1,m,460
breaking,3,1,21,2,right,male,stranger,Friend,T.bmp,1,m,522
breaking,3,1,21,2,right,male,stranger,stranger,C.bmp,1,m,522
breaking,3,1,21,2,right,male,stranger,stranger,C.bmp,1,m,862
breaking,3,1,21,2,right,male,friend,Self,S.bmp,1,m,854
breaking,3,1,21,2,right,male,friend,Friend,T.bmp,1,m,482
breaking,3,1,21,2,right,male,self,Friend,T.bmp,1,n,464
breaking,3,1,21,2,right,male,self,stranger,C.bmp,1,m,830
breaking,3,1,21,2,right,male,friend,stranger,C.bmp,1,n,556
breaking,3,1,21,2,right,male,friend,Self,S.bmp,1,m,442
breaking,3,1,21,2,right,male,friend,Self,S.bmp,1,m,472
breaking,3,1,21,2,right,male,stranger,Friend,T.bmp,1,m,462
breaking,3,1,21,2,right,male,self,Self,S.bmp,1,m,613
breaking,3,1,21,2,right,male,self,Friend,T.bmp,1,n,491
breaking,3,1,21,2,right,male,self,stranger,C.bmp,1,m,441
breaking,3,1,21,2,right,male,stranger,Friend,T.bmp,1,m,639
breaking,3,1,21,2,right,male,self,Friend,T.bmp,1,n,372
breaking,3,1,21,2,right,male,friend,Friend,T.bmp,1,m,498
breaking,3,1,21,2,right,male,stranger,stranger,C.bmp,1,m,616
breaking,3,1,21,2,right,male,friend,stranger,C.bmp,1,n,400
breaking,3,1,21,2,right,male,stranger,Self,S.bmp,1,n,624
breaking,3,1,21,2,right,male,stranger,Self,S.bmp,1,n,430
breaking,3,1,21,2,right,male,stranger,Friend,T.bmp,1,m,454
breaking,3,1,21,2,right,male,self,Friend,T.bmp,1,n,516
breaking,3,1,21,2,right,male,self,stranger,C.bmp,1,m,546
breaking,3,1,21,2,right,male,self,Self,S.bmp,1,m,487
breaking,3,1,21,2,right,male,self,Self,S.bmp,1,m,576
breaking,3,1,21,2,right,male,friend,Self,S.bmp,1,m,542
breaking,3,1,21,2,right,male,stranger,stranger,C.bmp,1,m,556
breaking,3,1,21,2,right,male,stranger,Self,S.bmp,1,n,626
breaking,3,1,21,2,right,male,friend,Friend,T.bmp,1,m,408
breaking,3,1,21,2,right,male,friend,stranger,C.bmp,1,n,435
breaking,3,1,21,2,right,male,friend,Friend,T.bmp,1,m,428
breaking,3,1,21,2,right,male,stranger,stranger,C.bmp,1,m,762
breaking,3,1,21,2,right,male,stranger,Self,S.bmp,1,n,812
breaking,3,1,21,2,right,male,friend,stranger,C.bmp,1,n,414
breaking,3,1,21,2,right,male,self,stranger,C.bmp,1,m,524
breaking,3,1,21,2,right,male,stranger,stranger,C.bmp,1,m,834
breaking,3,1,21,2,right,male,stranger,Self,S.bmp,0,,0
breaking,3,1,21,2,right,male,friend,Self,S.bmp,1,m,702
breaking,3,1,21,2,right,male,self,Self,S.bmp,1,m,540
breaking,3,1,21,2,right,male,friend,stranger,C.bmp,1,n,546
breaking,3,1,21,2,right,male,stranger,Friend,T.bmp,1,m,544
breaking,3,1,21,2,right,male,stranger,stranger,C.bmp,1,m,750
breaking,3,1,21,2,right,male,friend,Friend,T.bmp,1,m,428
breaking,3,1,21,2,right,male,stranger,Friend,T.bmp,1,m,538
breaking,3,1,21,2,right,male,stranger,Friend,T.bmp,1,m,528
breaking,3,1,21,2,right,male,self,Friend,T.bmp,1,n,398
breaking,3,1,21,2,right,male,self,Friend,T.bmp,1,n,398
breaking,3,1,21,2,right,male,friend,stranger,C.bmp,1,n,524
breaking,3,1,21,2,right,male,friend,Self,S.bmp,1,m,476
breaking,3,1,21,2,right,male,self,stranger,C.bmp,1,m,530
breaking,3,1,21,2,right,male,friend,Self,S.bmp,1,m,634
breaking,3,1,21,2,right,male,self,Friend,T.bmp,1,n,784
breaking,3,1,21,2,right,male,friend,Friend,T.bmp,1,m,454
breaking,3,1,21,2,right,male,self,Self,S.bmp,1,m,516
breaking,3,1,21,2,right,male,stranger,Self,S.bmp,1,n,693
breaking,3,1,21,2,right,male,self,Self,S.bmp,1,m,450
breaking,3,1,21,2,right,male,self,stranger,C.bmp,1,m,462
breaking,3,1,21,2,right,male,stranger,stranger,C.bmp,1,m,516
breaking,3,1,21,2,right,male,friend,Friend,T.bmp,1,m,426
breaking,3,1,21,2,right,male,friend,Self,S.bmp,1,m,803
breaking,3,1,21,2,right,male,stranger,stranger,C.bmp,1,m,634
breaking,3,1,21,2,right,male,friend,stranger,C.bmp,1,n,736
breaking,3,1,21,2,right,male,stranger,Friend,T.bmp,1,m,462
breaking,3,1,21,2,right,male,self,Self,S.bmp,1,m,436
breaking,3,1,21,2,right,male,self,stranger,C.bmp,1,m,418
breaking,3,1,21,2,right,male,stranger,Self,S.bmp,1,n,840
breaking,3,1,21,2,right,male,stranger,stranger,C.bmp,1,m,630
breaking,3,1,21,2,right,male,friend,Self,S.bmp,0,n,724
breaking,3,1,21,2,right,male,friend,Friend,T.bmp,1,m,466
breaking,3,1,21,2,right,male,stranger,Friend,T.bmp,1,m,503
breaking,3,1,21,2,right,male,friend,Friend,T.bmp,1,m,530
breaking,3,1,21,2,right,male,self,Friend,T.bmp,1,n,352
breaking,3,1,21,2,right,male,self,Self,S.bmp,1,m,414
breaking,3,1,21,2,right,male,stranger,Friend,T.bmp,1,m,444
breaking,3,1,21,2,right,male,friend,stranger,C.bmp,1,n,498
breaking,3,1,21,2,right,male,friend,stranger,C.bmp,1,n,882
breaking,3,1,21,2,right,male,self,stranger,C.bmp,1,m,446
breaking,3,1,21,2,right,male,self,Friend,T.bmp,1,n,492
breaking,3,1,21,2,right,male,friend,Friend,T.bmp,1,m,378
breaking,3,1,21,2,right,male,stranger,Self,S.bmp,0,m,852
breaking,3,1,21,2,right,male,self,stranger,C.bmp,1,m,491
breaking,3,1,21,2,right,male,self,Friend,T.bmp,1,n,564
breaking,3,1,21,2,right,male,stranger,stranger,C.bmp,0,,0
breaking,3,1,21,2,right,male,friend,Self,S.bmp,1,m,888
breaking,3,1,21,2,right,male,self,Self,S.bmp,1,m,597
breaking,3,1,21,2,right,male,stranger,Self,S.bmp,1,n,755
breaking,3,1,21,2,right,male,friend,Self,S.bmp,1,m,497
breaking,3,1,21,2,right,male,friend,Self,S.bmp,0,n,687
breaking,3,1,21,2,right,male,self,stranger,C.bmp,1,m,1022
breaking,3,1,21,2,right,male,friend,stranger,C.bmp,1,n,692
breaking,3,1,21,2,right,male,friend,Self,S.bmp,1,m,722
breaking,3,1,21,2,right,male,self,stranger,C.bmp,1,m,1072
breaking,3,1,21,2,right,male,self,Friend,T.bmp,1,n,510
breaking,3,1,21,2,right,male,stranger,stranger,C.bmp,1,m,452
breaking,3,1,21,2,right,male,self,Self,S.bmp,1,m,506
breaking,3,1,21,2,right,male,stranger,stranger,C.bmp,1,m,824
breaking,3,1,21,2,right,male,friend,Friend,T.bmp,1,m,430
breaking,3,1,21,2,right,male,friend,Friend,T.bmp,1,m,414
breaking,3,1,21,2,right,male,self,Self,S.bmp,1,m,470
breaking,3,1,21,2,right,male,stranger,stranger,C.bmp,1,m,678
breaking,3,1,21,2,right,male,stranger,Friend,T.bmp,1,m,420
breaking,3,1,21,2,right,male,stranger,Self,S.bmp,1,n,626
breaking,3,1,21,2,right,male,stranger,Friend,T.bmp,1,m,440
breaking,3,1,21,2,right,male,friend,stranger,C.bmp,1,n,694
breaking,3,1,21,2,right,male,self,Friend,T.bmp,1,n,484
breaking,3,1,21,2,right,male,stranger,Self,S.bmp,1,n,430
breaking,3,1,21,2,right,male,stranger,Self,S.bmp,1,n,696
breaking,3,1,21,2,right,male,friend,Friend,T.bmp,1,m,366
breaking,3,1,21,2,right,male,friend,stranger,C.bmp,0,m,756
breaking,3,1,21,2,right,male,stranger,Friend,T.bmp,1,m,433
breaking,3,1,21,2,right,male,self,Friend,T.bmp,1,n,423
breaking,3,1,21,2,right,male,self,stranger,C.bmp,1,m,621
breaking,3,1,21,2,right,male,self,Self,S.bmp,1,m,603
breaking,3,1,21,2,right,male,friend,stranger,C.bmp,1,n,665
breaking,3,1,21,2,right,male,self,Friend,T.bmp,1,n,455
breaking,3,1,21,2,right,male,stranger,Self,S.bmp,1,n,973
breaking,3,1,21,2,right,male,stranger,stranger,C.bmp,1,m,523
breaking,3,1,21,2,right,male,self,stranger,C.bmp,1,m,498
breaking,3,1,21,2,right,male,self,Friend,T.bmp,1,n,480
breaking,3,1,21,2,right,male,stranger,Self,S.bmp,1,n,846
breaking,3,1,21,2,right,male,stranger,stranger,C.bmp,1,m,508
breaking,3,1,21,2,right,male,friend,Friend,T.bmp,1,m,426
breaking,3,1,21,2,right,male,friend,Self,S.bmp,1,m,744
breaking,3,1,21,2,right,male,friend,stranger,C.bmp,1,n,494
breaking,3,1,21,2,right,male,self,Friend,T.bmp,1,n,372
breaking,3,1,21,2,right,male,self,stranger,C.bmp,1,m,812
breaking,3,1,21,2,right,male,friend,Friend,T.bmp,1,m,460
breaking,3,1,21,2,right,male,friend,Self,S.bmp,1,m,564
breaking,3,1,21,2,right,male,self,Self,S.bmp,1,m,418
breaking,3,1,21,2,right,male,stranger,stranger,C.bmp,1,m,506
breaking,3,1,21,2,right,male,self,Self,S.bmp,1,m,544
breaking,3,1,21,2,right,male,stranger,Friend,T.bmp,1,m,654
breaking,3,1,21,2,right,male,friend,Self,S.bmp,1,m,724
breaking,3,1,21,2,right,male,self,Self,S.bmp,1,m,466
breaking,3,1,21,2,right,male,stranger,Self,S.bmp,1,n,648
breaking,3,1,21,2,right,male,self,stranger,C.bmp,1,m,501
breaking,3,1,21,2,right,male,friend,stranger,C.bmp,1,n,603
breaking,3,1,21,2,right,male,stranger,Friend,T.bmp,1,m,481
breaking,3,1,21,2,right,male,stranger,Friend,T.bmp,1,m,455
breaking,3,1,21,2,right,male,friend,Friend,T.bmp,1,m,453
breaking,3,1,21,2,right,male,stranger,stranger,C.bmp,1,m,720
breaking,3,1,21,2,right,male,friend,stranger,C.bmp,1,n,662
breaking,3,1,21,2,right,male,stranger,Friend,T.bmp,1,m,668
breaking,3,1,21,2,right,male,stranger,Self,S.bmp,1,n,442
breaking,3,1,21,2,right,male,stranger,Friend,T.bmp,1,m,440
breaking,3,1,21,2,right,male,friend,Friend,T.bmp,1,m,598
breaking,3,1,21,2,right,male,self,Friend,T.bmp,1,n,710
breaking,3,1,21,2,right,male,stranger,Self,S.bmp,1,n,580
breaking,3,1,21,2,right,male,self,stranger,C.bmp,1,m,460
breaking,3,1,21,2,right,male,friend,Friend,T.bmp,1,m,674
breaking,3,1,21,2,right,male,self,Self,S.bmp,0,,0
breaking,3,1,21,2,right,male,self,stranger,C.bmp,1,m,534
breaking,3,1,21,2,right,male,self,stranger,C.bmp,1,m,724
breaking,3,1,21,2,right,male,friend,Self,S.bmp,1,m,858
breaking,3,1,21,2,right,male,friend,Friend,T.bmp,1,m,456
breaking,3,1,21,2,right,male,self,Friend,T.bmp,1,n,366
breaking,3,1,21,2,right,male,friend,Self,S.bmp,1,m,563
breaking,3,1,21,2,right,male,friend,stranger,C.bmp,1,n,665
breaking,3,1,21,2,right,male,self,Self,S.bmp,1,m,559
breaking,3,1,21,2,right,male,friend,Self,S.bmp,1,m,547
breaking,3,1,21,2,right,male,friend,stranger,C.bmp,1,n,531
breaking,3,1,21,2,right,male,stranger,Friend,T.bmp,1,m,865
breaking,3,1,21,2,right,male,stranger,Self,S.bmp,1,n,634
breaking,3,1,21,2,right,male,self,Self,S.bmp,1,m,1014
breaking,3,1,21,2,right,male,stranger,stranger,C.bmp,1,m,811
breaking,3,1,21,2,right,male,stranger,stranger,C.bmp,1,m,657
breaking,3,1,21,2,right,male,self,Friend,T.bmp,1,n,495
breaking,3,1,21,2,right,male,stranger,stranger,C.bmp,1,m,774
breaking,3,1,21,2,right,male,self,Friend,T.bmp,1,n,572
breaking,3,1,21,2,right,male,friend,Self,S.bmp,1,m,770
breaking,3,1,21,2,right,male,self,Friend,T.bmp,1,n,664
breaking,3,1,21,2,right,male,friend,stranger,C.bmp,1,n,894
breaking,3,1,21,2,right,male,stranger,Self,S.bmp,1,n,756
breaking,3,1,21,2,right,male,friend,stranger,C.bmp,1,n,594
breaking,3,1,21,2,right,male,stranger,Friend,T.bmp,1,m,808
breaking,3,1,21,2,right,male,stranger,stranger,C.bmp,1,m,888
breaking,3,1,21,2,right,male,stranger,Friend,T.bmp,1,m,477
breaking,3,1,21,2,right,male,stranger,Self,S.bmp,1,n,777
breaking,3,1,21,2,right,male,self,stranger,C.bmp,1,m,486
breaking,3,1,21,2,right,male,self,Self,S.bmp,1,m,669
breaking,3,1,21,2,right,male,friend,Friend,T.bmp,1,m,394
breaking,3,1,21,2,right,male,stranger,Friend,T.bmp,1,m,799
breaking,3,1,21,2,right,male,self,Friend,T.bmp,1,n,517
breaking,3,1,21,2,right,male,self,Self,S.bmp,1,m,547
breaking,3,1,21,2,right,male,stranger,Self,S.bmp,1,n,777
breaking,3,1,21,2,right,male,friend,Friend,T.bmp,1,m,503
breaking,3,1,21,2,right,male,friend,stranger,C.bmp,1,n,445
breaking,3,1,21,2,right,male,friend,Friend,T.bmp,1,m,459
breaking,3,1,21,2,right,male,self,Self,S.bmp,1,m,609
breaking,3,1,21,2,right,male,stranger,stranger,C.bmp,1,m,775
breaking,3,1,21,2,right,male,self,stranger,C.bmp,1,m,557
breaking,3,1,21,2,right,male,friend,Self,S.bmp,1,m,811
breaking,3,1,21,2,right,male,friend,Self,S.bmp,1,m,529
breaking,3,1,21,2,right,male,self,stranger,C.bmp,1,m,455
breaking,3,1,21,2,right,male,self,Friend,T.bmp,1,n,389
breaking,3,1,21,2,right,male,friend,Friend,T.bmp,1,m,419
breaking,3,1,21,2,right,male,self,Self,S.bmp,1,m,634
breaking,3,1,21,2,right,male,self,Friend,T.bmp,1,n,456
breaking,3,1,21,2,right,male,stranger,stranger,C.bmp,1,m,758
breaking,3,1,21,2,right,male,stranger,Friend,T.bmp,1,m,804
breaking,3,1,21,2,right,male,stranger,Self,S.bmp,1,n,666
breaking,3,1,21,2,right,male,stranger,Self,S.bmp,0,,0
breaking,3,1,21,2,right,male,self,Friend,T.bmp,1,n,422
breaking,3,1,21,2,right,male,stranger,stranger,C.bmp,1,m,796
breaking,3,1,21,2,right,male,stranger,Friend,T.bmp,1,m,412
breaking,3,1,21,2,right,male,friend,Self,S.bmp,1,m,769
breaking,3,1,21,2,right,male,stranger,Self,S.bmp,1,n,738
breaking,3,1,21,2,right,male,friend,stranger,C.bmp,1,n,777
breaking,3,1,21,2,right,male,friend,stranger,C.bmp,1,n,607
breaking,3,1,21,2,right,male,stranger,stranger,C.bmp,1,m,517
breaking,3,1,21,2,right,male,self,stranger,C.bmp,1,m,699
breaking,3,1,21,2,right,male,self,stranger,C.bmp,1,m,617
breaking,3,1,21,2,right,male,friend,stranger,C.bmp,1,n,607
breaking,3,1,21,2,right,male,stranger,Friend,T.bmp,1,m,509
breaking,3,1,21,2,right,male,friend,Friend,T.bmp,1,m,451
breaking,3,1,21,2,right,male,self,Self,S.bmp,1,m,489
breaking,3,1,21,2,right,male,self,stranger,C.bmp,1,m,663
breaking,3,1,21,2,right,male,friend,Self,S.bmp,1,m,549
breaking,3,1,21,2,right,male,friend,Self,S.bmp,1,m,467
breaking,3,1,21,2,right,male,self,Self,S.bmp,1,m,481
breaking,3,1,21,2,right,male,friend,Friend,T.bmp,1,m,415
breaking,4,1,25,2,right,female,friend,Friend,C.bmp,0,n,830
breaking,4,1,25,2,right,female,stranger,stranger,T.bmp,0,n,812
breaking,4,1,25,2,right,female,stranger,Friend,C.bmp,1,m,476
breaking,4,1,25,2,right,female,friend,Self,S.bmp,0,,0
breaking,4,1,25,2,right,female,stranger,Self,S.bmp,0,,0
breaking,4,1,25,2,right,female,self,Friend,C.bmp,0,,0
breaking,4,1,25,2,right,female,self,Self,S.bmp,0,,0
breaking,4,1,25,2,right,female,self,stranger,T.bmp,1,m,1036
breaking,4,1,25,2,right,female,friend,stranger,T.bmp,0,m,804
breaking,4,1,25,2,right,female,stranger,Self,S.bmp,0,m,841
breaking,4,1,25,2,right,female,self,Friend,C.bmp,0,m,945
breaking,4,1,25,2,right,female,friend,Self,S.bmp,0,n,897
breaking,4,1,25,2,right,female,friend,stranger,T.bmp,0,m,999
breaking,4,1,25,2,right,female,stranger,Self,S.bmp,0,,0
breaking,4,1,25,2,right,female,self,Self,S.bmp,0,,0
breaking,4,1,25,2,right,female,friend,Friend,C.bmp,0,n,1001
breaking,4,1,25,2,right,female,self,Self,S.bmp,0,,0
breaking,4,1,25,2,right,female,self,stranger,T.bmp,0,n,989
breaking,4,1,25,2,right,female,friend,stranger,T.bmp,0,,0
breaking,4,1,25,2,right,female,self,stranger,T.bmp,1,m,1017
breaking,4,1,25,2,right,female,self,Friend,C.bmp,0,,0
breaking,4,1,25,2,right,female,stranger,stranger,T.bmp,0,,0
breaking,4,1,25,2,right,female,self,stranger,T.bmp,0,n,826
breaking,4,1,25,2,right,female,stranger,Friend,C.bmp,1,m,984
breaking,4,1,25,2,right,female,stranger,stranger,T.bmp,0,n,966
breaking,4,1,25,2,right,female,stranger,Friend,C.bmp,1,m,1028
breaking,4,1,25,2,right,female,friend,Self,S.bmp,0,,0
breaking,4,1,25,2,right,female,self,Self,S.bmp,0,n,715
breaking,4,1,25,2,right,female,friend,Friend,C.bmp,0,,0
breaking,4,1,25,2,right,female,friend,stranger,T.bmp,0,m,1001
breaking,4,1,25,2,right,female,stranger,Friend,C.bmp,1,m,735
breaking,4,1,25,2,right,female,friend,Friend,C.bmp,1,m,1023
breaking,4,1,25,2,right,female,self,Friend,C.bmp,0,m,845
breaking,4,1,25,2,right,female,stranger,stranger,T.bmp,0,n,627
breaking,4,1,25,2,right,female,friend,Self,S.bmp,1,m,907
breaking,4,1,25,2,right,female,stranger,Self,S.bmp,0,m,963
breaking,4,1,25,2,right,female,stranger,Friend,C.bmp,1,m,667
breaking,4,1,25,2,right,female,friend,stranger,T.bmp,1,n,771
breaking,4,1,25,2,right,female,self,Friend,C.bmp,1,n,923
breaking,4,1,25,2,right,female,self,Self,S.bmp,1,m,873
breaking,4,1,25,2,right,female,stranger,Self,S.bmp,1,n,969
breaking,4,1,25,2,right,female,self,Self,S.bmp,1,m,785
breaking,4,1,25,2,right,female,friend,Friend,C.bmp,1,m,665
breaking,4,1,25,2,right,female,stranger,stranger,T.bmp,0,n,681
breaking,4,1,25,2,right,female,friend,Self,S.bmp,1,m,895
breaking,4,1,25,2,right,female,self,stranger,T.bmp,0,n,861
breaking,4,1,25,2,right,female,stranger,Friend,C.bmp,0,n,995
breaking,4,1,25,2,right,female,stranger,stranger,T.bmp,0,,0
breaking,4,1,25,2,right,female,friend,stranger,T.bmp,0,m,734
breaking,4,1,25,2,right,female,self,Self,S.bmp,1,m,1060
breaking,4,1,25,2,right,female,self,stranger,T.bmp,0,n,826
breaking,4,1,25,2,right,female,friend,Friend,C.bmp,1,m,896
breaking,4,1,25,2,right,female,friend,Self,S.bmp,0,n,862
breaking,4,1,25,2,right,female,friend,Self,S.bmp,0,,0
breaking,4,1,25,2,right,female,stranger,Self,S.bmp,1,n,818
breaking,4,1,25,2,right,female,self,Friend,C.bmp,1,n,744
breaking,4,1,25,2,right,female,stranger,Friend,C.bmp,0,n,742
breaking,4,1,25,2,right,female,stranger,Self,S.bmp,0,m,653
breaking,4,1,25,2,right,female,stranger,stranger,T.bmp,1,m,661
breaking,4,1,25,2,right,female,self,stranger,T.bmp,1,m,1013
breaking,4,1,25,2,right,female,friend,stranger,T.bmp,1,n,779
breaking,4,1,25,2,right,female,friend,Friend,C.bmp,1,m,929
breaking,4,1,25,2,right,female,self,Friend,C.bmp,0,,0
breaking,4,1,25,2,right,female,friend,Self,S.bmp,0,,0
breaking,4,1,25,2,right,female,self,stranger,T.bmp,1,m,771
breaking,4,1,25,2,right,female,stranger,Friend,C.bmp,0,n,699
breaking,4,1,25,2,right,female,self,stranger,T.bmp,1,m,947
breaking,4,1,25,2,right,female,stranger,Friend,C.bmp,1,m,1099
breaking,4,1,25,2,right,female,stranger,Self,S.bmp,0,m,1099
breaking,4,1,25,2,right,female,friend,Self,S.bmp,0,,0
breaking,4,1,25,2,right,female,self,Self,S.bmp,0,n,715
breaking,4,1,25,2,right,female,self,Friend,C.bmp,0,m,395
breaking,4,1,25,2,right,female,self,Friend,C.bmp,1,n,946
breaking,4,1,25,2,right,female,stranger,stranger,T.bmp,1,m,896
breaking,4,1,25,2,right,female,self,stranger,T.bmp,1,m,1022
breaking,4,1,25,2,right,female,stranger,Self,S.bmp,0,,0
breaking,4,1,25,2,right,female,friend,stranger,T.bmp,1,n,938
breaking,4,1,25,2,right,female,friend,Friend,C.bmp,1,m,816
breaking,4,1,25,2,right,female,friend,Self,S.bmp,1,m,694
breaking,4,1,25,2,right,female,friend,Friend,C.bmp,1,m,900
breaking,4,1,25,2,right,female,friend,Friend,C.bmp,0,n,1026
breaking,4,1,25,2,right,female,self,Self,S.bmp,1,m,920
breaking,4,1,25,2,right,female,friend,stranger,T.bmp,0,,0
breaking,4,1,25,2,right,female,stranger,Friend,C.bmp,1,m,796
breaking,4,1,25,2,right,female,friend,stranger,T.bmp,1,n,1026
breaking,4,1,25,2,right,female,stranger,stranger,T.bmp,0,n,1040
breaking,4,1,25,2,right,female,self,Self,S.bmp,1,m,1070
breaking,4,1,25,2,right,female,stranger,Self,S.bmp,0,m,1013
breaking,4,1,25,2,right,female,stranger,stranger,T.bmp,1,m,885
breaking,4,1,25,2,right,female,self,Friend,C.bmp,1,n,699
breaking,4,1,25,2,right,female,friend,Friend,C.bmp,1,m,887
breaking,4,1,25,2,right,female,friend,Self,S.bmp,0,,0
breaking,4,1,25,2,right,female,friend,Self,S.bmp,1,m,967
breaking,4,1,25,2,right,female,stranger,Friend,C.bmp,1,m,710
breaking,4,1,25,2,right,female,self,Self,S.bmp,0,,0
breaking,4,1,25,2,right,female,stranger,Self,S.bmp,0,m,746
breaking,4,1,25,2,right,female,friend,Friend,C.bmp,0,n,1000
breaking,4,1,25,2,right,female,stranger,stranger,T.bmp,0,,0
breaking,4,1,25,2,right,female,stranger,stranger,T.bmp,1,m,588
breaking,4,1,25,2,right,female,self,Friend,C.bmp,1,n,570
breaking,4,1,25,2,right,female,friend,stranger,T.bmp,0,m,960
breaking,4,1,25,2,right,female,self,Self,S.bmp,1,m,814
breaking,4,1,25,2,right,female,friend,Self,S.bmp,0,n,844
breaking,4,1,25,2,right,female,self,Friend,C.bmp,1,n,826
breaking,4,1,25,2,right,female,self,Friend,C.bmp,1,n,440
breaking,4,1,25,2,right,female,friend,stranger,T.bmp,0,m,886
breaking,4,1,25,2,right,female,stranger,Friend,C.bmp,1,m,1004
breaking,4,1,25,2,right,female,stranger,Friend,C.bmp,0,n,810
breaking,4,1,25,2,right,female,stranger,stranger,T.bmp,1,m,665
breaking,4,1,25,2,right,female,friend,Friend,C.bmp,1,m,1065
breaking,4,1,25,2,right,female,stranger,Self,S.bmp,0,m,1097
breaking,4,1,25,2,right,female,friend,stranger,T.bmp,1,n,671
breaking,4,1,25,2,right,female,self,stranger,T.bmp,0,n,741
breaking,4,1,25,2,right,female,self,stranger,T.bmp,1,m,539
breaking,4,1,25,2,right,female,self,stranger,T.bmp,1,m,809
breaking,4,1,25,2,right,female,self,Self,S.bmp,1,m,1087
breaking,4,1,25,2,right,female,stranger,Self,S.bmp,1,n,861
breaking,4,1,25,2,right,female,stranger,Friend,C.bmp,1,m,565
breaking,4,1,25,2,right,female,self,Self,S.bmp,0,n,699
breaking,4,1,25,2,right,female,stranger,stranger,T.bmp,1,m,875
breaking,4,1,25,2,right,female,stranger,stranger,T.bmp,1,m,833
breaking,4,1,25,2,right,female,stranger,Self,S.bmp,0,,0
breaking,4,1,25,2,right,female,self,Friend,C.bmp,1,n,388
breaking,4,1,25,2,right,female,self,Friend,C.bmp,1,n,346
breaking,4,1,25,2,right,female,friend,Friend,C.bmp,1,m,974
breaking,4,1,25,2,right,female,friend,stranger,T.bmp,0,m,870
breaking,4,1,25,2,right,female,stranger,Friend,C.bmp,1,m,908
breaking,4,1,25,2,right,female,friend,Friend,C.bmp,1,m,946
breaking,4,1,25,2,right,female,self,stranger,T.bmp,1,m,928
breaking,4,1,25,2,right,female,self,Self,S.bmp,1,m,814
breaking,4,1,25,2,right,female,self,Friend,C.bmp,1,n,452
breaking,4,1,25,2,right,female,friend,Friend,C.bmp,1,m,882
breaking,4,1,25,2,right,female,friend,Self,S.bmp,1,m,840
breaking,4,1,25,2,right,female,stranger,Friend,C.bmp,1,m,982
breaking,4,1,25,2,right,female,self,stranger,T.bmp,1,m,716
breaking,4,1,25,2,right,female,friend,stranger,T.bmp,0,m,578
breaking,4,1,25,2,right,female,self,Self,S.bmp,1,m,1040
breaking,4,1,25,2,right,female,self,stranger,T.bmp,1,m,527
breaking,4,1,25,2,right,female,friend,stranger,T.bmp,0,m,647
breaking,4,1,25,2,right,female,stranger,stranger,T.bmp,0,,0
breaking,4,1,25,2,right,female,stranger,Self,S.bmp,0,,0
breaking,4,1,25,2,right,female,friend,Self,S.bmp,1,m,1049
breaking,4,1,25,2,right,female,stranger,Self,S.bmp,0,m,647
breaking,4,1,25,2,right,female,friend,Self,S.bmp,0,n,708
breaking,4,1,25,2,right,female,friend,stranger,T.bmp,0,m,740
breaking,4,1,25,2,right,female,self,stranger,T.bmp,1,m,708
breaking,4,1,25,2,right,female,friend,stranger,T.bmp,0,,0
breaking,4,1,25,2,right,female,friend,Friend,C.bmp,1,m,604
breaking,4,1,25,2,right,female,stranger,Friend,C.bmp,1,m,524
breaking,4,1,25,2,right,female,friend,Self,S.bmp,1,m,884
breaking,4,1,25,2,right,female,friend,Self,S.bmp,0,,0
breaking,4,1,25,2,right,female,self,Friend,C.bmp,1,n,404
breaking,4,1,25,2,right,female,self,Self,S.bmp,0,n,796
breaking,4,1,25,2,right,female,self,stranger,T.bmp,0,n,538
breaking,4,1,25,2,right,female,self,Self,S.bmp,1,m,832
breaking,4,1,25,2,right,female,stranger,Self,S.bmp,0,,0
breaking,4,1,25,2,right,female,stranger,Self,S.bmp,0,m,764
breaking,4,1,25,2,right,female,self,Self,S.bmp,1,m,954
breaking,4,1,25,2,right,female,stranger,stranger,T.bmp,1,m,808
breaking,4,1,25,2,right,female,self,Friend,C.bmp,1,n,774
breaking,4,1,25,2,right,female,stranger,stranger,T.bmp,1,m,604
breaking,4,1,25,2,right,female,friend,Self,S.bmp,1,m,938
breaking,4,1,25,2,right,female,friend,Friend,C.bmp,1,m,752
breaking,4,1,25,2,right,female,stranger,Self,S.bmp,0,m,950
breaking,4,1,25,2,right,female,stranger,stranger,T.bmp,1,m,756
breaking,4,1,25,2,right,female,stranger,Friend,C.bmp,1,m,738
breaking,4,1,25,2,right,female,friend,Friend,C.bmp,1,m,1024
breaking,4,1,25,2,right,female,self,Friend,C.bmp,1,n,527
breaking,4,1,25,2,right,female,friend,stranger,T.bmp,0,m,991
breaking,4,1,25,2,right,female,stranger,Friend,C.bmp,0,,0
breaking,4,1,25,2,right,female,self,stranger,T.bmp,1,m,636
breaking,4,1,25,2,right,female,friend,Self,S.bmp,1,m,1022
breaking,4,1,25,2,right,female,stranger,stranger,T.bmp,1,m,908
breaking,4,1,25,2,right,female,stranger,stranger,T.bmp,1,m,932
breaking,4,1,25,2,right,female,friend,stranger,T.bmp,0,,0
breaking,4,1,25,2,right,female,stranger,Friend,C.bmp,1,m,654
breaking,4,1,25,2,right,female,self,stranger,T.bmp,1,m,796
breaking,4,1,25,2,right,female,self,stranger,T.bmp,1,m,482
breaking,4,1,25,2,right,female,stranger,Friend,C.bmp,1,m,528
breaking,4,1,25,2,right,female,stranger,Friend,C.bmp,0,n,646
breaking,4,1,25,2,right,female,friend,Friend,C.bmp,1,m,564
breaking,4,1,25,2,right,female,self,Self,S.bmp,1,m,610
breaking,4,1,25,2,right,female,self,stranger,T.bmp,1,m,568
breaking,4,1,25,2,right,female,self,Friend,C.bmp,0,m,806
breaking,4,1,25,2,right,female,self,Self,S.bmp,1,m,412
breaking,4,1,25,2,right,female,friend,Self,S.bmp,0,n,930
breaking,4,1,25,2,right,female,stranger,Self,S.bmp,0,m,912
breaking,4,1,25,2,right,female,self,Friend,C.bmp,0,m,1007
breaking,4,1,25,2,right,female,stranger,stranger,T.bmp,0,,0
breaking,4,1,25,2,right,female,friend,Friend,C.bmp,1,m,651
breaking,4,1,25,2,right,female,friend,Self,S.bmp,0,n,881
breaking,4,1,25,2,right,female,stranger,Self,S.bmp,0,m,678
breaking,4,1,25,2,right,female,self,Friend,C.bmp,1,n,580
breaking,4,1,25,2,right,female,friend,stranger,T.bmp,0,m,1042
breaking,4,1,25,2,right,female,friend,stranger,T.bmp,0,m,1024
breaking,4,1,25,2,right,female,stranger,Self,S.bmp,1,n,734
breaking,4,1,25,2,right,female,self,Self,S.bmp,1,m,854
breaking,4,1,25,2,right,female,friend,Friend,C.bmp,1,m,814
breaking,4,1,25,2,right,female,friend,stranger,T.bmp,0,m,1052
breaking,4,1,25,2,right,female,self,Self,S.bmp,1,m,1004
breaking,4,1,25,2,right,female,stranger,stranger,T.bmp,0,n,714
breaking,4,1,25,2,right,female,stranger,Self,S.bmp,0,m,1088
breaking,4,1,25,2,right,female,friend,Friend,C.bmp,1,m,862
breaking,4,1,25,2,right,female,friend,Friend,C.bmp,0,n,884
breaking,4,1,25,2,right,female,self,stranger,T.bmp,1,m,687
breaking,4,1,25,2,right,female,self,Friend,C.bmp,1,n,520
breaking,4,1,25,2,right,female,stranger,Friend,C.bmp,1,m,846
breaking,4,1,25,2,right,female,friend,Friend,C.bmp,1,m,676
breaking,4,1,25,2,right,female,self,Self,S.bmp,1,m,634
breaking,4,1,25,2,right,female,self,stranger,T.bmp,1,m,576
breaking,4,1,25,2,right,female,self,Self,S.bmp,1,m,598
breaking,4,1,25,2,right,female,stranger,Self,S.bmp,1,n,1089
breaking,4,1,25,2,right,female,friend,Self,S.bmp,0,n,1018
breaking,4,1,25,2,right,female,stranger,Friend,C.bmp,1,m,666
breaking,4,1,25,2,right,female,self,Friend,C.bmp,1,n,630
breaking,4,1,25,2,right,female,friend,Self,S.bmp,1,m,916
breaking,4,1,25,2,right,female,self,Friend,C.bmp,1,n,475
breaking,4,1,25,2,right,female,self,stranger,T.bmp,1,m,832
breaking,4,1,25,2,right,female,stranger,stranger,T.bmp,1,m,950
breaking,4,1,25,2,right,female,stranger,Self,S.bmp,0,m,612
breaking,4,1,25,2,right,female,friend,stranger,T.bmp,0,m,762
breaking,4,1,25,2,right,female,friend,stranger,T.bmp,1,n,592
breaking,4,1,25,2,right,female,friend,Self,S.bmp,1,m,846
breaking,4,1,25,2,right,female,stranger,stranger,T.bmp,1,m,854
breaking,4,1,25,2,right,female,stranger,Friend,C.bmp,1,m,716
breaking,4,1,25,2,right,female,self,stranger,T.bmp,0,,0
breaking,4,1,25,2,right,female,friend,Friend,C.bmp,1,m,618
breaking,4,1,25,2,right,female,stranger,Friend,C.bmp,1,m,540
breaking,4,1,25,2,right,female,self,Friend,C.bmp,1,n,598
breaking,4,1,25,2,right,female,self,Self,S.bmp,1,m,925
breaking,4,1,25,2,right,female,stranger,stranger,T.bmp,1,m,954
breaking,4,1,25,2,right,female,stranger,stranger,T.bmp,0,n,1088
breaking,4,1,25,2,right,female,stranger,Self,S.bmp,0,m,966
breaking,4,1,25,2,right,female,self,stranger,T.bmp,0,n,833
breaking,4,1,25,2,right,female,self,Friend,C.bmp,1,n,458
breaking,4,1,25,2,right,female,friend,Self,S.bmp,1,m,1032
breaking,4,1,25,2,right,female,stranger,Self,S.bmp,0,,0
breaking,4,1,25,2,right,female,self,Self,S.bmp,1,m,828
breaking,4,1,25,2,right,female,stranger,Self,S.bmp,0,m,1074
breaking,4,1,25,2,right,female,friend,stranger,T.bmp,1,n,1016
breaking,4,1,25,2,right,female,stranger,Friend,C.bmp,1,m,931
breaking,4,1,25,2,right,female,friend,stranger,T.bmp,0,,0
breaking,4,1,25,2,right,female,self,Friend,C.bmp,1,n,489
breaking,4,1,25,2,right,female,self,stranger,T.bmp,1,m,767
breaking,4,1,25,2,right,female,friend,stranger,T.bmp,1,n,753
breaking,4,1,25,2,right,female,friend,Self,S.bmp,1,m,684
breaking,4,1,25,2,right,female,stranger,stranger,T.bmp,1,m,690
breaking,4,1,25,2,right,female,friend,Friend,C.bmp,0,n,798
breaking,4,1,25,2,right,female,stranger,Friend,C.bmp,1,m,582
breaking,4,1,25,2,right,female,self,Self,S.bmp,1,m,784
breaking,4,1,25,2,right,female,friend,Friend,C.bmp,1,m,506
breaking,4,1,25,2,right,female,friend,Self,S.bmp,1,m,1048
breaking,4,1,25,2,right,female,self,Friend,C.bmp,1,n,578
breaking,4,1,25,2,right,female,self,Self,S.bmp,1,m,600
breaking,4,1,25,2,right,female,friend,Friend,C.bmp,1,m,670
breaking,4,1,25,2,right,female,friend,Self,S.bmp,1,m,924
breaking,4,1,25,2,right,female,stranger,Self,S.bmp,0,m,906
breaking,4,1,25,2,right,female,self,Self,S.bmp,1,m,712
breaking,4,1,25,2,right,female,friend,Friend,C.bmp,1,m,558
breaking,4,1,25,2,right,female,friend,Self,S.bmp,1,m,788
breaking,4,1,25,2,right,female,self,stranger,T.bmp,1,m,602
breaking,4,1,25,2,right,female,self,stranger,T.bmp,1,m,784
breaking,4,1,25,2,right,female,friend,stranger,T.bmp,1,n,878
breaking,4,1,25,2,right,female,friend,stranger,T.bmp,1,n,661
breaking,4,1,25,2,right,female,self,Friend,C.bmp,1,n,505
breaking,4,1,25,2,right,female,self,Friend,C.bmp,1,n,432
breaking,4,1,25,2,right,female,stranger,stranger,T.bmp,1,m,838
breaking,4,1,25,2,right,female,self,Self,S.bmp,0,,0
breaking,4,1,25,2,right,female,stranger,stranger,T.bmp,0,,0
breaking,4,1,25,2,right,female,friend,stranger,T.bmp,0,,0
breaking,4,1,25,2,right,female,self,stranger,T.bmp,1,m,694
breaking,4,1,25,2,right,female,friend,Friend,C.bmp,1,m,708
breaking,4,1,25,2,right,female,stranger,stranger,T.bmp,1,m,794
breaking,4,1,25,2,right,female,stranger,Friend,C.bmp,1,m,578
breaking,4,1,25,2,right,female,stranger,Friend,C.bmp,1,m,586
breaking,4,1,25,2,right,female,stranger,Self,S.bmp,1,n,962
breaking,4,1,25,2,right,female,stranger,Friend,C.bmp,1,m,864
breaking,4,1,25,2,right,female,friend,Self,S.bmp,0,n,1049
breaking,4,1,25,2,right,female,stranger,Self,S.bmp,0,m,788
breaking,4,1,25,2,right,female,self,Self,S.bmp,1,m,674
breaking,4,1,25,2,right,female,stranger,Friend,C.bmp,1,m,540
breaking,4,1,25,2,right,female,stranger,Friend,C.bmp,1,m,446
breaking,4,1,25,2,right,female,self,Friend,C.bmp,1,n,620
breaking,4,1,25,2,right,female,self,Friend,C.bmp,1,n,594
breaking,4,1,25,2,right,female,stranger,Friend,C.bmp,1,m,520
breaking,4,1,25,2,right,female,friend,Self,S.bmp,1,m,750
breaking,4,1,25,2,right,female,self,Self,S.bmp,1,m,700
breaking,4,1,25,2,right,female,friend,stranger,T.bmp,1,n,929
breaking,4,1,25,2,right,female,stranger,Self,S.bmp,0,m,584
breaking,4,1,25,2,right,female,stranger,stranger,T.bmp,0,,0
breaking,4,1,25,2,right,female,stranger,Self,S.bmp,1,n,739
breaking,4,1,25,2,right,female,stranger,stranger,T.bmp,1,m,545
breaking,4,1,25,2,right,female,self,Self,S.bmp,1,m,783
breaking,4,1,25,2,right,female,friend,Self,S.bmp,1,m,1037
breaking,4,1,25,2,right,female,stranger,Self,S.bmp,1,n,780
breaking,4,1,25,2,right,female,friend,Friend,C.bmp,1,m,810
breaking,4,1,25,2,right,female,stranger,stranger,T.bmp,1,m,744
breaking,4,1,25,2,right,female,self,Friend,C.bmp,1,n,414
breaking,4,1,25,2,right,female,friend,Friend,C.bmp,1,m,644
breaking,4,1,25,2,right,female,friend,stranger,T.bmp,1,n,962
breaking,4,1,25,2,right,female,friend,stranger,T.bmp,1,n,408
breaking,4,1,25,2,right,female,self,stranger,T.bmp,1,m,520
breaking,4,1,25,2,right,female,friend,Self,S.bmp,1,m,966
breaking,4,1,25,2,right,female,self,stranger,T.bmp,1,m,758
breaking,4,1,25,2,right,female,friend,Friend,C.bmp,0,n,756
breaking,4,1,25,2,right,female,self,stranger,T.bmp,1,m,554
breaking,4,1,25,2,right,female,friend,stranger,T.bmp,0,m,1016
breaking,4,1,25,2,right,female,stranger,stranger,T.bmp,1,m,574
breaking,4,1,25,2,right,female,self,Friend,C.bmp,1,n,360
breaking,4,1,25,2,right,female,self,Self,S.bmp,1,m,610
breaking,4,1,25,2,right,female,friend,stranger,T.bmp,1,n,779
breaking,4,1,25,2,right,female,stranger,Self,S.bmp,0,m,591
breaking,4,1,25,2,right,female,friend,Self,S.bmp,1,m,988
breaking,4,1,25,2,right,female,self,Friend,C.bmp,1,n,402
breaking,4,1,25,2,right,female,friend,stranger,T.bmp,0,m,815
breaking,4,1,25,2,right,female,self,Self,S.bmp,1,m,597
breaking,4,1,25,2,right,female,stranger,Friend,C.bmp,1,m,675
breaking,4,1,25,2,right,female,stranger,stranger,T.bmp,0,n,842
breaking,4,1,25,2,right,female,self,stranger,T.bmp,1,m,583
breaking,4,1,25,2,right,female,self,stranger,T.bmp,1,m,533
breaking,4,1,25,2,right,female,stranger,Friend,C.bmp,1,m,539
breaking,4,1,25,2,right,female,self,stranger,T.bmp,1,m,601
breaking,4,1,25,2,right,female,stranger,Friend,C.bmp,1,m,679
breaking,4,1,25,2,right,female,stranger,Self,S.bmp,1,n,998
breaking,4,1,25,2,right,female,self,Self,S.bmp,1,m,660
breaking,4,1,25,2,right,female,stranger,Self,S.bmp,1,n,850
breaking,4,1,25,2,right,female,friend,Self,S.bmp,1,m,560
breaking,4,1,25,2,right,female,friend,Self,S.bmp,1,m,734
breaking,4,1,25,2,right,female,self,Friend,C.bmp,1,n,644
breaking,4,1,25,2,right,female,stranger,stranger,T.bmp,1,m,730
breaking,4,1,25,2,right,female,friend,Friend,C.bmp,1,m,619
breaking,4,1,25,2,right,female,friend,Friend,C.bmp,1,m,608
breaking,4,1,25,2,right,female,friend,Friend,C.bmp,1,m,569
breaking,4,1,25,2,right,female,friend,stranger,T.bmp,1,n,763
breaking,4,1,25,2,right,female,self,Friend,C.bmp,1,n,480
breaking,4,1,25,2,right,female,stranger,stranger,T.bmp,1,m,494
breaking,4,1,25,2,right,female,stranger,stranger,T.bmp,1,m,715
breaking,4,1,25,2,right,female,friend,stranger,T.bmp,0,m,909
breaking,4,1,25,2,right,female,self,stranger,T.bmp,1,m,599
breaking,4,1,25,2,right,female,friend,stranger,T.bmp,1,n,589
breaking,4,1,25,2,right,female,friend,Friend,C.bmp,1,m,675
breaking,4,1,25,2,right,female,friend,Self,S.bmp,1,m,681
breaking,4,1,25,2,right,female,stranger,Friend,C.bmp,1,m,471
breaking,4,1,25,2,right,female,stranger,Friend,C.bmp,1,m,446
breaking,4,1,25,2,right,female,self,stranger,T.bmp,1,m,636
breaking,4,1,25,2,right,female,self,stranger,T.bmp,1,m,666
breaking,4,1,25,2,right,female,self,Self,S.bmp,1,m,552
breaking,4,1,25,2,right,female,stranger,Self,S.bmp,1,n,718
breaking,4,1,25,2,right,female,friend,Self,S.bmp,1,m,518
breaking,4,1,25,2,right,female,stranger,Friend,C.bmp,1,m,458
breaking,4,1,25,2,right,female,self,Friend,C.bmp,1,n,376
breaking,4,1,25,2,right,female,self,Self,S.bmp,1,m,616
breaking,4,1,25,2,right,female,friend,Friend,C.bmp,1,m,446
breaking,4,1,25,2,right,female,stranger,Self,S.bmp,1,n,670
breaking,4,1,25,2,right,female,self,Friend,C.bmp,1,n,466
breaking,4,1,25,2,right,female,friend,Self,S.bmp,1,m,902
breaking,4,1,25,2,right,female,stranger,stranger,T.bmp,0,n,836
breaking,4,1,25,2,right,female,self,Self,S.bmp,1,m,730
breaking,4,1,25,2,right,female,friend,Friend,C.bmp,1,m,536
breaking,4,1,25,2,right,female,stranger,Self,S.bmp,0,m,758
breaking,4,1,25,2,right,female,stranger,Self,S.bmp,1,n,723
breaking,4,1,25,2,right,female,friend,Self,S.bmp,1,m,513
breaking,4,1,25,2,right,female,self,Self,S.bmp,1,m,679
breaking,4,1,25,2,right,female,friend,stranger,T.bmp,1,n,877
breaking,4,1,25,2,right,female,self,stranger,T.bmp,1,m,635
breaking,4,1,25,2,right,female,stranger,stranger,T.bmp,0,n,761
breaking,4,1,25,2,right,female,friend,stranger,T.bmp,1,n,832
breaking,4,1,25,2,right,female,friend,stranger,T.bmp,1,n,661
breaking,4,1,25,2,right,female,stranger,Friend,C.bmp,1,m,739
breaking,4,1,25,2,right,female,stranger,Self,S.bmp,1,n,617
breaking,4,1,25,2,right,female,self,Friend,C.bmp,1,n,439
breaking,4,1,25,2,right,female,self,Friend,C.bmp,1,n,365
breaking,4,1,25,2,right,female,self,Self,S.bmp,1,m,627
breaking,4,1,25,2,right,female,stranger,stranger,T.bmp,1,m,650
breaking,4,1,25,2,right,female,stranger,Friend,C.bmp,1,m,480
breaking,4,1,25,2,right,female,stranger,Friend,C.bmp,1,m,598
breaking,4,1,25,2,right,female,self,Self,S.bmp,1,m,884
breaking,4,1,25,2,right,female,stranger,Self,S.bmp,0,m,1010
breaking,4,1,25,2,right,female,self,stranger,T.bmp,0,n,376
breaking,4,1,25,2,right,female,friend,Self,S.bmp,1,m,990
breaking,4,1,25,2,right,female,self,stranger,T.bmp,1,m,676
breaking,4,1,25,2,right,female,friend,Friend,C.bmp,0,,0
breaking,4,1,25,2,right,female,friend,Friend,C.bmp,1,m,716
breaking,4,1,25,2,right,female,stranger,stranger,T.bmp,1,m,674
breaking,4,1,25,2,right,female,friend,Self,S.bmp,0,n,1048
breaking,4,1,25,2,right,female,self,Friend,C.bmp,1,n,510
breaking,4,1,25,2,right,female,friend,Friend,C.bmp,1,m,640
breaking,4,1,25,2,right,female,stranger,Self,S.bmp,1,n,905
breaking,4,1,25,2,right,female,friend,Friend,C.bmp,1,m,519
breaking,4,1,25,2,right,female,friend,stranger,T.bmp,0,m,797
breaking,4,1,25,2,right,female,self,Self,S.bmp,1,m,585
breaking,4,1,25,2,right,female,stranger,Self,S.bmp,1,n,641
breaking,4,1,25,2,right,female,self,Friend,C.bmp,1,n,423
breaking,4,1,25,2,right,female,self,stranger,T.bmp,1,m,557
breaking,4,1,25,2,right,female,self,Friend,C.bmp,1,n,483
breaking,4,1,25,2,right,female,self,stranger,T.bmp,1,m,633
breaking,4,1,25,2,right,female,stranger,stranger,T.bmp,1,m,671
breaking,4,1,25,2,right,female,friend,Friend,C.bmp,1,m,565
breaking,4,1,25,2,right,female,self,Self,S.bmp,1,m,499
breaking,4,1,25,2,right,female,stranger,Self,S.bmp,1,n,678
breaking,4,1,25,2,right,female,self,stranger,T.bmp,1,m,644
breaking,4,1,25,2,right,female,friend,stranger,T.bmp,0,m,549
breaking,4,1,25,2,right,female,friend,Self,S.bmp,0,n,460
breaking,4,1,25,2,right,female,self,Self,S.bmp,1,m,786
breaking,4,1,25,2,right,female,friend,Self,S.bmp,1,m,816
breaking,4,1,25,2,right,female,stranger,stranger,T.bmp,1,m,534
breaking,4,1,25,2,right,female,friend,stranger,T.bmp,1,n,484
breaking,4,1,25,2,right,female,stranger,Friend,C.bmp,1,m,546
breaking,4,1,25,2,right,female,friend,Self,S.bmp,1,m,520
breaking,4,1,25,2,right,female,friend,Friend,C.bmp,1,m,581
breaking,4,1,25,2,right,female,stranger,Friend,C.bmp,1,m,579
breaking,4,1,25,2,right,female,self,Friend,C.bmp,1,n,515
breaking,4,1,25,2,right,female,stranger,Friend,C.bmp,1,m,492
breaking,4,1,25,2,right,female,stranger,stranger,T.bmp,1,m,513
breaking,4,1,25,2,right,female,self,stranger,T.bmp,1,m,643
