ExperimentName,Subject,Session,Age,Handedness,Sex,Identity,Shape,Target.ACC,Target.RESP,Target.RT
SelfAssociate,1,1,24,right,male,Self,T.bmp,1,n,999
SelfAssociate,1,1,24,right,male,Stranger,C.bmp,1,b,1153
SelfAssociate,1,1,24,right,male,Friend,S.bmp,1,m,1221
SelfAssociate,1,1,24,right,male,Friend,S.bmp,0,b,1451
SelfAssociate,1,1,24,right,male,Self,T.bmp,1,n,763
SelfAssociate,1,1,24,right,male,Stranger,C.bmp,0,b,973
SelfAssociate,1,1,24,right,male,Stranger,C.bmp,0,,0
SelfAssociate,1,1,24,right,male,Self,T.bmp,1,b,1025
SelfAssociate,1,1,24,right,male,Friend,S.bmp,0,m,1421
SelfAssociate,1,1,24,right,male,Friend,S.bmp,0,b,1147
SelfAssociate,1,1,24,right,male,Stranger,C.bmp,0,b,1199
SelfAssociate,1,1,24,right,male,Self,T.bmp,0,,0
SelfAssociate,1,1,24,right,male,Friend,S.bmp,0,,0
SelfAssociate,1,1,24,right,male,Self,T.bmp,1,b,786
SelfAssociate,1,1,24,right,male,Stranger,C.bmp,1,m,1462
SelfAssociate,1,1,24,right,male,Friend,S.bmp,1,n,820
SelfAssociate,1,1,24,right,male,Stranger,C.bmp,0,,0
SelfAssociate,1,1,24,right,male,Self,T.bmp,1,m,911
SelfAssociate,1,1,24,right,male,Friend,S.bmp,0,n,1186
SelfAssociate,1,1,24,right,male,Stranger,C.bmp,1,b,886
SelfAssociate,1,1,24,right,male,Stranger,C.bmp,1,b,1087
SelfAssociate,1,1,24,right,male,Friend,S.bmp,1,m,895
SelfAssociate,1,1,24,right,male,Self,T.bmp,1,n,525
SelfAssociate,1,1,24,right,male,Self,T.bmp,1,b,757
SelfAssociate,1,1,24,right,male,Friend,S.bmp,1,m,1056
SelfAssociate,1,1,24,right,male,Self,T.bmp,1,m,846
SelfAssociate,1,1,24,right,male,Stranger,C.bmp,0,b,966
SelfAssociate,1,1,24,right,male,Stranger,C.bmp,1,n,832
SelfAssociate,1,1,24,right,male,Friend,S.bmp,1,b,805
SelfAssociate,1,1,24,right,male,Self,T.bmp,1,n,759
SelfAssociate,1,1,24,right,male,Stranger,C.bmp,1,b,696
SelfAssociate,1,1,24,right,male,Stranger,C.bmp,1,n,974
SelfAssociate,1,1,24,right,male,Friend,S.bmp,0,m,1030
SelfAssociate,1,1,24,right,male,Friend,S.bmp,1,n,779
SelfAssociate,1,1,24,right,male,Stranger,C.bmp,1,m,913
SelfAssociate,1,1,24,right,male,Friend,S.bmp,1,n,861
SelfAssociate,1,1,24,right,male,Friend,S.bmp,1,n,883
SelfAssociate,1,1,24,right,male,Stranger,C.bmp,1,b,918
SelfAssociate,1,1,24,right,male,Friend,S.bmp,1,b,1536
SelfAssociate,1,1,24,right,male,Stranger,C.bmp,0,m,1262
SelfAssociate,1,1,24,right,male,Friend,S.bmp,1,b,1100
SelfAssociate,1,1,24,right,male,Stranger,C.bmp,1,n,658
SelfAssociate,1,1,24,right,male,Stranger,C.bmp,1,m,1488
SelfAssociate,1,1,24,right,male,Stranger,C.bmp,0,n,1176
SelfAssociate,1,1,24,right,male,Friend,S.bmp,1,n,1694
SelfAssociate,1,1,24,right,male,Friend,S.bmp,0,m,1356
SelfAssociate,1,1,24,right,male,Friend,S.bmp,0,b,734
SelfAssociate,1,1,24,right,male,Stranger,C.bmp,1,b,1525
SelfAssociate,1,1,24,right,male,Friend,S.bmp,1,n,941
SelfAssociate,1,1,24,right,male,Stranger,C.bmp,1,n,843
SelfAssociate,1,1,24,right,male,Stranger,C.bmp,1,n,917
SelfAssociate,1,1,24,right,male,Friend,S.bmp,1,m,736
SelfAssociate,1,1,24,right,male,Friend,S.bmp,1,n,934
SelfAssociate,1,1,24,right,male,Stranger,C.bmp,1,m,869
SelfAssociate,1,1,24,right,male,Stranger,C.bmp,1,m,938
SelfAssociate,1,1,24,right,male,Friend,S.bmp,1,m,832
SelfAssociate,1,1,24,right,male,Stranger,C.bmp,1,n,660
SelfAssociate,1,1,24,right,male,Friend,S.bmp,1,m,1386
SelfAssociate,1,1,24,right,male,Friend,S.bmp,0,b,1374
SelfAssociate,1,1,24,right,male,Friend,S.bmp,1,m,973
SelfAssociate,1,1,24,right,male,Friend,S.bmp,1,b,853
SelfAssociate,1,1,24,right,male,Friend,S.bmp,1,m,813
SelfAssociate,1,1,24,right,male,Friend,S.bmp,1,m,733
SelfAssociate,1,1,24,right,male,Friend,S.bmp,1,m,742
SelfAssociate,1,1,24,right,male,Friend,S.bmp,1,b,811
SelfAssociate,10,1,22,right,female,Self,S.bmp,1,m,1245
SelfAssociate,10,1,22,right,female,Friend,C.bmp,1,n,941
SelfAssociate,10,1,22,right,female,Stranger,T.bmp,1,b,1171
SelfAssociate,10,1,22,right,female,Self,S.bmp,1,n,1043
SelfAssociate,10,1,22,right,female,Friend,C.bmp,1,m,907
SelfAssociate,10,1,22,right,female,Stranger,T.bmp,1,n,1280
SelfAssociate,10,1,22,right,female,Self,S.bmp,1,n,874
SelfAssociate,10,1,22,right,female,Stranger,T.bmp,1,b,846
SelfAssociate,10,1,22,right,female,Self,S.bmp,0,b,1566
SelfAssociate,10,1,22,right,female,Stranger,T.bmp,1,n,1062
SelfAssociate,10,1,22,right,female,Friend,C.bmp,1,n,980
SelfAssociate,10,1,22,right,female,Friend,C.bmp,1,m,995
SelfAssociate,10,1,22,right,female,Stranger,T.bmp,1,b,1077
SelfAssociate,10,1,22,right,female,Friend,C.bmp,1,m,871
SelfAssociate,10,1,22,right,female,Self,S.bmp,1,n,1083
SelfAssociate,10,1,22,right,female,Friend,C.bmp,1,b,941
SelfAssociate,10,1,22,right,female,Stranger,T.bmp,1,m,875
SelfAssociate,10,1,22,right,female,Self,S.bmp,1,n,2518
SelfAssociate,10,1,22,right,female,Self,S.bmp,1,m,912
SelfAssociate,10,1,22,right,female,Self,S.bmp,1,m,668
SelfAssociate,10,1,22,right,female,Self,S.bmp,1,b,688
SelfAssociate,10,1,22,right,female,Self,S.bmp,1,b,640
SelfAssociate,10,1,22,right,female,Self,S.bmp,1,m,578
SelfAssociate,10,1,22,right,female,Self,S.bmp,1,m,472
SelfAssociate,11,1,21,right,female,Self,C.bmp,1,b,774
SelfAssociate,11,1,21,right,female,Stranger,S.bmp,0,n,1134
SelfAssociate,11,1,21,right,female,Stranger,S.bmp,0,,0
SelfAssociate,11,1,21,right,female,Self,C.bmp,1,m,881
SelfAssociate,11,1,21,right,female,Friend,T.bmp,1,b,723
SelfAssociate,11,1,21,right,female,Friend,T.bmp,1,b,645
SelfAssociate,11,1,21,right,female,Friend,T.bmp,1,n,1149
SelfAssociate,11,1,21,right,female,Self,C.bmp,0,b,1482
SelfAssociate,11,1,21,right,female,Stranger,S.bmp,0,,0
SelfAssociate,11,1,21,right,female,Friend,T.bmp,0,n,1032
SelfAssociate,11,1,21,right,female,Self,C.bmp,1,b,1243
SelfAssociate,11,1,21,right,female,Stranger,S.bmp,0,b,675
SelfAssociate,11,1,21,right,female,Friend,T.bmp,1,n,1149
SelfAssociate,11,1,21,right,female,Friend,T.bmp,1,b,1145
SelfAssociate,11,1,21,right,female,Self,C.bmp,1,m,750
SelfAssociate,11,1,21,right,female,Self,C.bmp,1,n,754
SelfAssociate,11,1,21,right,female,Stranger,S.bmp,0,b,766
SelfAssociate,11,1,21,right,female,Stranger,S.bmp,1,n,878
SelfAssociate,11,1,21,right,female,Self,C.bmp,0,b,993
SelfAssociate,11,1,21,right,female,Self,C.bmp,1,b,917
SelfAssociate,11,1,21,right,female,Stranger,S.bmp,1,b,1215
SelfAssociate,11,1,21,right,female,Friend,T.bmp,1,b,1061
SelfAssociate,11,1,21,right,female,Friend,T.bmp,1,b,707
SelfAssociate,11,1,21,right,female,Stranger,S.bmp,1,n,1063
SelfAssociate,11,1,21,right,female,Self,C.bmp,0,b,1189
SelfAssociate,11,1,21,right,female,Friend,T.bmp,0,m,1170
SelfAssociate,11,1,21,right,female,Friend,T.bmp,1,n,962
SelfAssociate,11,1,21,right,female,Stranger,S.bmp,1,b,1004
SelfAssociate,11,1,21,right,female,Stranger,S.bmp,1,m,774
SelfAssociate,11,1,21,right,female,Self,C.bmp,0,b,878
SelfAssociate,11,1,21,right,female,Friend,T.bmp,1,m,1432
SelfAssociate,11,1,21,right,female,Friend,T.bmp,1,n,836
SelfAssociate,11,1,21,right,female,Self,C.bmp,1,b,1199
SelfAssociate,11,1,21,right,female,Stranger,S.bmp,1,b,1216
SelfAssociate,11,1,21,right,female,Self,C.bmp,1,n,910
SelfAssociate,11,1,21,right,female,Stranger,S.bmp,1,m,1034
SelfAssociate,11,1,21,right,female,Friend,T.bmp,1,m,1076
SelfAssociate,11,1,21,right,female,Self,C.bmp,1,b,1182
SelfAssociate,11,1,21,right,female,Self,C.bmp,1,n,860
SelfAssociate,11,1,21,right,female,Stranger,S.bmp,0,m,1027
SelfAssociate,11,1,21,right,female,Stranger,S.bmp,1,n,791
SelfAssociate,11,1,21,right,female,Friend,T.bmp,1,m,1507
SelfAssociate,11,1,21,right,female,Self,C.bmp,1,b,831
SelfAssociate,11,1,21,right,female,Friend,T.bmp,1,b,923
SelfAssociate,11,1,21,right,female,Self,C.bmp,1,b,830
SelfAssociate,11,1,21,right,female,Friend,T.bmp,0,b,1090
SelfAssociate,11,1,21,right,female,Stranger,S.bmp,0,n,1058
SelfAssociate,11,1,21,right,female,Stranger,S.bmp,1,n,888
SelfAssociate,11,1,21,right,female,Stranger,S.bmp,0,n,848
SelfAssociate,11,1,21,right,female,Stranger,S.bmp,1,n,1281
SelfAssociate,11,1,21,right,female,Friend,T.bmp,1,n,811
SelfAssociate,11,1,21,right,female,Friend,T.bmp,0,m,899
SelfAssociate,11,1,21,right,female,Stranger,S.bmp,0,n,1249
SelfAssociate,11,1,21,right,female,Friend,T.bmp,1,n,1081
SelfAssociate,11,1,21,right,female,Stranger,S.bmp,0,m,1123
SelfAssociate,11,1,21,right,female,Friend,T.bmp,1,b,1269
SelfAssociate,11,1,21,right,female,Friend,T.bmp,1,b,690
SelfAssociate,11,1,21,right,female,Stranger,S.bmp,1,m,1058
SelfAssociate,11,1,21,right,female,Stranger,S.bmp,1,n,727
SelfAssociate,11,1,21,right,female,Friend,T.bmp,1,m,1103
SelfAssociate,11,1,21,right,female,Stranger,S.bmp,0,b,867
SelfAssociate,11,1,21,right,female,Friend,T.bmp,1,b,816
SelfAssociate,11,1,21,right,female,Friend,T.bmp,1,m,1166
SelfAssociate,11,1,21,right,female,Stranger,S.bmp,1,m,1030
SelfAssociate,11,1,21,right,female,Stranger,S.bmp,1,b,658
SelfAssociate,11,1,21,right,female,Stranger,S.bmp,1,n,1328
SelfAssociate,11,1,21,right,female,Stranger,S.bmp,1,m,848
SelfAssociate,11,1,21,right,female,Stranger,S.bmp,1,b,681
SelfAssociate,11,1,21,right,female,Stranger,S.bmp,1,n,707
SelfAssociate,11,1,21,right,female,Stranger,S.bmp,1,b,1071
SelfAssociate,12,1,20,right,female,Self,C.bmp,1,n,1132
SelfAssociate,12,1,20,right,female,Friend,S.bmp,1,m,1212
SelfAssociate,12,1,20,right,female,Stranger,T.bmp,0,b,828
SelfAssociate,12,1,20,right,female,Friend,S.bmp,0,m,1096
SelfAssociate,12,1,20,right,female,Self,C.bmp,1,m,1046
SelfAssociate,12,1,20,right,female,Stranger,T.bmp,1,m,1038
SelfAssociate,12,1,20,right,female,Friend,S.bmp,1,n,880
SelfAssociate,12,1,20,right,female,Self,C.bmp,1,b,715
SelfAssociate,12,1,20,right,female,Friend,S.bmp,1,b,2325
SelfAssociate,12,1,20,right,female,Stranger,T.bmp,1,n,1061
SelfAssociate,12,1,20,right,female,Self,C.bmp,1,n,1163
SelfAssociate,12,1,20,right,female,Stranger,T.bmp,1,m,845
SelfAssociate,12,1,20,right,female,Friend,S.bmp,1,b,949
SelfAssociate,12,1,20,right,female,Stranger,T.bmp,1,n,746
SelfAssociate,12,1,20,right,female,Friend,S.bmp,1,b,1182
SelfAssociate,12,1,20,right,female,Self,C.bmp,1,m,684
SelfAssociate,12,1,20,right,female,Stranger,T.bmp,1,m,1213
SelfAssociate,12,1,20,right,female,Self,C.bmp,1,m,979
SelfAssociate,12,1,20,right,female,Friend,S.bmp,0,n,673
SelfAssociate,12,1,20,right,female,Stranger,T.bmp,1,b,934
SelfAssociate,12,1,20,right,female,Friend,S.bmp,1,m,1030
SelfAssociate,12,1,20,right,female,Stranger,T.bmp,1,m,1226
SelfAssociate,12,1,20,right,female,Stranger,T.bmp,1,b,1302
SelfAssociate,12,1,20,right,female,Friend,S.bmp,1,n,1388
SelfAssociate,12,1,20,right,female,Friend,S.bmp,1,n,848
SelfAssociate,12,1,20,right,female,Stranger,T.bmp,1,n,1265
SelfAssociate,12,1,20,right,female,Friend,S.bmp,1,b,1221
SelfAssociate,12,1,20,right,female,Friend,S.bmp,1,n,1395
SelfAssociate,12,1,20,right,female,Stranger,T.bmp,1,n,813
SelfAssociate,12,1,20,right,female,Stranger,T.bmp,1,b,933
SelfAssociate,12,1,20,right,female,Friend,S.bmp,1,n,901
SelfAssociate,12,1,20,right,female,Friend,S.bmp,1,n,884
SelfAssociate,12,1,20,right,female,Friend,S.bmp,1,m,1494
SelfAssociate,12,1,20,right,female,Friend,S.bmp,1,b,1284
SelfAssociate,12,1,20,right,female,Friend,S.bmp,1,m,1260
SelfAssociate,12,1,20,right,female,Friend,S.bmp,1,m,1266
SelfAssociate,13,1,24,right,male,Self,T.bmp,0,n,2051
SelfAssociate,13,1,24,right,male,Friend,S.bmp,0,,0
SelfAssociate,13,1,24,right,male,Stranger,C.bmp,1,b,1487
SelfAssociate,13,1,24,right,male,Stranger,C.bmp,1,m,1759
SelfAssociate,13,1,24,right,male,Self,T.bmp,1,n,1073
SelfAssociate,13,1,24,right,male,Friend,S.bmp,1,m,1245
SelfAssociate,13,1,24,right,male,Friend,S.bmp,1,m,2077
SelfAssociate,13,1,24,right,male,Self,T.bmp,1,b,1000
SelfAssociate,13,1,24,right,male,Friend,S.bmp,1,n,1546
SelfAssociate,13,1,24,right,male,Stranger,C.bmp,1,n,1110
SelfAssociate,13,1,24,right,male,Self,T.bmp,1,b,1122
SelfAssociate,13,1,24,right,male,Stranger,C.bmp,1,m,1332
SelfAssociate,13,1,24,right,male,Stranger,C.bmp,1,b,1572
SelfAssociate,13,1,24,right,male,Self,T.bmp,1,m,1244
SelfAssociate,13,1,24,right,male,Friend,S.bmp,1,b,1509
SelfAssociate,13,1,24,right,male,Stranger,C.bmp,1,b,1425
SelfAssociate,13,1,24,right,male,Friend,S.bmp,1,m,1525
SelfAssociate,13,1,24,right,male,Self,T.bmp,1,n,869
SelfAssociate,13,1,24,right,male,Friend,S.bmp,1,b,1209
SelfAssociate,13,1,24,right,male,Friend,S.bmp,1,m,1169
SelfAssociate,13,1,24,right,male,Self,T.bmp,1,b,1193
SelfAssociate,13,1,24,right,male,Self,T.bmp,0,m,1076
SelfAssociate,13,1,24,right,male,Friend,S.bmp,1,b,1303
SelfAssociate,13,1,24,right,male,Friend,S.bmp,1,m,933
SelfAssociate,13,1,24,right,male,Self,T.bmp,1,b,997
SelfAssociate,13,1,24,right,male,Self,T.bmp,1,n,1503
SelfAssociate,13,1,24,right,male,Self,T.bmp,1,m,859
SelfAssociate,13,1,24,right,male,Self,T.bmp,1,m,2561
SelfAssociate,13,1,24,right,male,Friend,S.bmp,1,b,1628
SelfAssociate,13,1,24,right,male,Friend,S.bmp,1,n,1088
SelfAssociate,13,1,24,right,male,Self,T.bmp,1,n,816
SelfAssociate,13,1,24,right,male,Self,T.bmp,1,b,798
SelfAssociate,13,1,24,right,male,Self,T.bmp,1,n,832
SelfAssociate,13,1,24,right,male,Self,T.bmp,1,n,901
SelfAssociate,13,1,24,right,male,Self,T.bmp,1,m,1115
SelfAssociate,13,1,24,right,male,Self,T.bmp,1,b,877
SelfAssociate,14,1,21,right,female,Stranger,S.bmp,0,m,1014
SelfAssociate,14,1,21,right,female,Friend,C.bmp,0,n,1150
SelfAssociate,14,1,21,right,female,Stranger,S.bmp,1,n,930
SelfAssociate,14,1,21,right,female,Self,T.bmp,1,n,922
SelfAssociate,14,1,21,right,female,Self,T.bmp,1,b,932
SelfAssociate,14,1,21,right,female,Friend,C.bmp,1,n,972
SelfAssociate,14,1,21,right,female,Stranger,S.bmp,1,n,821
SelfAssociate,14,1,21,right,female,Friend,C.bmp,1,b,875
SelfAssociate,14,1,21,right,female,Friend,C.bmp,1,b,927
SelfAssociate,14,1,21,right,female,Self,T.bmp,1,b,1023
SelfAssociate,14,1,21,right,female,Stranger,S.bmp,0,,0
SelfAssociate,14,1,21,right,female,Self,T.bmp,0,,0
SelfAssociate,14,1,21,right,female,Stranger,S.bmp,1,m,916
SelfAssociate,14,1,21,right,female,Stranger,S.bmp,1,m,886
SelfAssociate,14,1,21,right,female,Friend,C.bmp,1,m,862
SelfAssociate,14,1,21,right,female,Self,T.bmp,1,n,1108
SelfAssociate,14,1,21,right,female,Friend,C.bmp,1,n,1088
SelfAssociate,14,1,21,right,female,Self,T.bmp,1,n,753
SelfAssociate,14,1,21,right,female,Stranger,S.bmp,1,n,925
SelfAssociate,14,1,21,right,female,Self,T.bmp,1,m,919
SelfAssociate,14,1,21,right,female,Stranger,S.bmp,1,b,793
SelfAssociate,14,1,21,right,female,Friend,C.bmp,1,n,869
SelfAssociate,14,1,21,right,female,Friend,C.bmp,1,n,569
SelfAssociate,14,1,21,right,female,Self,T.bmp,1,n,584
SelfAssociate,14,1,21,right,female,Stranger,S.bmp,1,b,662
SelfAssociate,14,1,21,right,female,Stranger,S.bmp,0,b,796
SelfAssociate,14,1,21,right,female,Self,T.bmp,1,n,918
SelfAssociate,14,1,21,right,female,Friend,C.bmp,1,b,849
SelfAssociate,14,1,21,right,female,Self,T.bmp,0,,0
SelfAssociate,14,1,21,right,female,Friend,C.bmp,1,n,733
SelfAssociate,14,1,21,right,female,Stranger,S.bmp,1,b,733
SelfAssociate,14,1,21,right,female,Friend,C.bmp,1,m,797
SelfAssociate,14,1,21,right,female,Self,T.bmp,1,m,919
SelfAssociate,14,1,21,right,female,Self,T.bmp,1,m,817
SelfAssociate,14,1,21,right,female,Friend,C.bmp,1,m,942
SelfAssociate,14,1,21,right,female,Stranger,S.bmp,1,b,708
SelfAssociate,14,1,21,right,female,Self,T.bmp,1,m,881
SelfAssociate,14,1,21,right,female,Stranger,S.bmp,1,m,947
SelfAssociate,14,1,21,right,female,Friend,C.bmp,1,b,623
SelfAssociate,14,1,21,right,female,Self,T.bmp,1,m,885
SelfAssociate,14,1,21,right,female,Stranger,S.bmp,1,n,839
SelfAssociate,14,1,21,right,female,Friend,C.bmp,1,n,713
SelfAssociate,14,1,21,right,female,Self,T.bmp,0,b,885
SelfAssociate,14,1,21,right,female,Self,T.bmp,1,n,903
SelfAssociate,14,1,21,right,female,Stranger,S.bmp,1,m,917
SelfAssociate,14,1,21,right,female,Friend,C.bmp,1,b,1056
SelfAssociate,14,1,21,right,female,Stranger,S.bmp,1,b,1151
SelfAssociate,14,1,21,right,female,Friend,C.bmp,0,n,1211
SelfAssociate,14,1,21,right,female,Self,T.bmp,0,,0
SelfAssociate,14,1,21,right,female,Self,T.bmp,0,m,1007
SelfAssociate,14,1,21,right,female,Friend,C.bmp,1,n,767
SelfAssociate,14,1,21,right,female,Friend,C.bmp,1,b,895
SelfAssociate,14,1,21,right,female,Friend,C.bmp,1,b,551
SelfAssociate,14,1,21,right,female,Self,T.bmp,1,m,835
SelfAssociate,14,1,21,right,female,Self,T.bmp,1,m,735
SelfAssociate,14,1,21,right,female,Friend,C.bmp,1,b,879
SelfAssociate,14,1,21,right,female,Friend,C.bmp,1,n,769
SelfAssociate,14,1,21,right,female,Friend,C.bmp,1,b,658
SelfAssociate,14,1,21,right,female,Self,T.bmp,0,n,840
SelfAssociate,14,1,21,right,female,Self,T.bmp,0,m,985
SelfAssociate,14,1,21,right,female,Self,T.bmp,1,m,959
SelfAssociate,14,1,21,right,female,Self,T.bmp,1,m,851
SelfAssociate,14,1,21,right,female,Self,T.bmp,1,n,1011
SelfAssociate,14,1,21,right,female,Self,T.bmp,1,n,587
SelfAssociate,14,1,21,right,female,Self,T.bmp,1,n,567
SelfAssociate,14,1,21,right,female,Self,T.bmp,1,m,743
SelfAssociate,15,1,21,right,female,Friend,T.bmp,0,n,784
SelfAssociate,15,1,21,right,female,Self,S.bmp,0,m,1612
SelfAssociate,15,1,21,right,female,Stranger,C.bmp,1,n,1173
SelfAssociate,15,1,21,right,female,Stranger,C.bmp,0,b,1269
SelfAssociate,15,1,21,right,female,Friend,T.bmp,1,b,1041
SelfAssociate,15,1,21,right,female,Self,S.bmp,1,b,1051
SelfAssociate,15,1,21,right,female,Stranger,C.bmp,1,n,851
SelfAssociate,15,1,21,right,female,Stranger,C.bmp,1,m,1179
SelfAssociate,15,1,21,right,female,Self,S.bmp,1,b,777
SelfAssociate,15,1,21,right,female,Friend,T.bmp,1,m,1152
SelfAssociate,15,1,21,right,female,Friend,T.bmp,1,n,884
SelfAssociate,15,1,21,right,female,Self,S.bmp,1,m,934
SelfAssociate,15,1,21,right,female,Self,S.bmp,1,b,1190
SelfAssociate,15,1,21,right,female,Friend,T.bmp,1,n,786
SelfAssociate,15,1,21,right,female,Stranger,C.bmp,1,m,1206
SelfAssociate,15,1,21,right,female,Friend,T.bmp,1,n,830
SelfAssociate,15,1,21,right,female,Stranger,C.bmp,1,m,1042
SelfAssociate,15,1,21,right,female,Self,S.bmp,1,m,940
SelfAssociate,15,1,21,right,female,Friend,T.bmp,1,n,634
SelfAssociate,15,1,21,right,female,Self,S.bmp,0,m,1093
SelfAssociate,15,1,21,right,female,Self,S.bmp,1,b,1117
SelfAssociate,15,1,21,right,female,Friend,T.bmp,1,m,1103
SelfAssociate,15,1,21,right,female,Stranger,C.bmp,1,b,869
SelfAssociate,15,1,21,right,female,Stranger,C.bmp,1,n,841
SelfAssociate,15,1,21,right,female,Friend,T.bmp,1,m,787
SelfAssociate,15,1,21,right,female,Friend,T.bmp,1,n,728
SelfAssociate,15,1,21,right,female,Self,S.bmp,0,m,1568
SelfAssociate,15,1,21,right,female,Self,S.bmp,1,m,960
SelfAssociate,15,1,21,right,female,Self,S.bmp,1,b,730
SelfAssociate,15,1,21,right,female,Friend,T.bmp,1,m,1194
SelfAssociate,15,1,21,right,female,Friend,T.bmp,1,n,772
SelfAssociate,15,1,21,right,female,Self,S.bmp,1,m,989
SelfAssociate,15,1,21,right,female,Self,S.bmp,0,b,1273
SelfAssociate,15,1,21,right,female,Friend,T.bmp,1,m,1069
SelfAssociate,15,1,21,right,female,Friend,T.bmp,1,n,705
SelfAssociate,15,1,21,right,female,Self,S.bmp,1,m,893
SelfAssociate,15,1,21,right,female,Self,S.bmp,1,m,661
SelfAssociate,15,1,21,right,female,Self,S.bmp,0,,0
SelfAssociate,15,1,21,right,female,Self,S.bmp,1,b,1079
SelfAssociate,15,1,21,right,female,Self,S.bmp,1,m,649
SelfAssociate,15,1,21,right,female,Self,S.bmp,1,m,873
SelfAssociate,15,1,21,right,female,Self,S.bmp,1,b,653
SelfAssociate,15,1,21,right,female,Self,S.bmp,1,b,718
SelfAssociate,15,1,21,right,female,Self,S.bmp,1,m,536
SelfAssociate,16,1,24,right,female,Stranger,T.bmp,1,m,904
SelfAssociate,16,1,24,right,female,Friend,C.bmp,0,m,954
SelfAssociate,16,1,24,right,female,Stranger,T.bmp,1,n,1218
SelfAssociate,16,1,24,right,female,Friend,C.bmp,1,n,1072
SelfAssociate,16,1,24,right,female,Self,S.bmp,1,n,804
SelfAssociate,16,1,24,right,female,Self,S.bmp,0,n,910
SelfAssociate,16,1,24,right,female,Friend,C.bmp,1,b,819
SelfAssociate,16,1,24,right,female,Stranger,T.bmp,1,n,1257
SelfAssociate,16,1,24,right,female,Stranger,T.bmp,1,n,903
SelfAssociate,16,1,24,right,female,Self,S.bmp,1,m,1757
SelfAssociate,16,1,24,right,female,Self,S.bmp,1,n,1183
SelfAssociate,16,1,24,right,female,Friend,C.bmp,1,m,829
SelfAssociate,16,1,24,right,female,Friend,C.bmp,1,b,873
SelfAssociate,16,1,24,right,female,Stranger,T.bmp,1,b,796
SelfAssociate,16,1,24,right,female,Friend,C.bmp,1,n,822
SelfAssociate,16,1,24,right,female,Stranger,T.bmp,1,n,748
SelfAssociate,16,1,24,right,female,Self,S.bmp,1,n,880
SelfAssociate,16,1,24,right,female,Self,S.bmp,0,n,739
SelfAssociate,16,1,24,right,female,Self,S.bmp,1,n,729
SelfAssociate,16,1,24,right,female,Friend,C.bmp,1,n,633
SelfAssociate,16,1,24,right,female,Friend,C.bmp,1,b,1197
SelfAssociate,16,1,24,right,female,Self,S.bmp,1,b,1303
SelfAssociate,16,1,24,right,female,Self,S.bmp,1,n,797
SelfAssociate,16,1,24,right,female,Friend,C.bmp,1,m,687
SelfAssociate,16,1,24,right,female,Self,S.bmp,0,,0
SelfAssociate,16,1,24,right,female,Friend,C.bmp,1,n,875
SelfAssociate,16,1,24,right,female,Self,S.bmp,1,b,1318
SelfAssociate,16,1,24,right,female,Friend,C.bmp,1,b,704
SelfAssociate,16,1,24,right,female,Friend,C.bmp,0,b,1495
SelfAssociate,16,1,24,right,female,Self,S.bmp,0,n,1111
SelfAssociate,16,1,24,right,female,Self,S.bmp,1,b,835
SelfAssociate,16,1,24,right,female,Friend,C.bmp,1,m,1375
SelfAssociate,16,1,24,right,female,Self,S.bmp,1,b,1263
SelfAssociate,16,1,24,right,female,Friend,C.bmp,1,n,701
SelfAssociate,16,1,24,right,female,Friend,C.bmp,1,m,1283
SelfAssociate,16,1,24,right,female,Self,S.bmp,1,b,933
SelfAssociate,16,1,24,right,female,Friend,C.bmp,1,b,1333
SelfAssociate,16,1,24,right,female,Self,S.bmp,0,n,869
SelfAssociate,16,1,24,right,female,Friend,C.bmp,1,m,1281
SelfAssociate,16,1,24,right,female,Self,S.bmp,1,b,899
SelfAssociate,16,1,24,right,female,Self,S.bmp,0,n,1105
SelfAssociate,16,1,24,right,female,Friend,C.bmp,1,m,855
SelfAssociate,16,1,24,right,female,Self,S.bmp,1,n,983
SelfAssociate,16,1,24,right,female,Self,S.bmp,1,m,637
SelfAssociate,16,1,24,right,female,Self,S.bmp,1,m,583
SelfAssociate,16,1,24,right,female,Self,S.bmp,1,m,781
SelfAssociate,16,1,24,right,female,Self,S.bmp,0,m,491
SelfAssociate,16,1,24,right,female,Self,S.bmp,1,n,699
SelfAssociate,16,1,24,right,female,Self,S.bmp,1,n,609
SelfAssociate,16,1,24,right,female,Self,S.bmp,1,n,529
SelfAssociate,16,1,24,right,female,Self,S.bmp,1,m,801
SelfAssociate,16,1,24,right,female,Self,S.bmp,1,b,636
SelfAssociate,16,1,24,right,female,Self,S.bmp,1,n,552
SelfAssociate,17,1,25,right,male,Friend,T.bmp,0,m,1305
SelfAssociate,17,1,25,right,male,Self,C.bmp,1,m,1461
SelfAssociate,17,1,25,right,male,Stranger,S.bmp,1,b,1091
SelfAssociate,17,1,25,right,male,Stranger,S.bmp,1,m,939
SelfAssociate,17,1,25,right,male,Self,C.bmp,1,b,1153
SelfAssociate,17,1,25,right,male,Friend,T.bmp,1,m,1076
SelfAssociate,17,1,25,right,male,Friend,T.bmp,1,n,990
SelfAssociate,17,1,25,right,male,Stranger,S.bmp,1,n,1450
SelfAssociate,17,1,25,right,male,Stranger,S.bmp,0,n,1714
SelfAssociate,17,1,25,right,male,Friend,T.bmp,1,m,1716
SelfAssociate,17,1,25,right,male,Self,C.bmp,1,n,878
SelfAssociate,17,1,25,right,male,Self,C.bmp,1,m,960
SelfAssociate,17,1,25,right,male,Stranger,S.bmp,0,m,1051
SelfAssociate,17,1,25,right,male,Stranger,S.bmp,1,n,1043
SelfAssociate,17,1,25,right,male,Friend,T.bmp,1,m,1373
SelfAssociate,17,1,25,right,male,Self,C.bmp,1,n,717
SelfAssociate,17,1,25,right,male,Friend,T.bmp,1,m,1015
SelfAssociate,17,1,25,right,male,Self,C.bmp,1,m,1013
SelfAssociate,17,1,25,right,male,Friend,T.bmp,1,m,1077
SelfAssociate,17,1,25,right,male,Friend,T.bmp,1,b,1175
SelfAssociate,17,1,25,right,male,Stranger,S.bmp,1,m,1006
SelfAssociate,17,1,25,right,male,Stranger,S.bmp,1,m,902
SelfAssociate,17,1,25,right,male,Stranger,S.bmp,1,b,1092
SelfAssociate,17,1,25,right,male,Friend,T.bmp,1,n,1404
SelfAssociate,17,1,25,right,male,Friend,T.bmp,1,m,1012
SelfAssociate,17,1,25,right,male,Stranger,S.bmp,1,b,916
SelfAssociate,17,1,25,right,male,Stranger,S.bmp,1,m,1070
SelfAssociate,17,1,25,right,male,Friend,T.bmp,1,m,914
SelfAssociate,17,1,25,right,male,Stranger,S.bmp,1,b,1046
SelfAssociate,17,1,25,right,male,Friend,T.bmp,1,b,1022
SelfAssociate,18,1,24,right,male,Stranger,T.bmp,1,m,1053
SelfAssociate,18,1,24,right,male,Friend,S.bmp,1,b,1157
SelfAssociate,18,1,24,right,male,Stranger,T.bmp,1,n,959
SelfAssociate,18,1,24,right,male,Friend,S.bmp,1,m,1002
SelfAssociate,18,1,24,right,male,Self,C.bmp,1,n,788
SelfAssociate,18,1,24,right,male,Self,C.bmp,1,m,880
SelfAssociate,18,1,24,right,male,Self,C.bmp,1,m,802
SelfAssociate,18,1,24,right,male,Self,C.bmp,1,m,780
SelfAssociate,18,1,24,right,male,Friend,S.bmp,1,n,1131
SelfAssociate,18,1,24,right,male,Stranger,T.bmp,1,m,923
SelfAssociate,18,1,24,right,male,Stranger,T.bmp,1,m,813
SelfAssociate,18,1,24,right,male,Friend,S.bmp,1,m,1157
SelfAssociate,18,1,24,right,male,Self,C.bmp,1,m,903
SelfAssociate,18,1,24,right,male,Stranger,T.bmp,1,m,757
SelfAssociate,18,1,24,right,male,Stranger,T.bmp,1,b,1079
SelfAssociate,18,1,24,right,male,Friend,S.bmp,1,b,1049
SelfAssociate,18,1,24,right,male,Self,C.bmp,1,b,1129
SelfAssociate,18,1,24,right,male,Friend,S.bmp,0,n,1033
SelfAssociate,18,1,24,right,male,Friend,S.bmp,0,,0
SelfAssociate,18,1,24,right,male,Friend,S.bmp,1,n,1504
SelfAssociate,18,1,24,right,male,Friend,S.bmp,0,n,1228
SelfAssociate,18,1,24,right,male,Friend,S.bmp,1,m,1056
SelfAssociate,18,1,24,right,male,Friend,S.bmp,1,m,790
SelfAssociate,18,1,24,right,male,Friend,S.bmp,1,b,1002
SelfAssociate,18,1,24,right,male,Friend,S.bmp,1,b,893
SelfAssociate,18,1,24,right,male,Friend,S.bmp,1,m,741
SelfAssociate,18,1,24,right,male,Friend,S.bmp,1,m,851
SelfAssociate,19,1,25,right,male,Self,T.bmp,1,n,1149
SelfAssociate,19,1,25,right,male,Stranger,C.bmp,0,n,1176
SelfAssociate,19,1,25,right,male,Stranger,C.bmp,1,m,934
SelfAssociate,19,1,25,right,male,Friend,S.bmp,0,n,1036
SelfAssociate,19,1,25,right,male,Friend,S.bmp,0,,0
SelfAssociate,19,1,25,right,male,Self,T.bmp,1,n,923
SelfAssociate,19,1,25,right,male,Friend,S.bmp,1,m,821
SelfAssociate,19,1,25,right,male,Self,T.bmp,1,m,1259
SelfAssociate,19,1,25,right,male,Stranger,C.bmp,0,n,785
SelfAssociate,19,1,25,right,male,Self,T.bmp,0,n,1526
SelfAssociate,19,1,25,right,male,Friend,S.bmp,0,,0
SelfAssociate,19,1,25,right,male,Stranger,C.bmp,0,m,956
SelfAssociate,19,1,25,right,male,Friend,S.bmp,1,n,1174
SelfAssociate,19,1,25,right,male,Self,T.bmp,1,n,1028
SelfAssociate,19,1,25,right,male,Self,T.bmp,0,n,728
SelfAssociate,19,1,25,right,male,Stranger,C.bmp,1,m,1097
SelfAssociate,19,1,25,right,male,Stranger,C.bmp,1,b,1343
SelfAssociate,19,1,25,right,male,Friend,S.bmp,1,m,924
SelfAssociate,19,1,25,right,male,Friend,S.bmp,1,n,1588
SelfAssociate,19,1,25,right,male,Stranger,C.bmp,0,,0
SelfAssociate,19,1,25,right,male,Self,T.bmp,1,m,1005
SelfAssociate,19,1,25,right,male,Self,T.bmp,1,n,989
SelfAssociate,19,1,25,right,male,Stranger,C.bmp,0,b,1217
SelfAssociate,19,1,25,right,male,Friend,S.bmp,1,b,1183
SelfAssociate,19,1,25,right,male,Stranger,C.bmp,0,m,1253
SelfAssociate,19,1,25,right,male,Self,T.bmp,0,n,1237
SelfAssociate,19,1,25,right,male,Friend,S.bmp,0,,0
SelfAssociate,19,1,25,right,male,Friend,S.bmp,1,m,996
SelfAssociate,19,1,25,right,male,Self,T.bmp,1,m,1230
SelfAssociate,19,1,25,right,male,Stranger,C.bmp,0,n,1058
SelfAssociate,19,1,25,right,male,Friend,S.bmp,1,m,1168
SelfAssociate,19,1,25,right,male,Self,T.bmp,0,n,992
SelfAssociate,19,1,25,right,male,Stranger,C.bmp,0,b,1900
SelfAssociate,19,1,25,right,male,Friend,S.bmp,1,m,1075
SelfAssociate,19,1,25,right,male,Stranger,C.bmp,0,b,1245
SelfAssociate,19,1,25,right,male,Self,T.bmp,1,n,1237
SelfAssociate,19,1,25,right,male,Self,T.bmp,1,b,974
SelfAssociate,19,1,25,right,male,Stranger,C.bmp,0,m,1502
SelfAssociate,19,1,25,right,male,Self,T.bmp,1,m,1836
SelfAssociate,19,1,25,right,male,Stranger,C.bmp,0,n,910
SelfAssociate,19,1,25,right,male,Friend,S.bmp,1,m,1107
SelfAssociate,19,1,25,right,male,Friend,S.bmp,1,m,919
SelfAssociate,19,1,25,right,male,Friend,S.bmp,1,m,881
SelfAssociate,19,1,25,right,male,Stranger,C.bmp,1,m,1099
SelfAssociate,19,1,25,right,male,Self,T.bmp,0,b,1297
SelfAssociate,19,1,25,right,male,Friend,S.bmp,1,n,1080
SelfAssociate,19,1,25,right,male,Self,T.bmp,1,n,1170
SelfAssociate,19,1,25,right,male,Stranger,C.bmp,0,m,882
SelfAssociate,19,1,25,right,male,Self,T.bmp,1,b,1164
SelfAssociate,19,1,25,right,male,Self,T.bmp,1,b,780
SelfAssociate,19,1,25,right,male,Friend,S.bmp,0,n,1634
SelfAssociate,19,1,25,right,male,Friend,S.bmp,1,m,1085
SelfAssociate,19,1,25,right,male,Stranger,C.bmp,1,b,1692
SelfAssociate,19,1,25,right,male,Stranger,C.bmp,1,m,892
SelfAssociate,19,1,25,right,male,Stranger,C.bmp,1,b,1060
SelfAssociate,19,1,25,right,male,Stranger,C.bmp,1,n,1162
SelfAssociate,19,1,25,right,male,Friend,S.bmp,1,n,1116
SelfAssociate,19,1,25,right,male,Self,T.bmp,1,b,1143
SelfAssociate,19,1,25,right,male,Self,T.bmp,1,b,709
SelfAssociate,19,1,25,right,male,Friend,S.bmp,1,n,1025
SelfAssociate,19,1,25,right,male,Friend,S.bmp,1,n,1021
SelfAssociate,19,1,25,right,male,Friend,S.bmp,1,b,931
SelfAssociate,19,1,25,right,male,Self,T.bmp,1,m,1003
SelfAssociate,19,1,25,right,male,Self,T.bmp,1,b,870
SelfAssociate,19,1,25,right,male,Stranger,C.bmp,0,n,1250
SelfAssociate,19,1,25,right,male,Stranger,C.bmp,0,b,1130
SelfAssociate,19,1,25,right,male,Friend,S.bmp,1,n,1218
SelfAssociate,19,1,25,right,male,Self,T.bmp,1,m,992
SelfAssociate,19,1,25,right,male,Self,T.bmp,1,n,1156
SelfAssociate,19,1,25,right,male,Stranger,C.bmp,0,b,1238
SelfAssociate,19,1,25,right,male,Stranger,C.bmp,1,n,1017
SelfAssociate,19,1,25,right,male,Friend,S.bmp,1,n,966
SelfAssociate,19,1,25,right,male,Stranger,C.bmp,0,m,1312
SelfAssociate,19,1,25,right,male,Friend,S.bmp,1,b,1420
SelfAssociate,19,1,25,right,male,Self,T.bmp,1,b,850
SelfAssociate,19,1,25,right,male,Self,T.bmp,1,m,1226
SelfAssociate,19,1,25,right,male,Stranger,C.bmp,1,b,1351
SelfAssociate,19,1,25,right,male,Friend,S.bmp,0,n,1075
SelfAssociate,19,1,25,right,male,Friend,S.bmp,1,b,1197
SelfAssociate,19,1,25,right,male,Stranger,C.bmp,0,m,1007
SelfAssociate,19,1,25,right,male,Friend,S.bmp,1,m,1207
SelfAssociate,19,1,25,right,male,Self,T.bmp,0,b,1199
SelfAssociate,19,1,25,right,male,Stranger,C.bmp,0,b,956
SelfAssociate,19,1,25,right,male,Self,T.bmp,1,m,1445
SelfAssociate,19,1,25,right,male,Friend,S.bmp,0,n,1230
SelfAssociate,19,1,25,right,male,Self,T.bmp,0,,0
SelfAssociate,19,1,25,right,male,Friend,S.bmp,1,n,1606
SelfAssociate,19,1,25,right,male,Stranger,C.bmp,0,b,1198
SelfAssociate,19,1,25,right,male,Stranger,C.bmp,1,n,928
SelfAssociate,19,1,25,right,male,Self,T.bmp,1,n,1561
SelfAssociate,19,1,25,right,male,Friend,S.bmp,1,n,1586
SelfAssociate,19,1,25,right,male,Friend,S.bmp,1,n,926
SelfAssociate,19,1,25,right,male,Self,T.bmp,1,m,846
SelfAssociate,19,1,25,right,male,Stranger,C.bmp,1,b,982
SelfAssociate,19,1,25,right,male,Self,T.bmp,1,n,1085
SelfAssociate,19,1,25,right,male,Stranger,C.bmp,1,b,1045
SelfAssociate,19,1,25,right,male,Friend,S.bmp,1,n,1053
SelfAssociate,19,1,25,right,male,Friend,S.bmp,1,b,1125
SelfAssociate,19,1,25,right,male,Stranger,C.bmp,1,n,1477
SelfAssociate,19,1,25,right,male,Stranger,C.bmp,1,m,903
SelfAssociate,19,1,25,right,male,Self,T.bmp,1,b,1005
SelfAssociate,19,1,25,right,male,Self,T.bmp,1,n,1022
SelfAssociate,19,1,25,right,male,Self,T.bmp,1,b,852
SelfAssociate,19,1,25,right,male,Stranger,C.bmp,1,m,892
SelfAssociate,19,1,25,right,male,Self,T.bmp,1,n,996
SelfAssociate,19,1,25,right,male,Friend,S.bmp,1,n,1254
SelfAssociate,19,1,25,right,male,Friend,S.bmp,1,b,964
SelfAssociate,19,1,25,right,male,Stranger,C.bmp,1,b,1103
SelfAssociate,19,1,25,right,male,Friend,S.bmp,1,b,1052
SelfAssociate,19,1,25,right,male,Stranger,C.bmp,1,n,1524
SelfAssociate,19,1,25,right,male,Self,T.bmp,0,b,1036
SelfAssociate,19,1,25,right,male,Self,T.bmp,0,n,62
SelfAssociate,19,1,25,right,male,Friend,S.bmp,1,m,1852
SelfAssociate,19,1,25,right,male,Stranger,C.bmp,1,n,1172
SelfAssociate,19,1,25,right,male,Friend,S.bmp,1,b,1477
SelfAssociate,19,1,25,right,male,Stranger,C.bmp,1,b,1191
SelfAssociate,19,1,25,right,male,Self,T.bmp,1,n,1011
SelfAssociate,19,1,25,right,male,Self,T.bmp,1,m,899
SelfAssociate,19,1,25,right,male,Friend,S.bmp,1,n,1225
SelfAssociate,19,1,25,right,male,Stranger,C.bmp,1,n,1021
SelfAssociate,19,1,25,right,male,Stranger,C.bmp,1,n,996
SelfAssociate,19,1,25,right,male,Friend,S.bmp,1,n,1006
SelfAssociate,19,1,25,right,male,Friend,S.bmp,1,m,1054
SelfAssociate,19,1,25,right,male,Self,T.bmp,1,n,1012
SelfAssociate,19,1,25,right,male,Stranger,C.bmp,1,n,1132
SelfAssociate,19,1,25,right,male,Self,T.bmp,1,m,1100
SelfAssociate,19,1,25,right,male,Stranger,C.bmp,1,b,1202
SelfAssociate,19,1,25,right,male,Self,T.bmp,1,b,1068
SelfAssociate,19,1,25,right,male,Stranger,C.bmp,1,m,1488
SelfAssociate,19,1,25,right,male,Friend,S.bmp,1,b,912
SelfAssociate,19,1,25,right,male,Self,T.bmp,1,m,844
SelfAssociate,19,1,25,right,male,Friend,S.bmp,1,m,1404
SelfAssociate,19,1,25,right,male,Friend,S.bmp,1,n,820
SelfAssociate,19,1,25,right,male,Stranger,C.bmp,1,n,987
SelfAssociate,19,1,25,right,male,Friend,S.bmp,1,m,1047
SelfAssociate,19,1,25,right,male,Stranger,C.bmp,1,m,1407
SelfAssociate,19,1,25,right,male,Stranger,C.bmp,1,b,1399
SelfAssociate,19,1,25,right,male,Stranger,C.bmp,1,n,929
SelfAssociate,19,1,25,right,male,Friend,S.bmp,1,b,1017
SelfAssociate,19,1,25,right,male,Friend,S.bmp,1,n,1296
SelfAssociate,19,1,25,right,male,Friend,S.bmp,1,n,830
SelfAssociate,19,1,25,right,male,Stranger,C.bmp,1,b,1130
SelfAssociate,19,1,25,right,male,Stranger,C.bmp,1,m,986
SelfAssociate,19,1,25,right,male,Friend,S.bmp,1,b,1166
SelfAssociate,2,1,30,right,male,Self,T.bmp,1,m,803
SelfAssociate,2,1,30,right,male,Friend,C.bmp,1,n,973
SelfAssociate,2,1,30,right,male,Self,T.bmp,1,n,1229
SelfAssociate,2,1,30,right,male,Friend,C.bmp,1,n,954
SelfAssociate,2,1,30,right,male,Stranger,S.bmp,1,n,798
SelfAssociate,2,1,30,right,male,Stranger,S.bmp,1,b,808
SelfAssociate,2,1,30,right,male,Stranger,S.bmp,1,n,752
SelfAssociate,2,1,30,right,male,Stranger,S.bmp,1,b,884
SelfAssociate,2,1,30,right,male,Self,T.bmp,1,m,958
SelfAssociate,2,1,30,right,male,Friend,C.bmp,1,n,865
SelfAssociate,2,1,30,right,male,Self,T.bmp,1,n,1191
SelfAssociate,2,1,30,right,male,Friend,C.bmp,1,n,1100
SelfAssociate,2,1,30,right,male,Stranger,S.bmp,1,b,826
SelfAssociate,2,1,30,right,male,Stranger,S.bmp,0,m,1056
SelfAssociate,2,1,30,right,male,Self,T.bmp,0,,0
SelfAssociate,2,1,30,right,male,Self,T.bmp,0,n,884
SelfAssociate,2,1,30,right,male,Friend,C.bmp,0,n,710
SelfAssociate,2,1,30,right,male,Friend,C.bmp,1,n,914
SelfAssociate,2,1,30,right,male,Self,T.bmp,1,n,822
SelfAssociate,2,1,30,right,male,Friend,C.bmp,1,m,1124
SelfAssociate,2,1,30,right,male,Stranger,S.bmp,0,m,1021
SelfAssociate,2,1,30,right,male,Stranger,S.bmp,1,n,740
SelfAssociate,2,1,30,right,male,Friend,C.bmp,1,m,994
SelfAssociate,2,1,30,right,male,Self,T.bmp,1,n,678
SelfAssociate,2,1,30,right,male,Friend,C.bmp,1,n,800
SelfAssociate,2,1,30,right,male,Self,T.bmp,1,n,634
SelfAssociate,2,1,30,right,male,Stranger,S.bmp,1,m,1006
SelfAssociate,2,1,30,right,male,Stranger,S.bmp,1,b,1238
SelfAssociate,2,1,30,right,male,Friend,C.bmp,0,n,816
SelfAssociate,2,1,30,right,male,Self,T.bmp,1,m,838
SelfAssociate,2,1,30,right,male,Self,T.bmp,1,n,825
SelfAssociate,2,1,30,right,male,Friend,C.bmp,1,n,630
SelfAssociate,2,1,30,right,male,Stranger,S.bmp,0,m,986
SelfAssociate,2,1,30,right,male,Friend,C.bmp,1,n,1016
SelfAssociate,2,1,30,right,male,Self,T.bmp,1,n,830
SelfAssociate,2,1,30,right,male,Stranger,S.bmp,0,m,1034
SelfAssociate,2,1,30,right,male,Stranger,S.bmp,1,b,910
SelfAssociate,2,1,30,right,male,Friend,C.bmp,1,n,1194
SelfAssociate,2,1,30,right,male,Friend,C.bmp,1,n,598
SelfAssociate,2,1,30,right,male,Stranger,S.bmp,1,n,920
SelfAssociate,2,1,30,right,male,Stranger,S.bmp,1,n,643
SelfAssociate,2,1,30,right,male,Friend,C.bmp,1,n,1133
SelfAssociate,2,1,30,right,male,Stranger,S.bmp,1,n,732
SelfAssociate,2,1,30,right,male,Friend,C.bmp,0,,0
SelfAssociate,2,1,30,right,male,Stranger,S.bmp,1,n,1208
SelfAssociate,2,1,30,right,male,Friend,C.bmp,1,n,864
SelfAssociate,2,1,30,right,male,Friend,C.bmp,1,b,1086
SelfAssociate,2,1,30,right,male,Stranger,S.bmp,1,m,894
SelfAssociate,2,1,30,right,male,Friend,C.bmp,1,b,894
SelfAssociate,2,1,30,right,male,Friend,C.bmp,1,n,655
SelfAssociate,2,1,30,right,male,Friend,C.bmp,1,m,1007
SelfAssociate,2,1,30,right,male,Friend,C.bmp,1,m,911
SelfAssociate,2,1,30,right,male,Friend,C.bmp,1,n,699
SelfAssociate,2,1,30,right,male,Friend,C.bmp,1,n,656
SelfAssociate,20,1,19,right,female,Self,T.bmp,1,b,802
SelfAssociate,20,1,19,right,female,Stranger,S.bmp,1,m,1316
SelfAssociate,20,1,19,right,female,Self,T.bmp,1,b,1191
SelfAssociate,20,1,19,right,female,Stranger,S.bmp,1,n,1187
SelfAssociate,20,1,19,right,female,Friend,C.bmp,1,m,927
SelfAssociate,20,1,19,right,female,Friend,C.bmp,1,m,1599
SelfAssociate,20,1,19,right,female,Friend,C.bmp,1,m,1201
SelfAssociate,20,1,19,right,female,Stranger,S.bmp,1,b,1195
SelfAssociate,20,1,19,right,female,Friend,C.bmp,1,n,1189
SelfAssociate,20,1,19,right,female,Self,T.bmp,0,b,956
SelfAssociate,20,1,19,right,female,Stranger,S.bmp,1,n,1269
SelfAssociate,20,1,19,right,female,Self,T.bmp,1,m,1153
SelfAssociate,20,1,19,right,female,Friend,C.bmp,1,n,939
SelfAssociate,20,1,19,right,female,Stranger,S.bmp,1,m,1593
SelfAssociate,20,1,19,right,female,Friend,C.bmp,1,b,1084
SelfAssociate,20,1,19,right,female,Self,T.bmp,1,m,828
SelfAssociate,20,1,19,right,female,Stranger,S.bmp,1,n,1176
SelfAssociate,20,1,19,right,female,Self,T.bmp,1,n,1326
SelfAssociate,20,1,19,right,female,Self,T.bmp,0,m,1198
SelfAssociate,20,1,19,right,female,Self,T.bmp,1,m,1176
SelfAssociate,20,1,19,right,female,Self,T.bmp,1,n,2662
SelfAssociate,20,1,19,right,female,Self,T.bmp,1,n,829
SelfAssociate,20,1,19,right,female,Self,T.bmp,1,b,857
SelfAssociate,20,1,19,right,female,Self,T.bmp,1,b,975
SelfAssociate,20,1,19,right,female,Self,T.bmp,1,m,1071
SelfAssociate,21,1,20,right,male,Self,S.bmp,0,,0
SelfAssociate,21,1,20,right,male,Self,S.bmp,1,b,1278
SelfAssociate,21,1,20,right,male,Friend,T.bmp,0,,0
SelfAssociate,21,1,20,right,male,Friend,T.bmp,1,m,948
SelfAssociate,21,1,20,right,male,Stranger,C.bmp,1,n,1152
SelfAssociate,21,1,20,right,male,Stranger,C.bmp,1,n,725
SelfAssociate,21,1,20,right,male,Stranger,C.bmp,1,b,749
SelfAssociate,21,1,20,right,male,Self,S.bmp,1,b,673
SelfAssociate,21,1,20,right,male,Friend,T.bmp,1,b,821
SelfAssociate,21,1,20,right,male,Friend,T.bmp,1,m,1124
SelfAssociate,21,1,20,right,male,Stranger,C.bmp,1,m,870
SelfAssociate,21,1,20,right,male,Self,S.bmp,1,b,546
SelfAssociate,21,1,20,right,male,Self,S.bmp,1,b,517
SelfAssociate,21,1,20,right,male,Friend,T.bmp,1,m,599
SelfAssociate,21,1,20,right,male,Self,S.bmp,0,,0
SelfAssociate,21,1,20,right,male,Stranger,C.bmp,1,b,998
SelfAssociate,21,1,20,right,male,Stranger,C.bmp,1,n,928
SelfAssociate,21,1,20,right,male,Friend,T.bmp,1,m,1088
SelfAssociate,21,1,20,right,male,Self,S.bmp,1,n,776
SelfAssociate,21,1,20,right,male,Friend,T.bmp,1,m,1151
SelfAssociate,21,1,20,right,male,Self,S.bmp,1,b,675
SelfAssociate,21,1,20,right,male,Friend,T.bmp,1,b,981
SelfAssociate,21,1,20,right,male,Self,S.bmp,1,n,603
SelfAssociate,21,1,20,right,male,Friend,T.bmp,1,m,797
SelfAssociate,21,1,20,right,male,Self,S.bmp,1,n,784
SelfAssociate,21,1,20,right,male,Friend,T.bmp,0,n,1302
SelfAssociate,21,1,20,right,male,Self,S.bmp,1,m,1107
SelfAssociate,21,1,20,right,male,Friend,T.bmp,0,n,1199
SelfAssociate,21,1,20,right,male,Self,S.bmp,1,m,1433
SelfAssociate,21,1,20,right,male,Friend,T.bmp,0,b,1043
SelfAssociate,21,1,20,right,male,Friend,T.bmp,1,b,1524
SelfAssociate,21,1,20,right,male,Friend,T.bmp,0,,0
SelfAssociate,21,1,20,right,male,Friend,T.bmp,1,m,1776
SelfAssociate,21,1,20,right,male,Friend,T.bmp,1,n,1470
SelfAssociate,21,1,20,right,male,Friend,T.bmp,1,n,714
SelfAssociate,21,1,20,right,male,Friend,T.bmp,1,b,1037
SelfAssociate,21,1,20,right,male,Friend,T.bmp,1,b,743
SelfAssociate,21,1,20,right,male,Friend,T.bmp,1,n,797
SelfAssociate,22,1,21,right,male,Stranger,T.bmp,0,,0
SelfAssociate,22,1,21,right,male,Friend,C.bmp,1,m,1047
SelfAssociate,22,1,21,right,male,Friend,C.bmp,1,m,687
SelfAssociate,22,1,21,right,male,Self,S.bmp,0,n,1079
SelfAssociate,22,1,21,right,male,Stranger,T.bmp,1,n,1193
SelfAssociate,22,1,21,right,male,Self,S.bmp,0,n,901
SelfAssociate,22,1,21,right,male,Self,S.bmp,1,b,868
SelfAssociate,22,1,21,right,male,Stranger,T.bmp,1,n,743
SelfAssociate,22,1,21,right,male,Friend,C.bmp,1,b,621
SelfAssociate,22,1,21,right,male,Friend,C.bmp,1,n,659
SelfAssociate,22,1,21,right,male,Self,S.bmp,0,m,921
SelfAssociate,22,1,21,right,male,Stranger,T.bmp,1,n,843
SelfAssociate,22,1,21,right,male,Stranger,T.bmp,1,n,589
SelfAssociate,22,1,21,right,male,Self,S.bmp,0,n,938
SelfAssociate,22,1,21,right,male,Friend,C.bmp,0,,0
SelfAssociate,22,1,21,right,male,Self,S.bmp,0,,0
SelfAssociate,22,1,21,right,male,Stranger,T.bmp,1,n,768
SelfAssociate,22,1,21,right,male,Friend,C.bmp,1,n,799
SelfAssociate,22,1,21,right,male,Self,S.bmp,0,,0
SelfAssociate,22,1,21,right,male,Friend,C.bmp,1,b,973
SelfAssociate,22,1,21,right,male,Friend,C.bmp,1,n,669
SelfAssociate,22,1,21,right,male,Self,S.bmp,1,m,1154
SelfAssociate,22,1,21,right,male,Stranger,T.bmp,1,n,758
SelfAssociate,22,1,21,right,male,Stranger,T.bmp,1,n,632
SelfAssociate,22,1,21,right,male,Stranger,T.bmp,1,b,836
SelfAssociate,22,1,21,right,male,Self,S.bmp,1,b,1152
SelfAssociate,22,1,21,right,male,Friend,C.bmp,1,n,747
SelfAssociate,22,1,21,right,male,Friend,C.bmp,1,b,615
SelfAssociate,22,1,21,right,male,Self,S.bmp,0,b,871
SelfAssociate,22,1,21,right,male,Stranger,T.bmp,1,m,843
SelfAssociate,22,1,21,right,male,Friend,C.bmp,1,b,670
SelfAssociate,22,1,21,right,male,Self,S.bmp,1,m,826
SelfAssociate,22,1,21,right,male,Stranger,T.bmp,1,b,744
SelfAssociate,22,1,21,right,male,Friend,C.bmp,1,n,654
SelfAssociate,22,1,21,right,male,Self,S.bmp,1,b,1134
SelfAssociate,22,1,21,right,male,Stranger,T.bmp,1,b,958
SelfAssociate,22,1,21,right,male,Self,S.bmp,1,n,954
SelfAssociate,22,1,21,right,male,Stranger,T.bmp,1,m,797
SelfAssociate,22,1,21,right,male,Friend,C.bmp,1,b,616
SelfAssociate,22,1,21,right,male,Stranger,T.bmp,1,n,1112
SelfAssociate,22,1,21,right,male,Self,S.bmp,1,n,1132
SelfAssociate,22,1,21,right,male,Friend,C.bmp,1,m,644
SelfAssociate,22,1,21,right,male,Self,S.bmp,1,b,854
SelfAssociate,22,1,21,right,male,Friend,C.bmp,1,m,598
SelfAssociate,22,1,21,right,male,Friend,C.bmp,1,n,856
SelfAssociate,22,1,21,right,male,Stranger,T.bmp,1,n,632
SelfAssociate,22,1,21,right,male,Stranger,T.bmp,0,n,1116
SelfAssociate,22,1,21,right,male,Self,S.bmp,1,b,1013
SelfAssociate,22,1,21,right,male,Stranger,T.bmp,0,b,1038
SelfAssociate,22,1,21,right,male,Friend,C.bmp,0,b,896
SelfAssociate,22,1,21,right,male,Friend,C.bmp,1,b,1096
SelfAssociate,22,1,21,right,male,Stranger,T.bmp,1,m,702
SelfAssociate,22,1,21,right,male,Friend,C.bmp,1,n,996
SelfAssociate,22,1,21,right,male,Friend,C.bmp,1,m,646
SelfAssociate,22,1,21,right,male,Stranger,T.bmp,1,n,1032
SelfAssociate,22,1,21,right,male,Stranger,T.bmp,1,b,724
SelfAssociate,22,1,21,right,male,Friend,C.bmp,1,m,750
SelfAssociate,22,1,21,right,male,Friend,C.bmp,1,m,674
SelfAssociate,22,1,21,right,male,Stranger,T.bmp,1,b,954
SelfAssociate,22,1,21,right,male,Stranger,T.bmp,1,b,690
SelfAssociate,22,1,21,right,male,Stranger,T.bmp,0,n,690
SelfAssociate,22,1,21,right,male,Friend,C.bmp,1,n,722
SelfAssociate,22,1,21,right,male,Friend,C.bmp,1,m,620
SelfAssociate,22,1,21,right,male,Stranger,T.bmp,1,b,658
SelfAssociate,22,1,21,right,male,Friend,C.bmp,1,n,648
SelfAssociate,22,1,21,right,male,Stranger,T.bmp,1,b,736
SelfAssociate,22,1,21,right,male,Stranger,T.bmp,1,b,639
SelfAssociate,22,1,21,right,male,Friend,C.bmp,1,m,617
SelfAssociate,22,1,21,right,male,Friend,C.bmp,1,m,583
SelfAssociate,22,1,21,right,male,Stranger,T.bmp,1,n,700
SelfAssociate,22,1,21,right,male,Friend,C.bmp,1,b,698
SelfAssociate,22,1,21,right,male,Stranger,T.bmp,1,n,672
SelfAssociate,22,1,21,right,male,Friend,C.bmp,1,m,740
SelfAssociate,22,1,21,right,male,Stranger,T.bmp,1,n,682
SelfAssociate,22,1,21,right,male,Friend,C.bmp,1,m,668
SelfAssociate,22,1,21,right,male,Stranger,T.bmp,1,b,617
SelfAssociate,22,1,21,right,male,Stranger,T.bmp,1,n,751
SelfAssociate,22,1,21,right,male,Friend,C.bmp,1,m,731
SelfAssociate,22,1,21,right,male,Friend,C.bmp,1,n,610
SelfAssociate,22,1,21,right,male,Stranger,T.bmp,1,n,746
SelfAssociate,22,1,21,right,male,Stranger,T.bmp,1,n,702
SelfAssociate,22,1,21,right,male,Friend,C.bmp,1,m,612
SelfAssociate,22,1,21,right,male,Stranger,T.bmp,1,m,876
SelfAssociate,22,1,21,right,male,Friend,C.bmp,1,b,783
SelfAssociate,22,1,21,right,male,Friend,C.bmp,1,b,613
SelfAssociate,22,1,21,right,male,Stranger,T.bmp,1,b,757
SelfAssociate,22,1,21,right,male,Friend,C.bmp,1,b,687
SelfAssociate,22,1,21,right,male,Stranger,T.bmp,1,n,623
SelfAssociate,22,1,21,right,male,Friend,C.bmp,1,b,644
SelfAssociate,22,1,21,right,male,Stranger,T.bmp,1,n,710
SelfAssociate,22,1,21,right,male,Friend,C.bmp,1,n,666
SelfAssociate,22,1,21,right,male,Stranger,T.bmp,1,m,623
SelfAssociate,22,1,21,right,male,Stranger,T.bmp,1,n,669
SelfAssociate,22,1,21,right,male,Stranger,T.bmp,1,b,745
SelfAssociate,22,1,21,right,male,Friend,C.bmp,1,m,591
SelfAssociate,22,1,21,right,male,Friend,C.bmp,1,b,747
SelfAssociate,22,1,21,right,male,Friend,C.bmp,1,m,719
SelfAssociate,22,1,21,right,male,Friend,C.bmp,1,m,528
SelfAssociate,22,1,21,right,male,Stranger,T.bmp,1,n,632
SelfAssociate,22,1,21,right,male,Stranger,T.bmp,1,n,661
SelfAssociate,22,1,21,right,male,Friend,C.bmp,1,b,643
SelfAssociate,22,1,21,right,male,Friend,C.bmp,1,b,573
SelfAssociate,22,1,21,right,male,Stranger,T.bmp,1,b,637
SelfAssociate,22,1,21,right,male,Stranger,T.bmp,1,n,663
SelfAssociate,22,1,21,right,male,Friend,C.bmp,1,m,549
SelfAssociate,22,1,21,right,male,Stranger,T.bmp,1,m,729
SelfAssociate,22,1,21,right,male,Stranger,T.bmp,1,b,569
SelfAssociate,22,1,21,right,male,Friend,C.bmp,1,m,513
SelfAssociate,22,1,21,right,male,Stranger,T.bmp,1,m,661
SelfAssociate,22,1,21,right,male,Friend,C.bmp,1,n,1067
SelfAssociate,22,1,21,right,male,Stranger,T.bmp,1,n,895
SelfAssociate,22,1,21,right,male,Friend,C.bmp,1,b,663
SelfAssociate,22,1,21,right,male,Stranger,T.bmp,1,b,749
SelfAssociate,22,1,21,right,male,Stranger,T.bmp,1,n,617
SelfAssociate,22,1,21,right,male,Friend,C.bmp,1,b,1007
SelfAssociate,22,1,21,right,male,Friend,C.bmp,0,,0
SelfAssociate,22,1,21,right,male,Stranger,T.bmp,1,n,1180
SelfAssociate,22,1,21,right,male,Friend,C.bmp,0,,0
SelfAssociate,23,1,21,right,male,Friend,T.bmp,1,n,1574
SelfAssociate,23,1,21,right,male,Self,C.bmp,1,n,1590
SelfAssociate,23,1,21,right,male,Stranger,S.bmp,0,m,1082
SelfAssociate,23,1,21,right,male,Self,C.bmp,1,n,1012
SelfAssociate,23,1,21,right,male,Friend,T.bmp,1,m,1347
SelfAssociate,23,1,21,right,male,Stranger,S.bmp,1,n,1391
SelfAssociate,23,1,21,right,male,Stranger,S.bmp,1,n,1115
SelfAssociate,23,1,21,right,male,Self,C.bmp,1,n,982
SelfAssociate,23,1,21,right,male,Stranger,S.bmp,0,b,932
SelfAssociate,23,1,21,right,male,Friend,T.bmp,1,b,1444
SelfAssociate,23,1,21,right,male,Friend,T.bmp,1,n,1204
SelfAssociate,23,1,21,right,male,Self,C.bmp,1,n,852
SelfAssociate,23,1,21,right,male,Self,C.bmp,1,n,861
SelfAssociate,23,1,21,right,male,Friend,T.bmp,0,,0
SelfAssociate,23,1,21,right,male,Self,C.bmp,1,m,1191
SelfAssociate,23,1,21,right,male,Stranger,S.bmp,1,n,1083
SelfAssociate,23,1,21,right,male,Friend,T.bmp,1,b,1037
SelfAssociate,23,1,21,right,male,Stranger,S.bmp,1,m,1159
SelfAssociate,23,1,21,right,male,Friend,T.bmp,1,n,1281
SelfAssociate,23,1,21,right,male,Stranger,S.bmp,1,n,980
SelfAssociate,23,1,21,right,male,Stranger,S.bmp,1,b,1218
SelfAssociate,23,1,21,right,male,Friend,T.bmp,1,b,1352
SelfAssociate,23,1,21,right,male,Stranger,S.bmp,1,m,884
SelfAssociate,23,1,21,right,male,Friend,T.bmp,0,m,1324
SelfAssociate,23,1,21,right,male,Friend,T.bmp,1,n,2004
SelfAssociate,23,1,21,right,male,Stranger,S.bmp,1,b,988
SelfAssociate,23,1,21,right,male,Friend,T.bmp,1,b,1184
SelfAssociate,23,1,21,right,male,Stranger,S.bmp,1,n,1196
SelfAssociate,23,1,21,right,male,Stranger,S.bmp,1,n,830
SelfAssociate,23,1,21,right,male,Friend,T.bmp,1,n,1466
SelfAssociate,23,1,21,right,male,Friend,T.bmp,1,n,790
SelfAssociate,23,1,21,right,male,Friend,T.bmp,1,m,979
SelfAssociate,23,1,21,right,male,Friend,T.bmp,1,b,1209
SelfAssociate,23,1,21,right,male,Friend,T.bmp,1,n,905
SelfAssociate,23,1,21,right,male,Friend,T.bmp,1,m,797
SelfAssociate,23,1,21,right,male,Friend,T.bmp,1,n,775
SelfAssociate,24,1,25,right,male,Stranger,T.bmp,1,m,1105
SelfAssociate,24,1,25,right,male,Self,C.bmp,1,n,1326
SelfAssociate,24,1,25,right,male,Stranger,T.bmp,1,m,942
SelfAssociate,24,1,25,right,male,Friend,S.bmp,1,b,1268
SelfAssociate,24,1,25,right,male,Self,C.bmp,1,m,1072
SelfAssociate,24,1,25,right,male,Friend,S.bmp,1,m,1268
SelfAssociate,24,1,25,right,male,Stranger,T.bmp,1,m,1104
SelfAssociate,24,1,25,right,male,Self,C.bmp,1,n,1004
SelfAssociate,24,1,25,right,male,Stranger,T.bmp,1,b,1150
SelfAssociate,24,1,25,right,male,Friend,S.bmp,0,m,1218
SelfAssociate,24,1,25,right,male,Self,C.bmp,1,n,1496
SelfAssociate,24,1,25,right,male,Friend,S.bmp,1,m,1174
SelfAssociate,24,1,25,right,male,Self,C.bmp,1,b,844
SelfAssociate,24,1,25,right,male,Friend,S.bmp,1,n,908
SelfAssociate,24,1,25,right,male,Self,C.bmp,1,n,776
SelfAssociate,24,1,25,right,male,Stranger,T.bmp,1,m,1167
SelfAssociate,24,1,25,right,male,Friend,S.bmp,1,m,967
SelfAssociate,24,1,25,right,male,Stranger,T.bmp,1,n,873
SelfAssociate,24,1,25,right,male,Friend,S.bmp,1,m,877
SelfAssociate,24,1,25,right,male,Friend,S.bmp,1,n,791
SelfAssociate,24,1,25,right,male,Friend,S.bmp,1,b,756
SelfAssociate,24,1,25,right,male,Friend,S.bmp,1,m,822
SelfAssociate,24,1,25,right,male,Friend,S.bmp,1,n,708
SelfAssociate,24,1,25,right,male,Friend,S.bmp,1,m,856
SelfAssociate,25,1,22,right,male,Self,T.bmp,1,n,1083
SelfAssociate,25,1,22,right,male,Self,T.bmp,0,n,862
SelfAssociate,25,1,22,right,male,Stranger,C.bmp,1,m,780
SelfAssociate,25,1,22,right,male,Stranger,C.bmp,0,m,682
SelfAssociate,25,1,22,right,male,Friend,S.bmp,1,m,964
SelfAssociate,25,1,22,right,male,Friend,S.bmp,1,b,982
SelfAssociate,25,1,22,right,male,Friend,S.bmp,1,b,804
SelfAssociate,25,1,22,right,male,Self,T.bmp,1,b,742
SelfAssociate,25,1,22,right,male,Stranger,C.bmp,1,m,964
SelfAssociate,25,1,22,right,male,Stranger,C.bmp,1,b,1006
SelfAssociate,25,1,22,right,male,Self,T.bmp,1,b,894
SelfAssociate,25,1,22,right,male,Friend,S.bmp,0,b,852
SelfAssociate,25,1,22,right,male,Stranger,C.bmp,1,m,949
SelfAssociate,25,1,22,right,male,Self,T.bmp,1,m,929
SelfAssociate,25,1,22,right,male,Self,T.bmp,1,b,673
SelfAssociate,25,1,22,right,male,Friend,S.bmp,1,m,1229
SelfAssociate,25,1,22,right,male,Stranger,C.bmp,1,b,785
SelfAssociate,25,1,22,right,male,Friend,S.bmp,0,n,854
SelfAssociate,25,1,22,right,male,Friend,S.bmp,0,m,838
SelfAssociate,25,1,22,right,male,Friend,S.bmp,0,n,1008
SelfAssociate,25,1,22,right,male,Self,T.bmp,1,b,896
SelfAssociate,25,1,22,right,male,Stranger,C.bmp,1,m,1014
SelfAssociate,25,1,22,right,male,Self,T.bmp,0,b,1037
SelfAssociate,25,1,22,right,male,Stranger,C.bmp,0,m,1087
SelfAssociate,25,1,22,right,male,Stranger,C.bmp,0,m,1127
SelfAssociate,25,1,22,right,male,Self,T.bmp,1,m,895
SelfAssociate,25,1,22,right,male,Friend,S.bmp,1,n,829
SelfAssociate,25,1,22,right,male,Self,T.bmp,1,n,784
SelfAssociate,25,1,22,right,male,Friend,S.bmp,1,n,933
SelfAssociate,25,1,22,right,male,Stranger,C.bmp,1,m,789
SelfAssociate,25,1,22,right,male,Self,T.bmp,1,n,705
SelfAssociate,25,1,22,right,male,Friend,S.bmp,1,b,1133
SelfAssociate,25,1,22,right,male,Stranger,C.bmp,1,m,803
SelfAssociate,25,1,22,right,male,Friend,S.bmp,1,n,974
SelfAssociate,25,1,22,right,male,Self,T.bmp,1,m,726
SelfAssociate,25,1,22,right,male,Stranger,C.bmp,1,b,766
SelfAssociate,25,1,22,right,male,Self,T.bmp,1,n,582
SelfAssociate,25,1,22,right,male,Friend,S.bmp,0,n,716
SelfAssociate,25,1,22,right,male,Self,T.bmp,1,m,823
SelfAssociate,25,1,22,right,male,Stranger,C.bmp,1,m,1133
SelfAssociate,25,1,22,right,male,Friend,S.bmp,1,n,925
SelfAssociate,25,1,22,right,male,Stranger,C.bmp,0,m,949
SelfAssociate,25,1,22,right,male,Friend,S.bmp,0,m,881
SelfAssociate,25,1,22,right,male,Stranger,C.bmp,1,b,980
SelfAssociate,25,1,22,right,male,Friend,S.bmp,1,n,1058
SelfAssociate,25,1,22,right,male,Stranger,C.bmp,1,b,1104
SelfAssociate,25,1,22,right,male,Friend,S.bmp,1,n,972
SelfAssociate,25,1,22,right,male,Friend,S.bmp,1,m,940
SelfAssociate,25,1,22,right,male,Stranger,C.bmp,1,b,745
SelfAssociate,25,1,22,right,male,Stranger,C.bmp,1,n,926
SelfAssociate,25,1,22,right,male,Stranger,C.bmp,1,m,918
SelfAssociate,25,1,22,right,male,Friend,S.bmp,0,n,1136
SelfAssociate,25,1,22,right,male,Stranger,C.bmp,0,,0
SelfAssociate,25,1,22,right,male,Friend,S.bmp,1,m,970
SelfAssociate,25,1,22,right,male,Stranger,C.bmp,1,b,826
SelfAssociate,25,1,22,right,male,Stranger,C.bmp,1,m,823
SelfAssociate,25,1,22,right,male,Friend,S.bmp,1,m,997
SelfAssociate,25,1,22,right,male,Friend,S.bmp,1,n,807
SelfAssociate,25,1,22,right,male,Friend,S.bmp,1,b,767
SelfAssociate,25,1,22,right,male,Friend,S.bmp,1,m,776
SelfAssociate,25,1,22,right,male,Stranger,C.bmp,1,b,1710
SelfAssociate,25,1,22,right,male,Stranger,C.bmp,1,m,730
SelfAssociate,25,1,22,right,male,Friend,S.bmp,1,m,794
SelfAssociate,25,1,22,right,male,Stranger,C.bmp,1,b,766
SelfAssociate,25,1,22,right,male,Friend,S.bmp,1,n,647
SelfAssociate,25,1,22,right,male,Stranger,C.bmp,1,b,1071
SelfAssociate,25,1,22,right,male,Friend,S.bmp,1,m,883
SelfAssociate,25,1,22,right,male,Friend,S.bmp,1,n,733
SelfAssociate,25,1,22,right,male,Friend,S.bmp,1,m,644
SelfAssociate,25,1,22,right,male,Friend,S.bmp,1,b,743
SelfAssociate,25,1,22,right,male,Friend,S.bmp,1,n,629
SelfAssociate,25,1,22,right,male,Friend,S.bmp,1,m,601
SelfAssociate,3,1,30,right,female,Self,S.bmp,1,m,1650
SelfAssociate,3,1,30,right,female,Stranger,C.bmp,1,b,1458
SelfAssociate,3,1,30,right,female,Friend,T.bmp,1,n,1104
SelfAssociate,3,1,30,right,female,Friend,T.bmp,0,n,1780
SelfAssociate,3,1,30,right,female,Self,S.bmp,1,n,1690
SelfAssociate,3,1,30,right,female,Stranger,C.bmp,0,m,1562
SelfAssociate,3,1,30,right,female,Stranger,C.bmp,1,n,2452
SelfAssociate,3,1,30,right,female,Friend,T.bmp,1,n,1965
SelfAssociate,3,1,30,right,female,Stranger,C.bmp,1,m,1501
SelfAssociate,3,1,30,right,female,Self,S.bmp,0,b,1259
SelfAssociate,3,1,30,right,female,Friend,T.bmp,1,n,2217
SelfAssociate,3,1,30,right,female,Self,S.bmp,1,b,1055
SelfAssociate,3,1,30,right,female,Self,S.bmp,0,b,1638
SelfAssociate,3,1,30,right,female,Stranger,C.bmp,1,b,2344
SelfAssociate,3,1,30,right,female,Friend,T.bmp,0,n,1620
SelfAssociate,3,1,30,right,female,Stranger,C.bmp,0,b,2994
SelfAssociate,3,1,30,right,female,Self,S.bmp,1,b,1839
SelfAssociate,3,1,30,right,female,Friend,T.bmp,1,m,1874
SelfAssociate,3,1,30,right,female,Stranger,C.bmp,0,n,1516
SelfAssociate,3,1,30,right,female,Stranger,C.bmp,1,m,2206
SelfAssociate,3,1,30,right,female,Self,S.bmp,1,b,1422
SelfAssociate,3,1,30,right,female,Self,S.bmp,1,m,1404
SelfAssociate,3,1,30,right,female,Friend,T.bmp,1,n,2348
SelfAssociate,3,1,30,right,female,Friend,T.bmp,1,n,2377
SelfAssociate,3,1,30,right,female,Self,S.bmp,1,b,1135
SelfAssociate,3,1,30,right,female,Stranger,C.bmp,1,b,1973
SelfAssociate,3,1,30,right,female,Stranger,C.bmp,1,m,1365
SelfAssociate,3,1,30,right,female,Friend,T.bmp,1,n,1365
SelfAssociate,3,1,30,right,female,Friend,T.bmp,0,b,862
SelfAssociate,3,1,30,right,female,Self,S.bmp,1,b,1284
SelfAssociate,3,1,30,right,female,Self,S.bmp,1,b,1060
SelfAssociate,3,1,30,right,female,Self,S.bmp,1,b,1082
SelfAssociate,3,1,30,right,female,Stranger,C.bmp,1,n,1939
SelfAssociate,3,1,30,right,female,Friend,T.bmp,1,m,2265
SelfAssociate,3,1,30,right,female,Friend,T.bmp,1,b,1854
SelfAssociate,3,1,30,right,female,Stranger,C.bmp,0,m,1724
SelfAssociate,3,1,30,right,female,Stranger,C.bmp,1,m,1796
SelfAssociate,3,1,30,right,female,Self,S.bmp,1,m,1454
SelfAssociate,3,1,30,right,female,Friend,T.bmp,1,b,1572
SelfAssociate,3,1,30,right,female,Stranger,C.bmp,1,m,2268
SelfAssociate,3,1,30,right,female,Self,S.bmp,1,m,1233
SelfAssociate,3,1,30,right,female,Friend,T.bmp,0,b,1309
SelfAssociate,3,1,30,right,female,Self,S.bmp,1,b,1641
SelfAssociate,3,1,30,right,female,Friend,T.bmp,1,m,2091
SelfAssociate,3,1,30,right,female,Stranger,C.bmp,1,b,1179
SelfAssociate,3,1,30,right,female,Stranger,C.bmp,0,b,1138
SelfAssociate,3,1,30,right,female,Self,S.bmp,1,n,1320
SelfAssociate,3,1,30,right,female,Friend,T.bmp,1,n,2345
SelfAssociate,3,1,30,right,female,Stranger,C.bmp,0,b,1165
SelfAssociate,3,1,30,right,female,Self,S.bmp,1,n,2405
SelfAssociate,3,1,30,right,female,Friend,T.bmp,0,m,2213
SelfAssociate,3,1,30,right,female,Friend,T.bmp,0,b,2100
SelfAssociate,3,1,30,right,female,Stranger,C.bmp,1,b,2594
SelfAssociate,3,1,30,right,female,Self,S.bmp,1,n,1012
SelfAssociate,3,1,30,right,female,Stranger,C.bmp,1,b,1532
SelfAssociate,3,1,30,right,female,Self,S.bmp,1,b,1036
SelfAssociate,3,1,30,right,female,Self,S.bmp,1,m,1478
SelfAssociate,3,1,30,right,female,Stranger,C.bmp,0,m,2609
SelfAssociate,3,1,30,right,female,Friend,T.bmp,1,m,2337
SelfAssociate,3,1,30,right,female,Friend,T.bmp,1,n,1599
SelfAssociate,3,1,30,right,female,Self,S.bmp,1,b,921
SelfAssociate,3,1,30,right,female,Self,S.bmp,1,n,1700
SelfAssociate,3,1,30,right,female,Friend,T.bmp,1,m,2265
SelfAssociate,3,1,30,right,female,Friend,T.bmp,0,m,1125
SelfAssociate,3,1,30,right,female,Stranger,C.bmp,0,m,1829
SelfAssociate,3,1,30,right,female,Stranger,C.bmp,1,b,1985
SelfAssociate,3,1,30,right,female,Friend,T.bmp,1,m,1533
SelfAssociate,3,1,30,right,female,Stranger,C.bmp,0,m,1636
SelfAssociate,3,1,30,right,female,Friend,T.bmp,0,,0
SelfAssociate,3,1,30,right,female,Self,S.bmp,0,,0
SelfAssociate,3,1,30,right,female,Stranger,C.bmp,0,,0
SelfAssociate,3,1,30,right,female,Self,S.bmp,0,,0
SelfAssociate,3,1,30,right,female,Self,S.bmp,0,,0
SelfAssociate,3,1,30,right,female,Friend,T.bmp,0,,0
SelfAssociate,3,1,30,right,female,Self,S.bmp,0,,0
SelfAssociate,3,1,30,right,female,Stranger,C.bmp,1,b,2203
SelfAssociate,3,1,30,right,female,Stranger,C.bmp,0,b,1709
SelfAssociate,3,1,30,right,female,Friend,T.bmp,1,n,2385
SelfAssociate,3,1,30,right,female,Self,S.bmp,1,b,2221
SelfAssociate,3,1,30,right,female,Self,S.bmp,1,m,1172
SelfAssociate,3,1,30,right,female,Friend,T.bmp,1,n,1620
SelfAssociate,3,1,30,right,female,Friend,T.bmp,1,n,1218
SelfAssociate,3,1,30,right,female,Stranger,C.bmp,1,m,1824
SelfAssociate,3,1,30,right,female,Stranger,C.bmp,1,b,1484
SelfAssociate,3,1,30,right,female,Stranger,C.bmp,0,b,1180
SelfAssociate,3,1,30,right,female,Friend,T.bmp,1,n,2043
SelfAssociate,3,1,30,right,female,Self,S.bmp,1,n,1661
SelfAssociate,3,1,30,right,female,Friend,T.bmp,1,b,2339
SelfAssociate,3,1,30,right,female,Stranger,C.bmp,1,b,1976
SelfAssociate,3,1,30,right,female,Self,S.bmp,1,b,1094
SelfAssociate,3,1,30,right,female,Friend,T.bmp,1,n,1757
SelfAssociate,3,1,30,right,female,Self,S.bmp,1,b,1063
SelfAssociate,3,1,30,right,female,Friend,T.bmp,1,m,2645
SelfAssociate,3,1,30,right,female,Stranger,C.bmp,1,n,2493
SelfAssociate,3,1,30,right,female,Self,S.bmp,1,m,1885
SelfAssociate,3,1,30,right,female,Stranger,C.bmp,0,n,2166
SelfAssociate,3,1,30,right,female,Friend,T.bmp,0,m,134
SelfAssociate,3,1,30,right,female,Stranger,C.bmp,1,m,1678
SelfAssociate,3,1,30,right,female,Friend,T.bmp,1,m,2064
SelfAssociate,3,1,30,right,female,Stranger,C.bmp,1,m,2172
SelfAssociate,3,1,30,right,female,Stranger,C.bmp,0,b,2021
SelfAssociate,3,1,30,right,female,Stranger,C.bmp,1,m,2267
SelfAssociate,3,1,30,right,female,Friend,T.bmp,1,n,1750
SelfAssociate,3,1,30,right,female,Friend,T.bmp,1,n,994
SelfAssociate,3,1,30,right,female,Stranger,C.bmp,1,m,1092
SelfAssociate,3,1,30,right,female,Stranger,C.bmp,0,n,1444
SelfAssociate,3,1,30,right,female,Friend,T.bmp,1,b,1517
SelfAssociate,3,1,30,right,female,Friend,T.bmp,0,m,1799
SelfAssociate,3,1,30,right,female,Stranger,C.bmp,1,n,2137
SelfAssociate,3,1,30,right,female,Stranger,C.bmp,1,n,1447
SelfAssociate,3,1,30,right,female,Friend,T.bmp,1,m,1359
SelfAssociate,3,1,30,right,female,Friend,T.bmp,0,m,2745
SelfAssociate,3,1,30,right,female,Friend,T.bmp,1,b,1358
SelfAssociate,3,1,30,right,female,Friend,T.bmp,1,n,1272
SelfAssociate,3,1,30,right,female,Stranger,C.bmp,1,m,1252
SelfAssociate,3,1,30,right,female,Stranger,C.bmp,1,b,972
SelfAssociate,3,1,30,right,female,Friend,T.bmp,1,b,1252
SelfAssociate,3,1,30,right,female,Stranger,C.bmp,1,m,1236
SelfAssociate,3,1,30,right,female,Stranger,C.bmp,1,b,1239
SelfAssociate,3,1,30,right,female,Friend,T.bmp,1,n,1808
SelfAssociate,3,1,30,right,female,Friend,T.bmp,1,n,1392
SelfAssociate,3,1,30,right,female,Friend,T.bmp,1,b,2044
SelfAssociate,3,1,30,right,female,Friend,T.bmp,1,b,1084
SelfAssociate,3,1,30,right,female,Friend,T.bmp,1,n,1100
SelfAssociate,3,1,30,right,female,Friend,T.bmp,1,b,1058
SelfAssociate,3,1,30,right,female,Friend,T.bmp,1,m,1201
SelfAssociate,4,1,22,right,male,Friend,C.bmp,0,n,602
SelfAssociate,4,1,22,right,male,Stranger,T.bmp,0,m,637
SelfAssociate,4,1,22,right,male,Stranger,T.bmp,1,n,615
SelfAssociate,4,1,22,right,male,Self,S.bmp,1,m,557
SelfAssociate,4,1,22,right,male,Friend,C.bmp,0,n,479
SelfAssociate,4,1,22,right,male,Self,S.bmp,1,n,674
SelfAssociate,4,1,22,right,male,Stranger,T.bmp,0,b,758
SelfAssociate,4,1,22,right,male,Self,S.bmp,1,n,559
SelfAssociate,4,1,22,right,male,Self,S.bmp,1,m,673
SelfAssociate,4,1,22,right,male,Stranger,T.bmp,1,m,1070
SelfAssociate,4,1,22,right,male,Friend,C.bmp,1,n,858
SelfAssociate,4,1,22,right,male,Friend,C.bmp,1,m,752
SelfAssociate,4,1,22,right,male,Friend,C.bmp,1,n,700
SelfAssociate,4,1,22,right,male,Stranger,T.bmp,1,n,762
SelfAssociate,4,1,22,right,male,Stranger,T.bmp,1,b,709
SelfAssociate,4,1,22,right,male,Self,S.bmp,1,n,585
SelfAssociate,4,1,22,right,male,Self,S.bmp,1,b,669
SelfAssociate,4,1,22,right,male,Friend,C.bmp,1,b,785
SelfAssociate,4,1,22,right,male,Friend,C.bmp,1,b,534
SelfAssociate,4,1,22,right,male,Stranger,T.bmp,1,m,909
SelfAssociate,4,1,22,right,male,Stranger,T.bmp,1,m,697
SelfAssociate,4,1,22,right,male,Friend,C.bmp,1,b,703
SelfAssociate,4,1,22,right,male,Stranger,T.bmp,0,n,654
SelfAssociate,4,1,22,right,male,Friend,C.bmp,1,m,702
SelfAssociate,4,1,22,right,male,Friend,C.bmp,1,n,684
SelfAssociate,4,1,22,right,male,Stranger,T.bmp,1,n,596
SelfAssociate,4,1,22,right,male,Stranger,T.bmp,1,m,759
SelfAssociate,4,1,22,right,male,Friend,C.bmp,1,b,777
SelfAssociate,4,1,22,right,male,Friend,C.bmp,1,m,711
SelfAssociate,4,1,22,right,male,Stranger,T.bmp,1,m,779
SelfAssociate,4,1,22,right,male,Stranger,T.bmp,1,n,674
SelfAssociate,4,1,22,right,male,Stranger,T.bmp,1,n,613
SelfAssociate,4,1,22,right,male,Stranger,T.bmp,1,n,725
SelfAssociate,4,1,22,right,male,Stranger,T.bmp,1,b,725
SelfAssociate,4,1,22,right,male,Stranger,T.bmp,1,m,822
SelfAssociate,4,1,22,right,male,Stranger,T.bmp,1,b,740
SelfAssociate,5,1,29,right,female,Stranger,S.bmp,1,n,931
SelfAssociate,5,1,29,right,female,Self,C.bmp,1,n,1242
SelfAssociate,5,1,29,right,female,Self,C.bmp,0,n,1284
SelfAssociate,5,1,29,right,female,Friend,T.bmp,0,,0
SelfAssociate,5,1,29,right,female,Stranger,S.bmp,1,b,922
SelfAssociate,5,1,29,right,female,Friend,T.bmp,0,n,1124
SelfAssociate,5,1,29,right,female,Friend,T.bmp,0,b,1046
SelfAssociate,5,1,29,right,female,Stranger,S.bmp,0,,0
SelfAssociate,5,1,29,right,female,Friend,T.bmp,0,b,875
SelfAssociate,5,1,29,right,female,Self,C.bmp,1,m,967
SelfAssociate,5,1,29,right,female,Self,C.bmp,0,,0
SelfAssociate,5,1,29,right,female,Stranger,S.bmp,1,b,956
SelfAssociate,5,1,29,right,female,Stranger,S.bmp,0,b,1032
SelfAssociate,5,1,29,right,female,Stranger,S.bmp,0,,0
SelfAssociate,5,1,29,right,female,Self,C.bmp,1,n,992
SelfAssociate,5,1,29,right,female,Self,C.bmp,1,n,957
SelfAssociate,5,1,29,right,female,Friend,T.bmp,1,m,1289
SelfAssociate,5,1,29,right,female,Friend,T.bmp,1,m,889
SelfAssociate,5,1,29,right,female,Stranger,S.bmp,1,n,1089
SelfAssociate,5,1,29,right,female,Friend,T.bmp,1,b,1433
SelfAssociate,5,1,29,right,female,Stranger,S.bmp,1,b,1493
SelfAssociate,5,1,29,right,female,Friend,T.bmp,1,n,1077
SelfAssociate,5,1,29,right,female,Self,C.bmp,1,n,1222
SelfAssociate,5,1,29,right,female,Self,C.bmp,0,n,892
SelfAssociate,5,1,29,right,female,Self,C.bmp,1,m,1052
SelfAssociate,5,1,29,right,female,Stranger,S.bmp,1,m,1484
SelfAssociate,5,1,29,right,female,Friend,T.bmp,1,n,1383
SelfAssociate,5,1,29,right,female,Stranger,S.bmp,1,m,1645
SelfAssociate,5,1,29,right,female,Friend,T.bmp,1,m,1759
SelfAssociate,5,1,29,right,female,Self,C.bmp,1,n,1009
SelfAssociate,5,1,29,right,female,Self,C.bmp,1,m,2025
SelfAssociate,5,1,29,right,female,Stranger,S.bmp,1,b,1463
SelfAssociate,5,1,29,right,female,Self,C.bmp,0,m,1421
SelfAssociate,5,1,29,right,female,Stranger,S.bmp,1,n,2315
SelfAssociate,5,1,29,right,female,Self,C.bmp,1,n,999
SelfAssociate,5,1,29,right,female,Stranger,S.bmp,1,b,1249
SelfAssociate,5,1,29,right,female,Self,C.bmp,1,b,1144
SelfAssociate,5,1,29,right,female,Stranger,S.bmp,1,n,1214
SelfAssociate,5,1,29,right,female,Stranger,S.bmp,1,n,1311
SelfAssociate,5,1,29,right,female,Self,C.bmp,1,m,1203
SelfAssociate,5,1,29,right,female,Self,C.bmp,1,n,1605
SelfAssociate,5,1,29,right,female,Stranger,S.bmp,1,b,1559
SelfAssociate,5,1,29,right,female,Self,C.bmp,1,b,1481
SelfAssociate,5,1,29,right,female,Self,C.bmp,1,n,1147
SelfAssociate,5,1,29,right,female,Self,C.bmp,1,b,1143
SelfAssociate,5,1,29,right,female,Self,C.bmp,1,m,1749
SelfAssociate,5,1,29,right,female,Self,C.bmp,1,b,1281
SelfAssociate,5,1,29,right,female,Self,C.bmp,1,m,1051
SelfAssociate,6,1,27,right,male,Self,C.bmp,0,b,901
SelfAssociate,6,1,27,right,male,Stranger,T.bmp,1,m,907
SelfAssociate,6,1,27,right,male,Self,C.bmp,0,n,976
SelfAssociate,6,1,27,right,male,Friend,S.bmp,0,n,1296
SelfAssociate,6,1,27,right,male,Stranger,T.bmp,1,m,1158
SelfAssociate,6,1,27,right,male,Friend,S.bmp,1,n,1056
SelfAssociate,6,1,27,right,male,Self,C.bmp,0,m,998
SelfAssociate,6,1,27,right,male,Stranger,T.bmp,0,m,864
SelfAssociate,6,1,27,right,male,Friend,S.bmp,0,m,1230
SelfAssociate,6,1,27,right,male,Friend,S.bmp,1,b,1066
SelfAssociate,6,1,27,right,male,Stranger,T.bmp,0,m,798
SelfAssociate,6,1,27,right,male,Self,C.bmp,1,b,1096
SelfAssociate,6,1,27,right,male,Self,C.bmp,0,b,1046
SelfAssociate,6,1,27,right,male,Stranger,T.bmp,0,m,1038
SelfAssociate,6,1,27,right,male,Stranger,T.bmp,1,n,1073
SelfAssociate,6,1,27,right,male,Friend,S.bmp,1,m,1093
SelfAssociate,6,1,27,right,male,Self,C.bmp,1,m,1157
SelfAssociate,6,1,27,right,male,Friend,S.bmp,1,m,1407
SelfAssociate,6,1,27,right,male,Self,C.bmp,1,n,1199
SelfAssociate,6,1,27,right,male,Stranger,T.bmp,1,b,801
SelfAssociate,6,1,27,right,male,Friend,S.bmp,1,b,995
SelfAssociate,6,1,27,right,male,Stranger,T.bmp,0,n,838
SelfAssociate,6,1,27,right,male,Self,C.bmp,0,n,1032
SelfAssociate,6,1,27,right,male,Friend,S.bmp,1,n,1060
SelfAssociate,6,1,27,right,male,Self,C.bmp,0,m,842
SelfAssociate,6,1,27,right,male,Self,C.bmp,0,m,1212
SelfAssociate,6,1,27,right,male,Stranger,T.bmp,0,n,1244
SelfAssociate,6,1,27,right,male,Friend,S.bmp,1,b,933
SelfAssociate,6,1,27,right,male,Stranger,T.bmp,1,b,780
SelfAssociate,6,1,27,right,male,Friend,S.bmp,1,n,794
SelfAssociate,6,1,27,right,male,Friend,S.bmp,1,n,1300
SelfAssociate,6,1,27,right,male,Stranger,T.bmp,0,b,1259
SelfAssociate,6,1,27,right,male,Self,C.bmp,0,m,889
SelfAssociate,6,1,27,right,male,Friend,S.bmp,0,b,913
SelfAssociate,6,1,27,right,male,Stranger,T.bmp,0,n,925
SelfAssociate,6,1,27,right,male,Self,C.bmp,1,b,1021
SelfAssociate,6,1,27,right,male,Stranger,T.bmp,0,b,1100
SelfAssociate,6,1,27,right,male,Stranger,T.bmp,1,b,946
SelfAssociate,6,1,27,right,male,Friend,S.bmp,1,n,870
SelfAssociate,6,1,27,right,male,Self,C.bmp,1,m,1098
SelfAssociate,6,1,27,right,male,Friend,S.bmp,0,b,1144
SelfAssociate,6,1,27,right,male,Self,C.bmp,0,m,1428
SelfAssociate,6,1,27,right,male,Stranger,T.bmp,1,b,944
SelfAssociate,6,1,27,right,male,Friend,S.bmp,1,b,998
SelfAssociate,6,1,27,right,male,Friend,S.bmp,1,b,752
SelfAssociate,6,1,27,right,male,Stranger,T.bmp,1,n,748
SelfAssociate,6,1,27,right,male,Self,C.bmp,1,b,937
SelfAssociate,6,1,27,right,male,Self,C.bmp,0,m,1215
SelfAssociate,6,1,27,right,male,Friend,S.bmp,1,m,1077
SelfAssociate,6,1,27,right,male,Self,C.bmp,0,b,895
SelfAssociate,6,1,27,right,male,Friend,S.bmp,1,b,1349
SelfAssociate,6,1,27,right,male,Stranger,T.bmp,1,b,753
SelfAssociate,6,1,27,right,male,Stranger,T.bmp,1,n,878
SelfAssociate,6,1,27,right,male,Self,C.bmp,0,b,768
SelfAssociate,6,1,27,right,male,Friend,S.bmp,1,b,784
SelfAssociate,6,1,27,right,male,Self,C.bmp,0,m,1046
SelfAssociate,6,1,27,right,male,Friend,S.bmp,1,b,1134
SelfAssociate,6,1,27,right,male,Self,C.bmp,1,n,1060
SelfAssociate,6,1,27,right,male,Stranger,T.bmp,1,b,946
SelfAssociate,6,1,27,right,male,Stranger,T.bmp,1,m,1094
SelfAssociate,6,1,27,right,male,Stranger,T.bmp,0,b,924
SelfAssociate,6,1,27,right,male,Stranger,T.bmp,1,n,822
SelfAssociate,6,1,27,right,male,Self,C.bmp,0,b,1213
SelfAssociate,6,1,27,right,male,Self,C.bmp,1,n,1237
SelfAssociate,6,1,27,right,male,Self,C.bmp,1,n,815
SelfAssociate,6,1,27,right,male,Stranger,T.bmp,1,m,1189
SelfAssociate,6,1,27,right,male,Self,C.bmp,1,b,1161
SelfAssociate,6,1,27,right,male,Stranger,T.bmp,0,n,1332
SelfAssociate,6,1,27,right,male,Stranger,T.bmp,1,n,1012
SelfAssociate,6,1,27,right,male,Stranger,T.bmp,1,n,908
SelfAssociate,6,1,27,right,male,Self,C.bmp,0,m,1072
SelfAssociate,6,1,27,right,male,Self,C.bmp,0,b,1084
SelfAssociate,6,1,27,right,male,Stranger,T.bmp,0,m,1308
SelfAssociate,6,1,27,right,male,Self,C.bmp,1,n,1423
SelfAssociate,6,1,27,right,male,Stranger,T.bmp,1,n,900
SelfAssociate,6,1,27,right,male,Self,C.bmp,1,b,1330
SelfAssociate,6,1,27,right,male,Self,C.bmp,1,b,842
SelfAssociate,6,1,27,right,male,Stranger,T.bmp,1,n,884
SelfAssociate,6,1,27,right,male,Self,C.bmp,1,b,1183
SelfAssociate,6,1,27,right,male,Stranger,T.bmp,1,b,1437
SelfAssociate,6,1,27,right,male,Stranger,T.bmp,1,b,783
SelfAssociate,6,1,27,right,male,Self,C.bmp,1,m,1221
SelfAssociate,6,1,27,right,male,Stranger,T.bmp,0,b,1043
SelfAssociate,6,1,27,right,male,Self,C.bmp,1,m,1085
SelfAssociate,6,1,27,right,male,Stranger,T.bmp,1,m,1165
SelfAssociate,6,1,27,right,male,Stranger,T.bmp,1,n,862
SelfAssociate,6,1,27,right,male,Stranger,T.bmp,1,b,1396
SelfAssociate,6,1,27,right,male,Stranger,T.bmp,1,m,1190
SelfAssociate,6,1,27,right,male,Stranger,T.bmp,1,n,1050
SelfAssociate,6,1,27,right,male,Stranger,T.bmp,1,m,1130
SelfAssociate,7,1,29,right,female,Self,T.bmp,1,m,1518
SelfAssociate,7,1,29,right,female,Self,T.bmp,1,m,816
SelfAssociate,7,1,29,right,female,Friend,S.bmp,0,,0
SelfAssociate,7,1,29,right,female,Friend,S.bmp,1,m,1187
SelfAssociate,7,1,29,right,female,Stranger,C.bmp,1,n,927
SelfAssociate,7,1,29,right,female,Stranger,C.bmp,1,b,1255
SelfAssociate,7,1,29,right,female,Self,T.bmp,1,m,1029
SelfAssociate,7,1,29,right,female,Self,T.bmp,0,m,641
SelfAssociate,7,1,29,right,female,Friend,S.bmp,1,m,1044
SelfAssociate,7,1,29,right,female,Stranger,C.bmp,1,m,1092
SelfAssociate,7,1,29,right,female,Stranger,C.bmp,0,m,995
SelfAssociate,7,1,29,right,female,Friend,S.bmp,1,b,1469
SelfAssociate,7,1,29,right,female,Self,T.bmp,1,m,745
SelfAssociate,7,1,29,right,female,Friend,S.bmp,1,b,813
SelfAssociate,7,1,29,right,female,Stranger,C.bmp,1,m,942
SelfAssociate,7,1,29,right,female,Stranger,C.bmp,1,b,876
SelfAssociate,7,1,29,right,female,Self,T.bmp,1,b,1302
SelfAssociate,7,1,29,right,female,Friend,S.bmp,1,n,900
SelfAssociate,7,1,29,right,female,Stranger,C.bmp,1,m,827
SelfAssociate,7,1,29,right,female,Self,T.bmp,0,n,823
SelfAssociate,7,1,29,right,female,Friend,S.bmp,1,m,829
SelfAssociate,7,1,29,right,female,Friend,S.bmp,1,b,825
SelfAssociate,7,1,29,right,female,Stranger,C.bmp,1,n,782
SelfAssociate,7,1,29,right,female,Self,T.bmp,0,b,692
SelfAssociate,7,1,29,right,female,Friend,S.bmp,1,m,891
SelfAssociate,7,1,29,right,female,Stranger,C.bmp,1,n,763
SelfAssociate,7,1,29,right,female,Stranger,C.bmp,1,n,902
SelfAssociate,7,1,29,right,female,Self,T.bmp,1,b,676
SelfAssociate,7,1,29,right,female,Friend,S.bmp,1,m,1126
SelfAssociate,7,1,29,right,female,Self,T.bmp,1,m,1006
SelfAssociate,7,1,29,right,female,Self,T.bmp,1,b,814
SelfAssociate,7,1,29,right,female,Friend,S.bmp,1,n,909
SelfAssociate,7,1,29,right,female,Friend,S.bmp,1,m,993
SelfAssociate,7,1,29,right,female,Self,T.bmp,1,b,1229
SelfAssociate,7,1,29,right,female,Friend,S.bmp,1,b,761
SelfAssociate,7,1,29,right,female,Friend,S.bmp,1,n,668
SelfAssociate,7,1,29,right,female,Self,T.bmp,1,m,656
SelfAssociate,7,1,29,right,female,Self,T.bmp,1,b,757
SelfAssociate,7,1,29,right,female,Self,T.bmp,1,b,703
SelfAssociate,7,1,29,right,female,Friend,S.bmp,1,m,758
SelfAssociate,7,1,29,right,female,Self,T.bmp,1,b,832
SelfAssociate,7,1,29,right,female,Friend,S.bmp,1,m,828
SelfAssociate,8,1,24,right,male,Friend,C.bmp,1,m,839
SelfAssociate,8,1,24,right,male,Friend,C.bmp,0,m,1233
SelfAssociate,8,1,24,right,male,Stranger,S.bmp,1,n,1509
SelfAssociate,8,1,24,right,male,Stranger,S.bmp,1,b,1225
SelfAssociate,8,1,24,right,male,Self,T.bmp,1,m,868
SelfAssociate,8,1,24,right,male,Self,T.bmp,0,m,737
SelfAssociate,8,1,24,right,male,Stranger,S.bmp,1,n,991
SelfAssociate,8,1,24,right,male,Self,T.bmp,0,b,1475
SelfAssociate,8,1,24,right,male,Friend,C.bmp,1,n,1037
SelfAssociate,8,1,24,right,male,Stranger,S.bmp,0,n,1231
SelfAssociate,8,1,24,right,male,Self,T.bmp,1,n,931
SelfAssociate,8,1,24,right,male,Friend,C.bmp,0,m,876
SelfAssociate,8,1,24,right,male,Self,T.bmp,0,n,1062
SelfAssociate,8,1,24,right,male,Self,T.bmp,0,b,1268
SelfAssociate,8,1,24,right,male,Stranger,S.bmp,0,n,1200
SelfAssociate,8,1,24,right,male,Friend,C.bmp,0,m,1010
SelfAssociate,8,1,24,right,male,Stranger,S.bmp,0,b,922
SelfAssociate,8,1,24,right,male,Friend,C.bmp,0,b,965
SelfAssociate,8,1,24,right,male,Stranger,S.bmp,0,n,1991
SelfAssociate,8,1,24,right,male,Friend,C.bmp,0,m,1075
SelfAssociate,8,1,24,right,male,Friend,C.bmp,1,n,1069
SelfAssociate,8,1,24,right,male,Self,T.bmp,1,m,849
SelfAssociate,8,1,24,right,male,Self,T.bmp,0,n,656
SelfAssociate,8,1,24,right,male,Stranger,S.bmp,0,b,839
SelfAssociate,8,1,24,right,male,Self,T.bmp,0,m,673
SelfAssociate,8,1,24,right,male,Friend,C.bmp,0,n,867
SelfAssociate,8,1,24,right,male,Friend,C.bmp,1,n,879
SelfAssociate,8,1,24,right,male,Self,T.bmp,1,b,850
SelfAssociate,8,1,24,right,male,Stranger,S.bmp,0,m,890
SelfAssociate,8,1,24,right,male,Stranger,S.bmp,1,n,890
SelfAssociate,8,1,24,right,male,Self,T.bmp,1,m,890
SelfAssociate,8,1,24,right,male,Friend,C.bmp,0,n,827
SelfAssociate,8,1,24,right,male,Stranger,S.bmp,0,n,839
SelfAssociate,8,1,24,right,male,Stranger,S.bmp,0,b,1016
SelfAssociate,8,1,24,right,male,Friend,C.bmp,0,n,1582
SelfAssociate,8,1,24,right,male,Self,T.bmp,1,b,957
SelfAssociate,8,1,24,right,male,Self,T.bmp,1,b,1487
SelfAssociate,8,1,24,right,male,Stranger,S.bmp,0,n,1079
SelfAssociate,8,1,24,right,male,Self,T.bmp,0,n,961
SelfAssociate,8,1,24,right,male,Friend,C.bmp,1,n,1059
SelfAssociate,8,1,24,right,male,Stranger,S.bmp,0,m,1049
SelfAssociate,8,1,24,right,male,Friend,C.bmp,0,n,1241
SelfAssociate,8,1,24,right,male,Self,T.bmp,1,b,779
SelfAssociate,8,1,24,right,male,Self,T.bmp,1,n,754
SelfAssociate,8,1,24,right,male,Stranger,S.bmp,1,m,854
SelfAssociate,8,1,24,right,male,Friend,C.bmp,1,b,1078
SelfAssociate,8,1,24,right,male,Stranger,S.bmp,1,n,1224
SelfAssociate,8,1,24,right,male,Friend,C.bmp,1,b,1028
SelfAssociate,8,1,24,right,male,Friend,C.bmp,1,m,1273
SelfAssociate,8,1,24,right,male,Self,T.bmp,0,b,781
SelfAssociate,8,1,24,right,male,Stranger,S.bmp,1,m,995
SelfAssociate,8,1,24,right,male,Stranger,S.bmp,1,m,1148
SelfAssociate,8,1,24,right,male,Self,T.bmp,1,n,1056
SelfAssociate,8,1,24,right,male,Friend,C.bmp,1,m,1022
SelfAssociate,8,1,24,right,male,Stranger,S.bmp,0,m,1172
SelfAssociate,8,1,24,right,male,Self,T.bmp,1,n,965
SelfAssociate,8,1,24,right,male,Friend,C.bmp,1,m,1191
SelfAssociate,8,1,24,right,male,Stranger,S.bmp,1,n,963
SelfAssociate,8,1,24,right,male,Friend,C.bmp,1,b,957
SelfAssociate,8,1,24,right,male,Self,T.bmp,0,n,1271
SelfAssociate,8,1,24,right,male,Stranger,S.bmp,0,n,1003
SelfAssociate,8,1,24,right,male,Self,T.bmp,1,n,845
SelfAssociate,8,1,24,right,male,Stranger,S.bmp,0,b,886
SelfAssociate,8,1,24,right,male,Self,T.bmp,1,n,622
SelfAssociate,8,1,24,right,male,Self,T.bmp,1,m,804
SelfAssociate,8,1,24,right,male,Stranger,S.bmp,1,n,838
SelfAssociate,8,1,24,right,male,Stranger,S.bmp,0,n,1001
SelfAssociate,8,1,24,right,male,Self,T.bmp,1,m,1003
SelfAssociate,8,1,24,right,male,Stranger,S.bmp,0,n,1141
SelfAssociate,8,1,24,right,male,Self,T.bmp,1,m,947
SelfAssociate,8,1,24,right,male,Stranger,S.bmp,1,m,1142
SelfAssociate,8,1,24,right,male,Self,T.bmp,1,m,940
SelfAssociate,8,1,24,right,male,Stranger,S.bmp,1,n,947
SelfAssociate,8,1,24,right,male,Stranger,S.bmp,0,m,1215
SelfAssociate,8,1,24,right,male,Stranger,S.bmp,1,m,1341
SelfAssociate,8,1,24,right,male,Stranger,S.bmp,0,b,1187
SelfAssociate,8,1,24,right,male,Stranger,S.bmp,0,m,1031
SelfAssociate,8,1,24,right,male,Stranger,S.bmp,1,m,1219
SelfAssociate,8,1,24,right,male,Stranger,S.bmp,1,n,1554
SelfAssociate,8,1,24,right,male,Stranger,S.bmp,0,n,1452
SelfAssociate,8,1,24,right,male,Stranger,S.bmp,0,b,1268
SelfAssociate,8,1,24,right,male,Stranger,S.bmp,1,n,976
SelfAssociate,8,1,24,right,male,Stranger,S.bmp,0,n,1144
SelfAssociate,8,1,24,right,male,Stranger,S.bmp,1,m,948
SelfAssociate,8,1,24,right,male,Stranger,S.bmp,1,n,961
SelfAssociate,8,1,24,right,male,Stranger,S.bmp,1,m,907
SelfAssociate,8,1,24,right,male,Stranger,S.bmp,1,n,719
SelfAssociate,8,1,24,right,male,Stranger,S.bmp,1,b,944
SelfAssociate,8,1,24,right,male,Stranger,S.bmp,1,b,718
SelfAssociate,9,1,18,right,male,Self,S.bmp,0,,0
SelfAssociate,9,1,18,right,male,Friend,T.bmp,0,,0
SelfAssociate,9,1,18,right,male,Friend,T.bmp,1,n,975
SelfAssociate,9,1,18,right,male,Stranger,C.bmp,1,b,1176
SelfAssociate,9,1,18,right,male,Stranger,C.bmp,0,n,958
SelfAssociate,9,1,18,right,male,Self,S.bmp,1,b,1200
SelfAssociate,9,1,18,right,male,Friend,T.bmp,1,b,1186
SelfAssociate,9,1,18,right,male,Stranger,C.bmp,1,b,1150
SelfAssociate,9,1,18,right,male,Self,S.bmp,0,,0
SelfAssociate,9,1,18,right,male,Stranger,C.bmp,1,m,1141
SelfAssociate,9,1,18,right,male,Friend,T.bmp,0,b,1195
SelfAssociate,9,1,18,right,male,Self,S.bmp,1,b,1246
SelfAssociate,9,1,18,right,male,Stranger,C.bmp,1,m,1086
SelfAssociate,9,1,18,right,male,Friend,T.bmp,1,n,822
SelfAssociate,9,1,18,right,male,Self,S.bmp,1,m,1132
SelfAssociate,9,1,18,right,male,Friend,T.bmp,1,n,980
SelfAssociate,9,1,18,right,male,Stranger,C.bmp,1,b,802
SelfAssociate,9,1,18,right,male,Self,S.bmp,1,m,900
SelfAssociate,9,1,18,right,male,Friend,T.bmp,1,n,1555
SelfAssociate,9,1,18,right,male,Stranger,C.bmp,1,m,1277
SelfAssociate,9,1,18,right,male,Self,S.bmp,1,n,903
SelfAssociate,9,1,18,right,male,Self,S.bmp,1,b,1125
SelfAssociate,9,1,18,right,male,Stranger,C.bmp,1,b,1149
SelfAssociate,9,1,18,right,male,Friend,T.bmp,1,m,1289
SelfAssociate,9,1,18,right,male,Friend,T.bmp,1,b,834
SelfAssociate,9,1,18,right,male,Self,S.bmp,1,b,1182
SelfAssociate,9,1,18,right,male,Friend,T.bmp,1,b,796
SelfAssociate,9,1,18,right,male,Self,S.bmp,1,b,926
SelfAssociate,9,1,18,right,male,Friend,T.bmp,1,m,1214
SelfAssociate,9,1,18,right,male,Friend,T.bmp,1,m,972
SelfAssociate,9,1,18,right,male,Self,S.bmp,1,n,1093
SelfAssociate,9,1,18,right,male,Self,S.bmp,1,m,1277
SelfAssociate,9,1,18,right,male,Friend,T.bmp,1,b,1407
SelfAssociate,9,1,18,right,male,Self,S.bmp,1,b,935
SelfAssociate,9,1,18,right,male,Friend,T.bmp,1,m,1132
SelfAssociate,9,1,18,right,male,Self,S.bmp,0,b,2380
SelfAssociate,9,1,18,right,male,Self,S.bmp,1,b,978
SelfAssociate,9,1,18,right,male,Self,S.bmp,1,n,753
SelfAssociate,9,1,18,right,male,Self,S.bmp,1,b,805
SelfAssociate,9,1,18,right,male,Self,S.bmp,1,m,773
SelfAssociate,9,1,18,right,male,Self,S.bmp,1,n,717
SelfAssociate,9,1,18,right,male,Self,S.bmp,1,m,639
