ExperimentName,Subject,Age,Handedness,Sex,Label,Identity,Shape,Target.ACC,Target.RESP,Target.RT
breaking,1,24,right,male,friend,Friend,S.bmp,0,,0
breaking,1,24,right,male,stranger,Friend,S.bmp,1,n,1055
breaking,1,24,right,male,friend,Stranger,C.bmp,1,m,748
breaking,1,24,right,male,friend,Friend,S.bmp,0,,0
breaking,1,24,right,male,self,Stranger,C.bmp,1,n,516
breaking,1,24,right,male,stranger,Stranger,C.bmp,1,m,696
breaking,1,24,right,male,stranger,Self,T.bmp,0,,0
breaking,1,24,right,male,stranger,Self,T.bmp,1,m,1032
breaking,1,24,right,male,self,Self,T.bmp,0,n,748
breaking,1,24,right,male,stranger,Friend,S.bmp,0,m,1096
breaking,1,24,right,male,friend,Self,T.bmp,0,m,820
breaking,1,24,right,male,self,Stranger,C.bmp,1,n,513
breaking,1,24,right,male,stranger,Self,T.bmp,0,n,1085
breaking,1,24,right,male,self,Self,T.bmp,1,m,977
breaking,1,24,right,male,stranger,Stranger,C.bmp,1,m,901
breaking,1,24,right,male,friend,Self,T.bmp,0,,0
breaking,1,24,right,male,self,Friend,S.bmp,1,m,790
breaking,1,24,right,male,friend,Stranger,C.bmp,0,,0
breaking,1,24,right,male,friend,Stranger,C.bmp,1,m,662
breaking,1,24,right,male,self,Friend,S.bmp,1,m,913
breaking,1,24,right,male,stranger,Friend,S.bmp,1,n,997
breaking,1,24,right,male,self,Friend,S.bmp,1,m,658
breaking,1,24,right,male,friend,Self,T.bmp,0,,0
breaking,1,24,right,male,friend,Friend,S.bmp,1,m,978
breaking,1,24,right,male,self,Self,T.bmp,1,m,702
breaking,1,24,right,male,stranger,Stranger,C.bmp,1,m,610
breaking,1,24,right,male,self,Stranger,C.bmp,1,n,559
breaking,1,24,right,male,self,Self,T.bmp,1,m,899
breaking,1,24,right,male,self,Stranger,C.bmp,1,n,975
breaking,1,24,right,male,stranger,Friend,S.bmp,1,n,947
breaking,1,24,right,male,friend,Friend,S.bmp,1,m,807
breaking,1,24,right,male,self,Stranger,C.bmp,1,n,556
breaking,1,24,right,male,friend,Self,T.bmp,1,n,679
breaking,1,24,right,male,stranger,Stranger,C.bmp,1,m,899
breaking,1,24,right,male,stranger,Self,T.bmp,1,m,783
breaking,1,24,right,male,friend,Stranger,C.bmp,0,n,1083
breaking,1,24,right,male,stranger,Friend,S.bmp,0,,0
breaking,1,24,right,male,stranger,Stranger,C.bmp,1,m,668
breaking,1,24,right,male,self,Friend,S.bmp,1,m,792
breaking,1,24,right,male,stranger,Friend,S.bmp,1,n,828
breaking,1,24,right,male,self,Self,T.bmp,1,m,696
breaking,1,24,right,male,self,Self,T.bmp,1,m,653
breaking,1,24,right,male,stranger,Stranger,C.bmp,1,m,617
breaking,1,24,right,male,friend,Self,T.bmp,1,n,901
breaking,1,24,right,male,friend,Friend,S.bmp,1,m,912
breaking,1,24,right,male,friend,Stranger,C.bmp,1,m,916
breaking,1,24,right,male,stranger,Self,T.bmp,1,m,1097
breaking,1,24,right,male,self,Friend,S.bmp,1,m,693
breaking,1,24,right,male,friend,Friend,S.bmp,1,m,1001
breaking,1,24,right,male,self,Stranger,C.bmp,1,n,477
breaking,1,24,right,male,friend,Self,T.bmp,0,m,842
breaking,1,24,right,male,self,Friend,S.bmp,1,m,718
breaking,1,24,right,male,stranger,Self,T.bmp,1,m,762
breaking,1,24,right,male,friend,Stranger,C.bmp,1,m,710
breaking,1,24,right,male,stranger,Friend,S.bmp,1,n,690
breaking,1,24,right,male,self,Stranger,C.bmp,1,n,751
breaking,1,24,right,male,self,Stranger,C.bmp,1,n,1003
breaking,1,24,right,male,stranger,Stranger,C.bmp,1,m,846
breaking,1,24,right,male,friend,Stranger,C.bmp,0,,0
breaking,1,24,right,male,friend,Self,T.bmp,1,n,862
breaking,1,24,right,male,stranger,Self,T.bmp,1,m,819
breaking,1,24,right,male,self,Self,T.bmp,1,m,975
breaking,1,24,right,male,friend,Self,T.bmp,1,n,803
breaking,1,24,right,male,friend,Self,T.bmp,1,n,583
breaking,1,24,right,male,self,Self,T.bmp,1,m,571
breaking,1,24,right,male,stranger,Self,T.bmp,1,m,712
breaking,1,24,right,male,stranger,Friend,S.bmp,1,n,1052
breaking,1,24,right,male,self,Friend,S.bmp,1,m,672
breaking,1,24,right,male,friend,Friend,S.bmp,1,m,732
breaking,1,24,right,male,self,Self,T.bmp,1,m,1079
breaking,1,24,right,male,stranger,Stranger,C.bmp,1,m,836
breaking,1,24,right,male,friend,Friend,S.bmp,0,,0
breaking,1,24,right,male,self,Stranger,C.bmp,1,n,588
breaking,1,24,right,male,stranger,Self,T.bmp,1,m,1096
breaking,1,24,right,male,friend,Stranger,C.bmp,1,m,970
breaking,1,24,right,male,self,Friend,S.bmp,1,m,775
breaking,1,24,right,male,friend,Friend,S.bmp,1,m,915
breaking,1,24,right,male,stranger,Stranger,C.bmp,1,m,999
breaking,1,24,right,male,friend,Stranger,C.bmp,1,m,851
breaking,1,24,right,male,self,Friend,S.bmp,1,m,855
breaking,1,24,right,male,stranger,Friend,S.bmp,1,n,804
breaking,1,24,right,male,stranger,Self,T.bmp,1,m,994
breaking,1,24,right,male,stranger,Stranger,C.bmp,1,m,870
breaking,1,24,right,male,stranger,Friend,S.bmp,1,n,874
breaking,1,24,right,male,friend,Friend,S.bmp,1,m,703
breaking,1,24,right,male,self,Self,T.bmp,1,m,715
breaking,1,24,right,male,friend,Friend,S.bmp,1,m,1087
breaking,1,24,right,male,stranger,Friend,S.bmp,1,n,683
breaking,1,24,right,male,self,Friend,S.bmp,1,m,687
breaking,1,24,right,male,friend,Friend,S.bmp,1,m,979
breaking,1,24,right,male,stranger,Friend,S.bmp,1,n,647
breaking,1,24,right,male,friend,Self,T.bmp,1,n,803
breaking,1,24,right,male,stranger,Stranger,C.bmp,1,m,775
breaking,1,24,right,male,self,Stranger,C.bmp,0,,0
breaking,1,24,right,male,self,Self,T.bmp,1,m,792
breaking,1,24,right,male,stranger,Self,T.bmp,1,m,900
breaking,1,24,right,male,friend,Stranger,C.bmp,1,m,928
breaking,1,24,right,male,friend,Stranger,C.bmp,1,m,572
breaking,1,24,right,male,self,Self,T.bmp,0,n,984
breaking,1,24,right,male,friend,Self,T.bmp,1,n,1093
breaking,1,24,right,male,self,Friend,S.bmp,1,m,1001
breaking,1,24,right,male,friend,Stranger,C.bmp,1,m,989
breaking,1,24,right,male,stranger,Self,T.bmp,1,m,800
breaking,1,24,right,male,friend,Self,T.bmp,0,m,770
breaking,1,24,right,male,stranger,Stranger,C.bmp,1,m,637
breaking,1,24,right,male,self,Friend,S.bmp,1,m,793
breaking,1,24,right,male,self,Stranger,C.bmp,1,n,709
breaking,1,24,right,male,self,Stranger,C.bmp,1,n,649
breaking,1,24,right,male,stranger,Self,T.bmp,1,m,829
breaking,1,24,right,male,self,Stranger,C.bmp,1,n,730
breaking,1,24,right,male,friend,Self,T.bmp,1,n,910
breaking,1,24,right,male,self,Stranger,C.bmp,1,n,650
breaking,1,24,right,male,self,Friend,S.bmp,0,n,910
breaking,1,24,right,male,friend,Self,T.bmp,1,n,968
breaking,1,24,right,male,stranger,Stranger,C.bmp,1,m,1076
breaking,1,24,right,male,friend,Friend,S.bmp,1,m,1000
breaking,1,24,right,male,self,Friend,S.bmp,1,m,772
breaking,1,24,right,male,stranger,Friend,S.bmp,1,n,712
breaking,1,24,right,male,self,Self,T.bmp,0,n,1036
breaking,1,24,right,male,self,Self,T.bmp,1,m,649
breaking,1,24,right,male,stranger,Self,T.bmp,1,m,869
breaking,1,24,right,male,self,Friend,S.bmp,1,m,729
breaking,1,24,right,male,stranger,Friend,S.bmp,1,n,757
breaking,1,24,right,male,stranger,Self,T.bmp,1,m,786
breaking,1,24,right,male,friend,Self,T.bmp,1,n,742
breaking,1,24,right,male,friend,Friend,S.bmp,1,m,818
breaking,1,24,right,male,friend,Stranger,C.bmp,1,m,622
breaking,1,24,right,male,friend,Friend,S.bmp,1,m,809
breaking,1,24,right,male,stranger,Stranger,C.bmp,1,m,638
breaking,1,24,right,male,self,Stranger,C.bmp,1,n,746
breaking,1,24,right,male,stranger,Stranger,C.bmp,1,m,566
breaking,1,24,right,male,self,Self,T.bmp,1,m,770
breaking,1,24,right,male,friend,Stranger,C.bmp,1,m,614
breaking,1,24,right,male,stranger,Friend,S.bmp,0,,0
breaking,1,24,right,male,friend,Stranger,C.bmp,1,m,655
breaking,1,24,right,male,self,Stranger,C.bmp,1,n,595
breaking,1,24,right,male,stranger,Friend,S.bmp,1,n,887
breaking,1,24,right,male,stranger,Friend,S.bmp,1,n,691
breaking,1,24,right,male,friend,Stranger,C.bmp,1,m,632
breaking,1,24,right,male,self,Friend,S.bmp,1,m,788
breaking,1,24,right,male,stranger,Self,T.bmp,1,m,655
breaking,1,24,right,male,friend,Stranger,C.bmp,1,m,635
breaking,1,24,right,male,friend,Friend,S.bmp,0,n,927
breaking,1,24,right,male,friend,Self,T.bmp,0,m,708
breaking,1,24,right,male,self,Self,T.bmp,1,m,640
breaking,1,24,right,male,self,Self,T.bmp,1,m,908
breaking,1,24,right,male,friend,Friend,S.bmp,1,m,816
breaking,1,24,right,male,self,Self,T.bmp,1,m,660
breaking,1,24,right,male,stranger,Friend,S.bmp,1,n,793
breaking,1,24,right,male,stranger,Stranger,C.bmp,1,m,709
breaking,1,24,right,male,self,Friend,S.bmp,1,m,705
breaking,1,24,right,male,friend,Friend,S.bmp,0,,0
breaking,1,24,right,male,self,Friend,S.bmp,1,m,712
breaking,1,24,right,male,self,Stranger,C.bmp,1,n,445
breaking,1,24,right,male,stranger,Self,T.bmp,1,m,745
breaking,1,24,right,male,self,Stranger,C.bmp,1,n,725
breaking,1,24,right,male,stranger,Stranger,C.bmp,1,m,769
breaking,1,24,right,male,stranger,Stranger,C.bmp,1,m,621
breaking,1,24,right,male,friend,Stranger,C.bmp,1,m,802
breaking,1,24,right,male,friend,Self,T.bmp,0,m,1078
breaking,1,24,right,male,stranger,Self,T.bmp,1,m,626
breaking,1,24,right,male,friend,Self,T.bmp,1,n,598
breaking,1,24,right,male,stranger,Self,T.bmp,1,m,739
breaking,1,24,right,male,self,Self,T.bmp,1,m,687
breaking,1,24,right,male,friend,Self,T.bmp,1,n,651
breaking,1,24,right,male,friend,Friend,S.bmp,1,m,927
breaking,1,24,right,male,friend,Stranger,C.bmp,1,m,659
breaking,1,24,right,male,self,Friend,S.bmp,1,m,760
breaking,1,24,right,male,friend,Self,T.bmp,0,m,836
breaking,1,24,right,male,friend,Stranger,C.bmp,1,m,808
breaking,1,24,right,male,friend,Self,T.bmp,1,n,628
breaking,1,24,right,male,friend,Stranger,C.bmp,1,m,1008
breaking,1,24,right,male,stranger,Stranger,C.bmp,1,m,596
breaking,1,24,right,male,stranger,Stranger,C.bmp,1,m,512
breaking,1,24,right,male,self,Stranger,C.bmp,1,n,716
breaking,1,24,right,male,self,Self,T.bmp,1,m,632
breaking,1,24,right,male,stranger,Friend,S.bmp,1,n,684
breaking,1,24,right,male,self,Stranger,C.bmp,1,n,705
breaking,1,24,right,male,friend,Friend,S.bmp,1,m,805
breaking,1,24,right,male,self,Friend,S.bmp,1,m,881
breaking,1,24,right,male,stranger,Friend,S.bmp,1,n,709
breaking,1,24,right,male,friend,Friend,S.bmp,1,m,839
breaking,1,24,right,male,self,Self,T.bmp,1,m,780
breaking,1,24,right,male,stranger,Self,T.bmp,0,,0
breaking,1,24,right,male,self,Friend,S.bmp,1,m,692
breaking,1,24,right,male,stranger,Self,T.bmp,1,m,847
breaking,1,24,right,male,stranger,Friend,S.bmp,1,n,723
breaking,1,24,right,male,stranger,Stranger,C.bmp,1,m,544
breaking,1,24,right,male,self,Stranger,C.bmp,1,n,580
breaking,1,24,right,male,stranger,Friend,S.bmp,0,m,832
breaking,1,24,right,male,stranger,Friend,S.bmp,1,n,572
breaking,1,24,right,male,self,Self,T.bmp,1,m,584
breaking,1,24,right,male,self,Friend,S.bmp,1,m,1013
breaking,1,24,right,male,friend,Friend,S.bmp,1,m,985
breaking,1,24,right,male,self,Friend,S.bmp,1,m,909
breaking,1,24,right,male,stranger,Stranger,C.bmp,1,m,505
breaking,1,24,right,male,self,Stranger,C.bmp,1,n,389
breaking,1,24,right,male,self,Stranger,C.bmp,1,n,553
breaking,1,24,right,male,friend,Friend,S.bmp,1,m,965
breaking,1,24,right,male,self,Friend,S.bmp,1,m,649
breaking,1,24,right,male,friend,Self,T.bmp,1,n,949
breaking,1,24,right,male,stranger,Stranger,C.bmp,1,m,642
breaking,1,24,right,male,friend,Self,T.bmp,1,n,974
breaking,1,24,right,male,stranger,Self,T.bmp,1,m,1098
breaking,1,24,right,male,self,Stranger,C.bmp,1,n,750
breaking,1,24,right,male,friend,Self,T.bmp,0,,0
breaking,1,24,right,male,stranger,Friend,S.bmp,1,n,911
breaking,1,24,right,male,friend,Stranger,C.bmp,1,m,579
breaking,1,24,right,male,stranger,Self,T.bmp,1,m,791
breaking,1,24,right,male,stranger,Self,T.bmp,1,m,979
breaking,1,24,right,male,stranger,Stranger,C.bmp,1,m,567
breaking,1,24,right,male,friend,Friend,S.bmp,0,n,987
breaking,1,24,right,male,self,Self,T.bmp,1,m,679
breaking,1,24,right,male,self,Self,T.bmp,1,m,971
breaking,1,24,right,male,friend,Stranger,C.bmp,1,m,623
breaking,1,24,right,male,friend,Stranger,C.bmp,1,m,587
breaking,1,24,right,male,stranger,Self,T.bmp,1,m,720
breaking,1,24,right,male,self,Stranger,C.bmp,1,n,484
breaking,1,24,right,male,stranger,Stranger,C.bmp,1,m,680
breaking,1,24,right,male,self,Self,T.bmp,0,,0
breaking,1,24,right,male,self,Friend,S.bmp,1,m,560
breaking,1,24,right,male,friend,Stranger,C.bmp,1,m,589
breaking,1,24,right,male,stranger,Self,T.bmp,1,m,609
breaking,1,24,right,male,stranger,Stranger,C.bmp,1,m,548
breaking,1,24,right,male,friend,Friend,S.bmp,1,m,680
breaking,1,24,right,male,self,Self,T.bmp,1,m,700
breaking,1,24,right,male,stranger,Friend,S.bmp,1,n,865
breaking,1,24,right,male,friend,Stranger,C.bmp,1,m,539
breaking,1,24,right,male,friend,Friend,S.bmp,1,m,911
breaking,1,24,right,male,stranger,Self,T.bmp,1,m,803
breaking,1,24,right,male,self,Stranger,C.bmp,1,n,695
breaking,1,24,right,male,friend,Self,T.bmp,0,m,580
breaking,1,24,right,male,self,Friend,S.bmp,0,,0
breaking,1,24,right,male,self,Stranger,C.bmp,1,n,444
breaking,1,24,right,male,friend,Self,T.bmp,1,n,912
breaking,1,24,right,male,stranger,Stranger,C.bmp,1,m,587
breaking,1,24,right,male,friend,Friend,S.bmp,1,m,1032
breaking,1,24,right,male,friend,Self,T.bmp,1,n,732
breaking,1,24,right,male,friend,Stranger,C.bmp,1,m,536
breaking,1,24,right,male,self,Friend,S.bmp,1,m,716
breaking,1,24,right,male,self,Self,T.bmp,1,m,873
breaking,1,24,right,male,stranger,Friend,S.bmp,0,m,645
breaking,1,24,right,male,stranger,Friend,S.bmp,1,n,841
breaking,1,24,right,male,self,Self,T.bmp,1,m,663
breaking,1,24,right,male,stranger,Stranger,C.bmp,1,m,587
breaking,1,24,right,male,stranger,Self,T.bmp,1,m,912
breaking,1,24,right,male,stranger,Self,T.bmp,1,m,524
breaking,1,24,right,male,stranger,Stranger,C.bmp,1,m,648
breaking,1,24,right,male,self,Friend,S.bmp,1,m,812
breaking,1,24,right,male,stranger,Friend,S.bmp,1,n,632
breaking,1,24,right,male,stranger,Friend,S.bmp,0,,0
breaking,1,24,right,male,stranger,Stranger,C.bmp,1,m,649
breaking,1,24,right,male,self,Self,T.bmp,1,m,621
breaking,1,24,right,male,self,Friend,S.bmp,1,m,841
breaking,1,24,right,male,friend,Friend,S.bmp,1,m,1005
breaking,1,24,right,male,self,Stranger,C.bmp,1,n,466
breaking,1,24,right,male,friend,Stranger,C.bmp,1,m,549
breaking,1,24,right,male,friend,Stranger,C.bmp,1,m,785
breaking,1,24,right,male,friend,Friend,S.bmp,1,m,717
breaking,1,24,right,male,self,Stranger,C.bmp,1,n,401
breaking,1,24,right,male,friend,Self,T.bmp,1,n,742
breaking,1,24,right,male,friend,Self,T.bmp,1,n,594
breaking,1,24,right,male,self,Friend,S.bmp,1,m,806
breaking,1,24,right,male,friend,Self,T.bmp,1,n,1002
breaking,1,24,right,male,self,Self,T.bmp,1,m,598
breaking,1,24,right,male,self,Stranger,C.bmp,1,n,395
breaking,1,24,right,male,stranger,Self,T.bmp,1,m,639
breaking,1,24,right,male,friend,Friend,S.bmp,1,m,859
breaking,1,24,right,male,friend,Stranger,C.bmp,1,m,1046
breaking,1,24,right,male,stranger,Friend,S.bmp,1,n,810
breaking,1,24,right,male,friend,Friend,S.bmp,1,m,791
breaking,1,24,right,male,stranger,Friend,S.bmp,1,n,587
breaking,1,24,right,male,self,Stranger,C.bmp,1,n,575
breaking,1,24,right,male,friend,Self,T.bmp,1,n,883
breaking,1,24,right,male,self,Self,T.bmp,1,m,528
breaking,1,24,right,male,stranger,Stranger,C.bmp,1,m,1044
breaking,1,24,right,male,friend,Stranger,C.bmp,1,m,736
breaking,1,24,right,male,self,Self,T.bmp,1,m,772
breaking,1,24,right,male,friend,Stranger,C.bmp,1,m,632
breaking,1,24,right,male,self,Self,T.bmp,1,m,709
breaking,1,24,right,male,self,Friend,S.bmp,1,m,521
breaking,1,24,right,male,friend,Friend,S.bmp,1,m,620
breaking,1,24,right,male,friend,Self,T.bmp,1,n,648
breaking,1,24,right,male,self,Stranger,C.bmp,0,,0
breaking,1,24,right,male,stranger,Self,T.bmp,1,m,793
breaking,1,24,right,male,stranger,Self,T.bmp,1,m,813
breaking,1,24,right,male,friend,Friend,S.bmp,1,m,641
breaking,1,24,right,male,self,Stranger,C.bmp,1,n,365
breaking,1,24,right,male,stranger,Self,T.bmp,1,m,657
breaking,1,24,right,male,friend,Self,T.bmp,0,,0
breaking,1,24,right,male,stranger,Stranger,C.bmp,1,m,1098
breaking,1,24,right,male,stranger,Stranger,C.bmp,1,m,510
breaking,1,24,right,male,friend,Stranger,C.bmp,1,m,610
breaking,1,24,right,male,self,Friend,S.bmp,1,m,637
breaking,1,24,right,male,self,Friend,S.bmp,1,m,386
breaking,1,24,right,male,stranger,Friend,S.bmp,1,n,870
breaking,1,24,right,male,stranger,Friend,S.bmp,1,n,482
breaking,1,24,right,male,friend,Friend,S.bmp,1,m,574
breaking,1,24,right,male,friend,Self,T.bmp,0,m,634
breaking,1,24,right,male,self,Stranger,C.bmp,1,n,751
breaking,1,24,right,male,friend,Friend,S.bmp,1,m,747
breaking,1,24,right,male,stranger,Friend,S.bmp,1,n,807
breaking,1,24,right,male,stranger,Stranger,C.bmp,1,m,915
breaking,1,24,right,male,self,Self,T.bmp,1,m,607
breaking,1,24,right,male,friend,Stranger,C.bmp,1,m,780
breaking,1,24,right,male,stranger,Friend,S.bmp,0,m,992
breaking,1,24,right,male,stranger,Self,T.bmp,1,m,603
breaking,1,24,right,male,self,Stranger,C.bmp,1,n,591
breaking,1,24,right,male,friend,Self,T.bmp,1,n,731
breaking,1,24,right,male,stranger,Stranger,C.bmp,1,m,560
breaking,1,24,right,male,friend,Self,T.bmp,0,m,812
breaking,1,24,right,male,stranger,Self,T.bmp,1,m,512
breaking,1,24,right,male,self,Self,T.bmp,1,m,740
breaking,1,24,right,male,friend,Stranger,C.bmp,1,m,561
breaking,1,24,right,male,stranger,Friend,S.bmp,1,n,837
breaking,1,24,right,male,self,Friend,S.bmp,1,m,721
breaking,1,24,right,male,friend,Friend,S.bmp,1,m,885
breaking,1,24,right,male,self,Self,T.bmp,1,m,633
breaking,1,24,right,male,stranger,Self,T.bmp,1,m,773
breaking,1,24,right,male,self,Friend,S.bmp,1,m,753
breaking,1,24,right,male,self,Stranger,C.bmp,1,n,637
breaking,1,24,right,male,stranger,Stranger,C.bmp,1,m,561
breaking,1,24,right,male,self,Friend,S.bmp,1,m,517
breaking,1,24,right,male,friend,Stranger,C.bmp,1,m,762
breaking,1,24,right,male,friend,Friend,S.bmp,1,m,625
breaking,1,24,right,male,stranger,Self,T.bmp,1,m,829
breaking,1,24,right,male,self,Self,T.bmp,0,n,752
breaking,1,24,right,male,self,Stranger,C.bmp,1,n,500
breaking,1,24,right,male,self,Friend,S.bmp,1,m,697
breaking,1,24,right,male,stranger,Stranger,C.bmp,1,m,525
breaking,1,24,right,male,friend,Stranger,C.bmp,1,m,449
breaking,1,24,right,male,self,Self,T.bmp,1,m,429
breaking,1,24,right,male,friend,Self,T.bmp,0,m,721
breaking,1,24,right,male,stranger,Friend,S.bmp,1,n,774
breaking,1,24,right,male,self,Stranger,C.bmp,1,n,442
breaking,1,24,right,male,self,Friend,S.bmp,1,m,750
breaking,1,24,right,male,friend,Friend,S.bmp,0,n,810
breaking,1,24,right,male,friend,Self,T.bmp,1,n,974
breaking,1,24,right,male,stranger,Stranger,C.bmp,1,m,610
breaking,1,24,right,male,stranger,Self,T.bmp,1,m,502
breaking,1,24,right,male,friend,Stranger,C.bmp,1,m,898
breaking,1,24,right,male,self,Friend,S.bmp,1,m,878
breaking,1,24,right,male,self,Self,T.bmp,1,m,754
breaking,1,24,right,male,stranger,Self,T.bmp,1,m,639
breaking,1,24,right,male,self,Stranger,C.bmp,1,n,611
breaking,1,24,right,male,friend,Friend,S.bmp,1,m,903
breaking,1,24,right,male,friend,Self,T.bmp,0,m,715
breaking,1,24,right,male,stranger,Stranger,C.bmp,1,m,472
breaking,1,24,right,male,friend,Stranger,C.bmp,0,,0
breaking,1,24,right,male,stranger,Friend,S.bmp,1,n,944
breaking,1,24,right,male,stranger,Friend,S.bmp,1,n,556
breaking,1,24,right,male,self,Stranger,C.bmp,1,n,391
breaking,1,24,right,male,self,Friend,S.bmp,1,m,724
breaking,1,24,right,male,self,Friend,S.bmp,1,m,584
breaking,1,24,right,male,friend,Self,T.bmp,0,m,748
breaking,1,24,right,male,stranger,Friend,S.bmp,1,n,752
breaking,1,24,right,male,friend,Friend,S.bmp,1,m,668
breaking,1,24,right,male,stranger,Stranger,C.bmp,1,m,953
breaking,1,24,right,male,self,Self,T.bmp,1,m,629
breaking,1,24,right,male,friend,Friend,S.bmp,1,m,945
breaking,1,24,right,male,friend,Stranger,C.bmp,1,m,565
breaking,1,24,right,male,stranger,Friend,S.bmp,0,m,777
breaking,1,24,right,male,friend,Self,T.bmp,1,n,534
breaking,1,24,right,male,self,Stranger,C.bmp,1,n,586
breaking,1,24,right,male,stranger,Friend,S.bmp,1,n,557
breaking,1,24,right,male,stranger,Stranger,C.bmp,1,m,593
breaking,1,24,right,male,friend,Friend,S.bmp,1,m,701
breaking,1,24,right,male,stranger,Self,T.bmp,1,m,682
breaking,1,24,right,male,friend,Stranger,C.bmp,1,m,494
breaking,1,24,right,male,friend,Self,T.bmp,1,n,674
breaking,1,24,right,male,friend,Stranger,C.bmp,1,m,614
breaking,1,24,right,male,self,Stranger,C.bmp,1,n,706
breaking,1,24,right,male,self,Self,T.bmp,1,m,663
breaking,1,24,right,male,self,Friend,S.bmp,1,m,819
breaking,1,24,right,male,stranger,Self,T.bmp,1,m,839
breaking,1,24,right,male,stranger,Self,T.bmp,1,m,555
breaking,1,24,right,male,self,Self,T.bmp,1,m,654
breaking,1,24,right,male,stranger,Stranger,C.bmp,1,m,675
breaking,1,24,right,male,self,Self,T.bmp,1,m,567
breaking,1,24,right,male,self,Stranger,C.bmp,1,n,403
breaking,1,24,right,male,stranger,Self,T.bmp,1,m,647
breaking,1,24,right,male,stranger,Friend,S.bmp,1,n,579
breaking,1,24,right,male,self,Stranger,C.bmp,1,n,792
breaking,1,24,right,male,friend,Stranger,C.bmp,1,m,724
breaking,1,24,right,male,self,Friend,S.bmp,1,m,656
breaking,1,24,right,male,stranger,Friend,S.bmp,1,n,604
breaking,1,24,right,male,friend,Friend,S.bmp,1,m,609
breaking,1,24,right,male,stranger,Stranger,C.bmp,1,m,645
breaking,1,24,right,male,stranger,Stranger,C.bmp,1,m,705
breaking,1,24,right,male,friend,Stranger,C.bmp,1,m,484
breaking,1,24,right,male,stranger,Friend,S.bmp,1,n,624
breaking,1,24,right,male,stranger,Stranger,C.bmp,1,m,573
breaking,1,24,right,male,friend,Self,T.bmp,1,n,561
breaking,1,24,right,male,self,Self,T.bmp,1,m,525
breaking,1,24,right,male,self,Self,T.bmp,1,m,825
breaking,1,24,right,male,friend,Friend,S.bmp,1,m,685
breaking,1,24,right,male,self,Friend,S.bmp,1,m,738
breaking,1,24,right,male,self,Friend,S.bmp,1,m,718
breaking,1,24,right,male,friend,Self,T.bmp,1,n,666
breaking,1,24,right,male,stranger,Self,T.bmp,1,m,686
breaking,1,24,right,male,self,Stranger,C.bmp,1,n,474
breaking,1,24,right,male,stranger,Self,T.bmp,1,m,615
breaking,1,24,right,male,friend,Stranger,C.bmp,1,m,770
breaking,1,24,right,male,friend,Friend,S.bmp,1,m,1022
breaking,1,24,right,male,friend,Self,T.bmp,1,n,554
breaking,1,24,right,male,stranger,Friend,S.bmp,1,n,799
breaking,1,24,right,male,self,Friend,S.bmp,1,m,508
breaking,1,24,right,male,self,Friend,S.bmp,1,m,632
breaking,1,24,right,male,stranger,Self,T.bmp,1,m,940
breaking,1,24,right,male,friend,Self,T.bmp,1,n,775
breaking,1,24,right,male,stranger,Stranger,C.bmp,1,m,947
breaking,1,24,right,male,friend,Friend,S.bmp,1,m,760
breaking,1,24,right,male,friend,Stranger,C.bmp,1,m,476
breaking,1,24,right,male,self,Stranger,C.bmp,1,n,680
breaking,1,24,right,male,stranger,Friend,S.bmp,1,n,764
breaking,1,24,right,male,friend,Stranger,C.bmp,1,m,896
breaking,1,24,right,male,friend,Self,T.bmp,1,n,597
breaking,1,24,right,male,friend,Friend,S.bmp,1,m,609
breaking,1,24,right,male,friend,Friend,S.bmp,1,m,669
breaking,1,24,right,male,stranger,Self,T.bmp,1,m,489
breaking,1,24,right,male,self,Stranger,C.bmp,1,n,502
breaking,1,24,right,male,friend,Self,T.bmp,1,n,698
breaking,1,24,right,male,self,Friend,S.bmp,1,m,693
breaking,1,24,right,male,self,Stranger,C.bmp,1,n,361
breaking,1,24,right,male,self,Self,T.bmp,1,m,549
breaking,1,24,right,male,stranger,Stranger,C.bmp,1,m,618
breaking,1,24,right,male,stranger,Self,T.bmp,1,m,606
breaking,1,24,right,male,self,Self,T.bmp,1,m,554
breaking,1,24,right,male,stranger,Stranger,C.bmp,1,m,662
breaking,1,24,right,male,self,Self,T.bmp,1,m,434
breaking,1,24,right,male,friend,Stranger,C.bmp,1,m,591
breaking,1,24,right,male,stranger,Friend,S.bmp,1,n,755
breaking,1,24,right,male,self,Stranger,C.bmp,1,n,431
breaking,1,24,right,male,self,Friend,S.bmp,1,m,547
breaking,1,24,right,male,self,Self,T.bmp,1,m,750
breaking,1,24,right,male,friend,Self,T.bmp,1,n,771
breaking,1,24,right,male,stranger,Stranger,C.bmp,1,m,503
breaking,1,24,right,male,friend,Stranger,C.bmp,1,m,635
breaking,1,24,right,male,friend,Self,T.bmp,1,n,839
breaking,1,24,right,male,stranger,Self,T.bmp,1,m,507
breaking,1,24,right,male,self,Stranger,C.bmp,1,n,600
breaking,1,24,right,male,friend,Friend,S.bmp,1,m,732
breaking,1,24,right,male,friend,Friend,S.bmp,1,m,744
breaking,1,24,right,male,stranger,Friend,S.bmp,1,n,572
breaking,1,24,right,male,stranger,Self,T.bmp,1,m,936
breaking,1,24,right,male,self,Stranger,C.bmp,1,n,397
breaking,1,24,right,male,stranger,Friend,S.bmp,1,n,817
breaking,1,24,right,male,stranger,Stranger,C.bmp,1,m,588
breaking,1,24,right,male,self,Self,T.bmp,1,m,440
breaking,1,24,right,male,stranger,Stranger,C.bmp,1,m,596
breaking,1,24,right,male,stranger,Friend,S.bmp,1,n,737
breaking,1,24,right,male,self,Friend,S.bmp,1,m,653
breaking,1,24,right,male,self,Self,T.bmp,1,m,857
breaking,1,24,right,male,stranger,Self,T.bmp,1,m,589
breaking,1,24,right,male,friend,Stranger,C.bmp,1,m,713
breaking,1,24,right,male,friend,Friend,S.bmp,1,m,870
breaking,1,24,right,male,friend,Self,T.bmp,1,n,690
breaking,1,24,right,male,friend,Stranger,C.bmp,1,m,766
breaking,1,24,right,male,self,Friend,S.bmp,1,m,530
breaking,1,24,right,male,friend,Friend,S.bmp,1,m,895
breaking,1,24,right,male,self,Self,T.bmp,1,m,554
breaking,1,24,right,male,friend,Self,T.bmp,1,n,766
breaking,1,24,right,male,stranger,Self,T.bmp,1,m,682
breaking,1,24,right,male,stranger,Stranger,C.bmp,1,m,998
breaking,1,24,right,male,friend,Friend,S.bmp,1,m,659
breaking,1,24,right,male,stranger,Friend,S.bmp,1,n,1039
breaking,1,24,right,male,friend,Friend,S.bmp,1,m,499
breaking,1,24,right,male,self,Friend,S.bmp,1,m,647
breaking,1,24,right,male,friend,Stranger,C.bmp,1,m,595
breaking,1,24,right,male,stranger,Friend,S.bmp,1,n,784
breaking,1,24,right,male,self,Stranger,C.bmp,0,m,924
breaking,1,24,right,male,stranger,Stranger,C.bmp,0,,0
breaking,1,24,right,male,stranger,Self,T.bmp,1,m,1035
breaking,1,24,right,male,friend,Self,T.bmp,0,m,1063
breaking,1,24,right,male,self,Friend,S.bmp,1,m,876
breaking,1,24,right,male,self,Friend,S.bmp,1,m,600
breaking,1,24,right,male,self,Stranger,C.bmp,0,,0
breaking,1,24,right,male,stranger,Stranger,C.bmp,1,m,432
breaking,1,24,right,male,friend,Stranger,C.bmp,1,m,700
breaking,1,24,right,male,friend,Self,T.bmp,0,m,545
breaking,1,24,right,male,friend,Stranger,C.bmp,1,m,845
breaking,1,24,right,male,self,Self,T.bmp,1,m,1001
breaking,1,24,right,male,stranger,Friend,S.bmp,0,m,1029
breaking,1,24,right,male,self,Stranger,C.bmp,1,n,929
breaking,1,24,right,male,self,Self,T.bmp,1,m,550
breaking,1,24,right,male,stranger,Self,T.bmp,0,,0
breaking,1,24,right,male,stranger,Stranger,C.bmp,1,m,838
breaking,1,24,right,male,self,Stranger,C.bmp,1,n,514
breaking,1,24,right,male,friend,Stranger,C.bmp,0,,0
breaking,1,24,right,male,friend,Friend,S.bmp,0,,0
breaking,1,24,right,male,self,Self,T.bmp,0,n,837
breaking,1,24,right,male,self,Self,T.bmp,1,m,969
breaking,1,24,right,male,friend,Friend,S.bmp,1,m,868
breaking,1,24,right,male,self,Self,T.bmp,0,,0
breaking,1,24,right,male,friend,Self,T.bmp,0,m,909
breaking,1,24,right,male,stranger,Self,T.bmp,1,m,649
breaking,1,24,right,male,stranger,Friend,S.bmp,1,n,973
breaking,1,24,right,male,self,Stranger,C.bmp,1,n,625
breaking,1,24,right,male,friend,Stranger,C.bmp,1,m,614
breaking,1,24,right,male,stranger,Stranger,C.bmp,1,m,802
breaking,1,24,right,male,self,Friend,S.bmp,1,m,878
breaking,1,24,right,male,friend,Self,T.bmp,1,n,850
breaking,1,24,right,male,stranger,Friend,S.bmp,1,n,694
breaking,1,24,right,male,self,Friend,S.bmp,0,,0
breaking,1,24,right,male,self,Friend,S.bmp,1,m,887
breaking,1,24,right,male,stranger,Friend,S.bmp,1,n,874
breaking,1,24,right,male,stranger,Stranger,C.bmp,1,m,582
breaking,1,24,right,male,friend,Stranger,C.bmp,1,m,858
breaking,1,24,right,male,friend,Self,T.bmp,1,n,711
breaking,1,24,right,male,stranger,Self,T.bmp,1,m,723
breaking,1,24,right,male,stranger,Self,T.bmp,1,m,879
breaking,1,24,right,male,friend,Friend,S.bmp,0,,0
breaking,1,24,right,male,self,Stranger,C.bmp,0,m,751
breaking,1,24,right,male,stranger,Friend,S.bmp,1,n,812
breaking,1,24,right,male,self,Self,T.bmp,1,m,808
breaking,1,24,right,male,friend,Friend,S.bmp,1,m,836
breaking,1,24,right,male,stranger,Self,T.bmp,1,m,600
breaking,1,24,right,male,self,Stranger,C.bmp,1,n,595
breaking,1,24,right,male,friend,Friend,S.bmp,1,m,736
breaking,1,24,right,male,friend,Friend,S.bmp,1,m,844
breaking,1,24,right,male,friend,Stranger,C.bmp,1,m,592
breaking,1,24,right,male,self,Friend,S.bmp,1,m,884
breaking,1,24,right,male,self,Self,T.bmp,1,m,968
breaking,1,24,right,male,stranger,Stranger,C.bmp,1,m,469
breaking,1,24,right,male,friend,Stranger,C.bmp,1,m,713
breaking,1,24,right,male,self,Friend,S.bmp,1,m,525
breaking,1,24,right,male,self,Friend,S.bmp,1,m,521
breaking,1,24,right,male,friend,Self,T.bmp,1,n,469
breaking,1,24,right,male,stranger,Friend,S.bmp,1,n,762
breaking,1,24,right,male,self,Self,T.bmp,1,m,646
breaking,1,24,right,male,friend,Stranger,C.bmp,1,m,745
breaking,1,24,right,male,stranger,Stranger,C.bmp,1,m,469
breaking,1,24,right,male,stranger,Self,T.bmp,1,m,722
breaking,1,24,right,male,self,Stranger,C.bmp,1,n,814
breaking,1,24,right,male,self,Stranger,C.bmp,1,n,834
breaking,1,24,right,male,stranger,Stranger,C.bmp,1,m,838
breaking,1,24,right,male,friend,Self,T.bmp,1,n,594
breaking,1,24,right,male,friend,Self,T.bmp,1,n,535
breaking,1,24,right,male,stranger,Self,T.bmp,0,n,539
breaking,1,24,right,male,stranger,Friend,S.bmp,1,n,687
breaking,1,24,right,male,friend,Friend,S.bmp,1,m,667
breaking,1,24,right,male,stranger,Self,T.bmp,0,,0
breaking,1,24,right,male,self,Friend,S.bmp,1,m,772
breaking,1,24,right,male,stranger,Self,T.bmp,1,m,743
breaking,1,24,right,male,self,Friend,S.bmp,1,m,675
breaking,1,24,right,male,self,Self,T.bmp,1,m,911
breaking,1,24,right,male,self,Friend,S.bmp,1,m,675
breaking,1,24,right,male,self,Self,T.bmp,1,m,552
breaking,1,24,right,male,stranger,Self,T.bmp,1,m,540
breaking,1,24,right,male,stranger,Friend,S.bmp,0,m,864
breaking,1,24,right,male,friend,Stranger,C.bmp,1,m,564
breaking,1,24,right,male,self,Stranger,C.bmp,1,n,640
breaking,1,24,right,male,friend,Stranger,C.bmp,1,m,517
breaking,1,24,right,male,friend,Self,T.bmp,0,m,585
breaking,1,24,right,male,self,Stranger,C.bmp,1,n,549
breaking,1,24,right,male,friend,Self,T.bmp,1,n,592
breaking,1,24,right,male,friend,Friend,S.bmp,1,m,570
breaking,1,24,right,male,stranger,Friend,S.bmp,1,n,551
breaking,1,24,right,male,self,Self,T.bmp,1,m,547
breaking,1,24,right,male,friend,Stranger,C.bmp,1,m,951
breaking,1,24,right,male,stranger,Stranger,C.bmp,1,m,451
breaking,1,24,right,male,stranger,Stranger,C.bmp,1,m,447
breaking,1,24,right,male,friend,Self,T.bmp,1,n,780
breaking,1,24,right,male,self,Stranger,C.bmp,1,n,664
breaking,1,24,right,male,stranger,Stranger,C.bmp,1,m,980
breaking,1,24,right,male,friend,Friend,S.bmp,1,m,592
breaking,1,24,right,male,stranger,Friend,S.bmp,1,n,388
breaking,1,24,right,male,self,Friend,S.bmp,1,m,843
breaking,1,24,right,male,self,Stranger,C.bmp,1,n,453
breaking,1,24,right,male,stranger,Friend,S.bmp,1,n,641
breaking,1,24,right,male,friend,Self,T.bmp,1,n,717
breaking,1,24,right,male,friend,Self,T.bmp,1,n,434
breaking,1,24,right,male,friend,Stranger,C.bmp,1,m,486
breaking,1,24,right,male,stranger,Stranger,C.bmp,1,m,778
breaking,1,24,right,male,stranger,Friend,S.bmp,1,n,782
breaking,1,24,right,male,self,Stranger,C.bmp,0,,0
breaking,1,24,right,male,stranger,Stranger,C.bmp,1,m,422
breaking,1,24,right,male,self,Stranger,C.bmp,0,m,618
breaking,1,24,right,male,friend,Friend,S.bmp,0,n,438
breaking,1,24,right,male,friend,Stranger,C.bmp,1,m,538
breaking,1,24,right,male,friend,Friend,S.bmp,1,m,806
breaking,1,24,right,male,stranger,Self,T.bmp,1,m,891
breaking,1,24,right,male,stranger,Stranger,C.bmp,1,m,471
breaking,1,24,right,male,friend,Stranger,C.bmp,1,m,459
breaking,1,24,right,male,self,Friend,S.bmp,1,m,591
breaking,1,24,right,male,friend,Self,T.bmp,1,n,723
breaking,1,24,right,male,stranger,Self,T.bmp,1,m,536
breaking,1,24,right,male,self,Self,T.bmp,1,m,836
breaking,1,24,right,male,stranger,Self,T.bmp,1,m,927
breaking,1,24,right,male,friend,Friend,S.bmp,1,m,867
breaking,1,24,right,male,self,Self,T.bmp,1,m,807
breaking,1,24,right,male,self,Self,T.bmp,1,m,612
breaking,1,24,right,male,self,Friend,S.bmp,1,m,1032
breaking,1,24,right,male,stranger,Friend,S.bmp,1,n,740
breaking,1,24,right,male,stranger,Self,T.bmp,1,m,544
breaking,1,24,right,male,friend,Friend,S.bmp,1,m,668
breaking,1,24,right,male,self,Friend,S.bmp,1,m,577
breaking,1,24,right,male,self,Stranger,C.bmp,1,n,637
breaking,1,24,right,male,stranger,Friend,S.bmp,1,n,905
breaking,1,24,right,male,friend,Friend,S.bmp,1,m,525
breaking,1,24,right,male,stranger,Friend,S.bmp,0,m,824
breaking,1,24,right,male,friend,Stranger,C.bmp,1,m,533
breaking,1,24,right,male,friend,Stranger,C.bmp,1,m,689
breaking,1,24,right,male,self,Friend,S.bmp,1,m,669
breaking,1,24,right,male,stranger,Stranger,C.bmp,1,m,865
breaking,1,24,right,male,stranger,Friend,S.bmp,1,n,766
breaking,1,24,right,male,friend,Friend,S.bmp,1,m,554
breaking,1,24,right,male,self,Stranger,C.bmp,1,n,438
breaking,1,24,right,male,stranger,Self,T.bmp,1,m,546
breaking,1,24,right,male,stranger,Stranger,C.bmp,1,m,878
breaking,1,24,right,male,friend,Stranger,C.bmp,1,m,619
breaking,1,24,right,male,self,Self,T.bmp,1,m,775
breaking,1,24,right,male,self,Self,T.bmp,1,m,467
breaking,1,24,right,male,stranger,Self,T.bmp,1,m,710
breaking,1,24,right,male,stranger,Stranger,C.bmp,1,m,930
breaking,1,24,right,male,self,Stranger,C.bmp,1,n,647
breaking,1,24,right,male,friend,Self,T.bmp,1,n,475
breaking,1,24,right,male,self,Friend,S.bmp,1,m,567
breaking,1,24,right,male,friend,Self,T.bmp,1,n,635
breaking,1,24,right,male,self,Self,T.bmp,1,m,607
breaking,1,24,right,male,friend,Self,T.bmp,1,n,692
breaking,1,24,right,male,stranger,Stranger,C.bmp,1,m,632
breaking,1,24,right,male,self,Self,T.bmp,1,m,756
breaking,1,24,right,male,friend,Friend,S.bmp,1,m,608
breaking,1,24,right,male,friend,Friend,S.bmp,1,m,516
breaking,1,24,right,male,self,Friend,S.bmp,1,m,473
breaking,1,24,right,male,friend,Friend,S.bmp,1,m,436
breaking,1,24,right,male,self,Stranger,C.bmp,1,n,784
breaking,1,24,right,male,stranger,Self,T.bmp,1,m,604
breaking,1,24,right,male,stranger,Stranger,C.bmp,1,m,688
breaking,1,24,right,male,self,Stranger,C.bmp,1,n,685
breaking,1,24,right,male,stranger,Stranger,C.bmp,1,m,505
breaking,1,24,right,male,friend,Self,T.bmp,0,m,653
breaking,1,24,right,male,friend,Stranger,C.bmp,1,m,745
breaking,1,24,right,male,self,Self,T.bmp,1,m,549
breaking,1,24,right,male,stranger,Self,T.bmp,1,m,658
breaking,1,24,right,male,friend,Self,T.bmp,1,n,678
breaking,1,24,right,male,self,Stranger,C.bmp,1,n,466
breaking,1,24,right,male,stranger,Self,T.bmp,1,m,613
breaking,1,24,right,male,stranger,Friend,S.bmp,1,n,593
breaking,1,24,right,male,stranger,Friend,S.bmp,0,m,686
breaking,1,24,right,male,self,Self,T.bmp,1,m,554
breaking,1,24,right,male,self,Friend,S.bmp,1,m,614
breaking,1,24,right,male,friend,Self,T.bmp,1,n,706
breaking,1,24,right,male,friend,Stranger,C.bmp,1,m,591
breaking,1,24,right,male,self,Friend,S.bmp,1,m,595
breaking,1,24,right,male,friend,Stranger,C.bmp,1,m,783
breaking,1,24,right,male,stranger,Friend,S.bmp,1,n,547
breaking,10,22,right,female,self,Friend,C.bmp,1,n,970
breaking,10,22,right,female,stranger,Stranger,T.bmp,1,n,646
breaking,10,22,right,female,friend,Friend,C.bmp,1,n,849
breaking,10,22,right,female,stranger,Friend,C.bmp,0,,0
breaking,10,22,right,female,stranger,Self,S.bmp,0,,0
breaking,10,22,right,female,stranger,Stranger,T.bmp,1,n,846
breaking,10,22,right,female,stranger,Self,S.bmp,1,n,642
breaking,10,22,right,female,self,Self,S.bmp,0,m,862
breaking,10,22,right,female,friend,Friend,C.bmp,1,n,954
breaking,10,22,right,female,self,Friend,C.bmp,1,n,967
breaking,10,22,right,female,self,Stranger,T.bmp,1,m,587
breaking,10,22,right,female,friend,Stranger,T.bmp,1,n,614
breaking,10,22,right,female,friend,Stranger,T.bmp,1,n,715
breaking,10,22,right,female,stranger,Friend,C.bmp,1,m,647
breaking,10,22,right,female,self,Stranger,T.bmp,1,m,1091
breaking,10,22,right,female,self,Friend,C.bmp,1,n,960
breaking,10,22,right,female,stranger,Self,S.bmp,1,n,932
breaking,10,22,right,female,self,Self,S.bmp,1,n,984
breaking,10,22,right,female,stranger,Friend,C.bmp,1,m,628
breaking,10,22,right,female,friend,Self,S.bmp,1,m,760
breaking,10,22,right,female,stranger,Stranger,T.bmp,1,n,596
breaking,10,22,right,female,self,Self,S.bmp,1,n,1057
breaking,10,22,right,female,friend,Friend,C.bmp,0,,0
breaking,10,22,right,female,self,Stranger,T.bmp,1,m,857
breaking,10,22,right,female,friend,Self,S.bmp,1,m,861
breaking,10,22,right,female,friend,Stranger,T.bmp,1,n,752
breaking,10,22,right,female,friend,Self,S.bmp,1,m,652
breaking,10,22,right,female,self,Stranger,T.bmp,1,m,513
breaking,10,22,right,female,friend,Friend,C.bmp,0,,0
breaking,10,22,right,female,self,Self,S.bmp,1,n,753
breaking,10,22,right,female,friend,Self,S.bmp,0,n,557
breaking,10,22,right,female,self,Self,S.bmp,1,n,609
breaking,10,22,right,female,self,Stranger,T.bmp,1,m,581
breaking,10,22,right,female,stranger,Friend,C.bmp,0,n,906
breaking,10,22,right,female,friend,Self,S.bmp,1,m,902
breaking,10,22,right,female,friend,Self,S.bmp,0,,0
breaking,10,22,right,female,stranger,Friend,C.bmp,1,m,702
breaking,10,22,right,female,self,Friend,C.bmp,1,n,562
breaking,10,22,right,female,self,Stranger,T.bmp,0,n,878
breaking,10,22,right,female,friend,Stranger,T.bmp,1,n,595
breaking,10,22,right,female,self,Friend,C.bmp,1,n,535
breaking,10,22,right,female,stranger,Stranger,T.bmp,1,n,619
breaking,10,22,right,female,stranger,Self,S.bmp,1,n,639
breaking,10,22,right,female,stranger,Self,S.bmp,1,n,515
breaking,10,22,right,female,stranger,Stranger,T.bmp,1,n,519
breaking,10,22,right,female,friend,Friend,C.bmp,1,n,532
breaking,10,22,right,female,friend,Stranger,T.bmp,1,n,536
breaking,10,22,right,female,friend,Stranger,T.bmp,1,n,524
breaking,10,22,right,female,self,Self,S.bmp,1,n,479
breaking,10,22,right,female,stranger,Self,S.bmp,1,n,523
breaking,10,22,right,female,stranger,Friend,C.bmp,1,m,607
breaking,10,22,right,female,friend,Friend,C.bmp,1,n,516
breaking,10,22,right,female,self,Friend,C.bmp,1,n,560
breaking,10,22,right,female,stranger,Stranger,T.bmp,1,n,604
breaking,10,22,right,female,self,Self,S.bmp,1,n,496
breaking,10,22,right,female,friend,Self,S.bmp,1,m,716
breaking,10,22,right,female,self,Stranger,T.bmp,1,m,808
breaking,10,22,right,female,stranger,Friend,C.bmp,1,m,547
breaking,10,22,right,female,self,Friend,C.bmp,1,n,575
breaking,10,22,right,female,stranger,Self,S.bmp,1,n,667
breaking,10,22,right,female,self,Stranger,T.bmp,1,m,583
breaking,10,22,right,female,self,Stranger,T.bmp,1,m,459
breaking,10,22,right,female,self,Self,S.bmp,1,n,928
breaking,10,22,right,female,stranger,Stranger,T.bmp,1,n,940
breaking,10,22,right,female,stranger,Friend,C.bmp,1,m,920
breaking,10,22,right,female,stranger,Friend,C.bmp,1,m,556
breaking,10,22,right,female,friend,Friend,C.bmp,1,n,576
breaking,10,22,right,female,friend,Stranger,T.bmp,1,n,644
breaking,10,22,right,female,friend,Friend,C.bmp,1,n,617
breaking,10,22,right,female,stranger,Self,S.bmp,0,m,1013
breaking,10,22,right,female,stranger,Stranger,T.bmp,1,n,849
breaking,10,22,right,female,friend,Stranger,T.bmp,0,,0
breaking,10,22,right,female,self,Friend,C.bmp,1,n,1024
breaking,10,22,right,female,friend,Friend,C.bmp,1,n,740
breaking,10,22,right,female,stranger,Stranger,T.bmp,1,n,561
breaking,10,22,right,female,friend,Self,S.bmp,1,m,557
breaking,10,22,right,female,friend,Stranger,T.bmp,1,n,681
breaking,10,22,right,female,friend,Self,S.bmp,0,,0
breaking,10,22,right,female,self,Self,S.bmp,1,n,505
breaking,10,22,right,female,stranger,Self,S.bmp,1,n,573
breaking,10,22,right,female,self,Friend,C.bmp,1,n,946
breaking,10,22,right,female,self,Self,S.bmp,1,n,777
breaking,10,22,right,female,friend,Self,S.bmp,1,m,509
breaking,10,22,right,female,stranger,Stranger,T.bmp,1,n,729
breaking,10,22,right,female,self,Friend,C.bmp,1,n,869
breaking,10,22,right,female,friend,Friend,C.bmp,1,n,641
breaking,10,22,right,female,self,Self,S.bmp,1,n,517
breaking,10,22,right,female,self,Stranger,T.bmp,1,m,770
breaking,10,22,right,female,friend,Stranger,T.bmp,1,n,566
breaking,10,22,right,female,self,Self,S.bmp,1,n,538
breaking,10,22,right,female,friend,Friend,C.bmp,1,n,597
breaking,10,22,right,female,friend,Self,S.bmp,1,m,929
breaking,10,22,right,female,stranger,Self,S.bmp,1,n,501
breaking,10,22,right,female,friend,Self,S.bmp,1,m,570
breaking,10,22,right,female,stranger,Self,S.bmp,1,n,566
breaking,10,22,right,female,stranger,Friend,C.bmp,1,m,1066
breaking,10,22,right,female,stranger,Self,S.bmp,1,n,678
breaking,10,22,right,female,stranger,Friend,C.bmp,0,,0
breaking,10,22,right,female,friend,Stranger,T.bmp,1,n,822
breaking,10,22,right,female,friend,Stranger,T.bmp,1,n,667
breaking,10,22,right,female,stranger,Stranger,T.bmp,1,n,615
breaking,10,22,right,female,self,Stranger,T.bmp,0,,0
breaking,10,22,right,female,stranger,Friend,C.bmp,1,m,735
breaking,10,22,right,female,stranger,Stranger,T.bmp,1,n,811
breaking,10,22,right,female,self,Friend,C.bmp,1,n,927
breaking,10,22,right,female,self,Stranger,T.bmp,1,m,708
breaking,10,22,right,female,self,Friend,C.bmp,1,n,592
breaking,10,22,right,female,friend,Friend,C.bmp,1,n,756
breaking,10,22,right,female,stranger,Friend,C.bmp,1,m,832
breaking,10,22,right,female,stranger,Self,S.bmp,1,n,684
breaking,10,22,right,female,friend,Self,S.bmp,1,m,494
breaking,10,22,right,female,stranger,Stranger,T.bmp,1,n,643
breaking,10,22,right,female,self,Stranger,T.bmp,0,n,606
breaking,10,22,right,female,stranger,Self,S.bmp,0,,0
breaking,10,22,right,female,stranger,Stranger,T.bmp,1,n,598
breaking,10,22,right,female,stranger,Self,S.bmp,1,n,506
breaking,10,22,right,female,self,Self,S.bmp,1,n,462
breaking,10,22,right,female,stranger,Stranger,T.bmp,1,n,603
breaking,10,22,right,female,self,Friend,C.bmp,1,n,903
breaking,10,22,right,female,self,Stranger,T.bmp,1,m,467
breaking,10,22,right,female,stranger,Friend,C.bmp,1,m,767
breaking,10,22,right,female,self,Friend,C.bmp,1,n,715
breaking,10,22,right,female,friend,Stranger,T.bmp,1,n,656
breaking,10,22,right,female,friend,Stranger,T.bmp,1,n,812
breaking,10,22,right,female,friend,Self,S.bmp,1,m,520
breaking,10,22,right,female,friend,Friend,C.bmp,1,n,572
breaking,10,22,right,female,self,Self,S.bmp,1,n,616
breaking,10,22,right,female,self,Self,S.bmp,1,n,532
breaking,10,22,right,female,self,Stranger,T.bmp,0,n,569
breaking,10,22,right,female,friend,Friend,C.bmp,1,n,573
breaking,10,22,right,female,friend,Stranger,T.bmp,1,n,553
breaking,10,22,right,female,stranger,Friend,C.bmp,0,n,597
breaking,10,22,right,female,friend,Self,S.bmp,1,m,545
breaking,10,22,right,female,friend,Friend,C.bmp,1,n,741
breaking,10,22,right,female,self,Friend,C.bmp,0,,0
breaking,10,22,right,female,self,Stranger,T.bmp,1,m,710
breaking,10,22,right,female,friend,Self,S.bmp,1,m,481
breaking,10,22,right,female,friend,Stranger,T.bmp,1,n,949
breaking,10,22,right,female,friend,Stranger,T.bmp,0,,0
breaking,10,22,right,female,self,Friend,C.bmp,1,n,565
breaking,10,22,right,female,friend,Self,S.bmp,1,m,522
breaking,10,22,right,female,stranger,Stranger,T.bmp,1,n,534
breaking,10,22,right,female,friend,Friend,C.bmp,0,,0
breaking,10,22,right,female,self,Self,S.bmp,1,n,582
breaking,10,22,right,female,friend,Self,S.bmp,1,m,490
breaking,10,22,right,female,self,Self,S.bmp,1,n,582
breaking,10,22,right,female,self,Friend,C.bmp,1,n,587
breaking,10,22,right,female,stranger,Friend,C.bmp,0,n,815
breaking,10,22,right,female,friend,Stranger,T.bmp,1,n,747
breaking,10,22,right,female,self,Friend,C.bmp,1,n,919
breaking,10,22,right,female,stranger,Self,S.bmp,1,n,763
breaking,10,22,right,female,friend,Friend,C.bmp,1,n,607
breaking,10,22,right,female,self,Stranger,T.bmp,0,n,1020
breaking,10,22,right,female,stranger,Stranger,T.bmp,1,n,504
breaking,10,22,right,female,stranger,Self,S.bmp,1,n,524
breaking,10,22,right,female,self,Stranger,T.bmp,1,m,624
breaking,10,22,right,female,stranger,Stranger,T.bmp,1,n,660
breaking,10,22,right,female,stranger,Self,S.bmp,1,n,888
breaking,10,22,right,female,stranger,Friend,C.bmp,0,n,645
breaking,10,22,right,female,self,Self,S.bmp,1,n,800
breaking,10,22,right,female,stranger,Friend,C.bmp,1,m,732
breaking,10,22,right,female,friend,Friend,C.bmp,1,n,744
breaking,10,22,right,female,friend,Self,S.bmp,1,m,927
breaking,10,22,right,female,self,Friend,C.bmp,1,n,851
breaking,10,22,right,female,stranger,Stranger,T.bmp,1,n,575
breaking,10,22,right,female,stranger,Self,S.bmp,1,n,844
breaking,10,22,right,female,self,Self,S.bmp,1,n,712
breaking,10,22,right,female,friend,Friend,C.bmp,1,n,788
breaking,10,22,right,female,friend,Stranger,T.bmp,1,n,744
breaking,10,22,right,female,self,Stranger,T.bmp,1,m,972
breaking,10,22,right,female,friend,Self,S.bmp,1,m,624
breaking,10,22,right,female,stranger,Stranger,T.bmp,1,n,989
breaking,10,22,right,female,self,Self,S.bmp,1,n,569
breaking,10,22,right,female,stranger,Self,S.bmp,1,n,573
breaking,10,22,right,female,self,Friend,C.bmp,1,n,873
breaking,10,22,right,female,friend,Stranger,T.bmp,1,n,685
breaking,10,22,right,female,friend,Friend,C.bmp,1,n,585
breaking,10,22,right,female,self,Self,S.bmp,1,n,573
breaking,10,22,right,female,friend,Self,S.bmp,1,m,585
breaking,10,22,right,female,friend,Friend,C.bmp,1,n,725
breaking,10,22,right,female,stranger,Self,S.bmp,1,n,625
breaking,10,22,right,female,stranger,Friend,C.bmp,1,m,733
breaking,10,22,right,female,self,Stranger,T.bmp,0,n,706
breaking,10,22,right,female,stranger,Stranger,T.bmp,1,n,582
breaking,10,22,right,female,self,Friend,C.bmp,1,n,778
breaking,10,22,right,female,friend,Stranger,T.bmp,1,n,590
breaking,10,22,right,female,self,Stranger,T.bmp,1,m,946
breaking,10,22,right,female,stranger,Friend,C.bmp,1,m,798
breaking,10,22,right,female,stranger,Friend,C.bmp,1,m,1027
breaking,10,22,right,female,friend,Friend,C.bmp,1,n,607
breaking,10,22,right,female,stranger,Stranger,T.bmp,1,n,843
breaking,10,22,right,female,friend,Stranger,T.bmp,1,n,743
breaking,10,22,right,female,self,Stranger,T.bmp,1,m,603
breaking,10,22,right,female,self,Friend,C.bmp,1,n,695
breaking,10,22,right,female,self,Stranger,T.bmp,0,n,820
breaking,10,22,right,female,stranger,Stranger,T.bmp,1,n,584
breaking,10,22,right,female,stranger,Self,S.bmp,1,n,636
breaking,10,22,right,female,self,Self,S.bmp,1,n,592
breaking,10,22,right,female,friend,Self,S.bmp,1,m,844
breaking,10,22,right,female,friend,Friend,C.bmp,1,n,704
breaking,10,22,right,female,stranger,Self,S.bmp,1,n,925
breaking,10,22,right,female,self,Friend,C.bmp,1,n,584
breaking,10,22,right,female,friend,Stranger,T.bmp,1,n,932
breaking,10,22,right,female,stranger,Stranger,T.bmp,1,n,512
breaking,10,22,right,female,stranger,Self,S.bmp,1,n,540
breaking,10,22,right,female,stranger,Friend,C.bmp,0,n,752
breaking,10,22,right,female,friend,Stranger,T.bmp,1,n,613
breaking,10,22,right,female,friend,Self,S.bmp,1,m,593
breaking,10,22,right,female,friend,Friend,C.bmp,1,n,669
breaking,10,22,right,female,self,Self,S.bmp,1,n,617
breaking,10,22,right,female,stranger,Friend,C.bmp,1,m,661
breaking,10,22,right,female,stranger,Friend,C.bmp,1,m,505
breaking,10,22,right,female,self,Self,S.bmp,1,n,854
breaking,10,22,right,female,friend,Self,S.bmp,1,m,610
breaking,10,22,right,female,self,Friend,C.bmp,1,n,830
breaking,10,22,right,female,self,Stranger,T.bmp,1,m,562
breaking,10,22,right,female,stranger,Friend,C.bmp,1,m,750
breaking,10,22,right,female,self,Friend,C.bmp,0,m,610
breaking,10,22,right,female,friend,Self,S.bmp,1,m,567
breaking,10,22,right,female,self,Stranger,T.bmp,0,n,595
breaking,10,22,right,female,stranger,Stranger,T.bmp,1,n,671
breaking,10,22,right,female,stranger,Self,S.bmp,1,n,899
breaking,10,22,right,female,friend,Stranger,T.bmp,1,n,583
breaking,10,22,right,female,self,Friend,C.bmp,1,n,707
breaking,10,22,right,female,self,Self,S.bmp,1,n,943
breaking,10,22,right,female,self,Self,S.bmp,1,n,507
breaking,10,22,right,female,friend,Friend,C.bmp,1,n,791
breaking,10,22,right,female,self,Stranger,T.bmp,0,n,779
breaking,10,22,right,female,self,Friend,C.bmp,1,n,423
breaking,10,22,right,female,stranger,Self,S.bmp,1,n,579
breaking,10,22,right,female,friend,Friend,C.bmp,1,n,832
breaking,10,22,right,female,self,Stranger,T.bmp,0,n,804
breaking,10,22,right,female,stranger,Stranger,T.bmp,1,n,440
breaking,10,22,right,female,stranger,Friend,C.bmp,0,n,660
breaking,10,22,right,female,friend,Stranger,T.bmp,1,n,688
breaking,10,22,right,female,friend,Self,S.bmp,1,m,948
breaking,10,22,right,female,friend,Friend,C.bmp,1,n,961
breaking,10,22,right,female,friend,Self,S.bmp,0,,0
breaking,10,22,right,female,stranger,Self,S.bmp,1,n,601
breaking,10,22,right,female,stranger,Stranger,T.bmp,1,n,1029
breaking,10,22,right,female,self,Self,S.bmp,1,n,641
breaking,10,22,right,female,stranger,Friend,C.bmp,1,m,837
breaking,10,22,right,female,friend,Stranger,T.bmp,1,n,626
breaking,10,22,right,female,stranger,Friend,C.bmp,1,m,712
breaking,10,22,right,female,stranger,Self,S.bmp,1,n,876
breaking,10,22,right,female,self,Stranger,T.bmp,1,m,736
breaking,10,22,right,female,friend,Friend,C.bmp,1,n,684
breaking,10,22,right,female,self,Stranger,T.bmp,1,m,520
breaking,10,22,right,female,stranger,Self,S.bmp,1,n,533
breaking,10,22,right,female,friend,Friend,C.bmp,1,n,761
breaking,10,22,right,female,friend,Stranger,T.bmp,1,n,565
breaking,10,22,right,female,self,Friend,C.bmp,1,n,553
breaking,10,22,right,female,self,Self,S.bmp,1,n,557
breaking,10,22,right,female,stranger,Stranger,T.bmp,1,n,593
breaking,10,22,right,female,self,Stranger,T.bmp,1,m,678
breaking,10,22,right,female,friend,Self,S.bmp,1,m,578
breaking,10,22,right,female,friend,Stranger,T.bmp,1,n,574
breaking,10,22,right,female,stranger,Stranger,T.bmp,1,n,650
breaking,10,22,right,female,stranger,Friend,C.bmp,1,m,550
breaking,10,22,right,female,self,Self,S.bmp,1,n,610
breaking,10,22,right,female,self,Friend,C.bmp,1,n,599
breaking,10,22,right,female,self,Friend,C.bmp,1,n,499
breaking,10,22,right,female,friend,Self,S.bmp,1,m,583
breaking,10,22,right,female,friend,Friend,C.bmp,1,n,611
breaking,10,22,right,female,friend,Stranger,T.bmp,1,n,543
breaking,10,22,right,female,self,Self,S.bmp,1,n,514
breaking,10,22,right,female,stranger,Stranger,T.bmp,1,n,535
breaking,10,22,right,female,friend,Self,S.bmp,1,m,491
breaking,10,22,right,female,stranger,Friend,C.bmp,1,m,511
breaking,10,22,right,female,stranger,Self,S.bmp,1,n,595
breaking,10,22,right,female,stranger,Self,S.bmp,1,n,599
breaking,10,22,right,female,friend,Friend,C.bmp,1,n,627
breaking,10,22,right,female,self,Stranger,T.bmp,1,m,456
breaking,10,22,right,female,friend,Friend,C.bmp,1,n,532
breaking,10,22,right,female,self,Friend,C.bmp,1,n,464
breaking,10,22,right,female,stranger,Friend,C.bmp,1,m,484
breaking,10,22,right,female,self,Stranger,T.bmp,1,m,432
breaking,10,22,right,female,friend,Self,S.bmp,1,m,420
breaking,10,22,right,female,friend,Self,S.bmp,1,m,609
breaking,10,22,right,female,friend,Self,S.bmp,1,m,397
breaking,10,22,right,female,self,Self,S.bmp,1,n,473
breaking,10,22,right,female,friend,Stranger,T.bmp,0,m,757
breaking,10,22,right,female,friend,Friend,C.bmp,1,n,521
breaking,10,22,right,female,stranger,Stranger,T.bmp,1,n,637
breaking,10,22,right,female,friend,Stranger,T.bmp,1,n,770
breaking,10,22,right,female,stranger,Stranger,T.bmp,1,n,462
breaking,10,22,right,female,self,Self,S.bmp,1,n,498
breaking,10,22,right,female,self,Friend,C.bmp,1,n,470
breaking,10,22,right,female,self,Self,S.bmp,1,n,450
breaking,10,22,right,female,stranger,Self,S.bmp,1,n,613
breaking,10,22,right,female,stranger,Self,S.bmp,1,n,442
breaking,10,22,right,female,stranger,Stranger,T.bmp,1,n,414
breaking,10,22,right,female,self,Stranger,T.bmp,0,n,658
breaking,10,22,right,female,stranger,Friend,C.bmp,0,n,534
breaking,10,22,right,female,friend,Stranger,T.bmp,1,n,562
breaking,10,22,right,female,self,Friend,C.bmp,1,n,422
breaking,10,22,right,female,stranger,Friend,C.bmp,0,n,579
breaking,10,22,right,female,stranger,Stranger,T.bmp,1,n,471
breaking,10,22,right,female,self,Friend,C.bmp,1,n,483
breaking,10,22,right,female,self,Self,S.bmp,1,n,375
breaking,10,22,right,female,friend,Friend,C.bmp,1,n,467
breaking,10,22,right,female,stranger,Stranger,T.bmp,1,n,759
breaking,10,22,right,female,self,Self,S.bmp,1,n,404
breaking,10,22,right,female,friend,Self,S.bmp,1,m,440
breaking,10,22,right,female,stranger,Self,S.bmp,1,n,396
breaking,10,22,right,female,friend,Stranger,T.bmp,1,n,472
breaking,10,22,right,female,stranger,Friend,C.bmp,1,m,708
breaking,10,22,right,female,friend,Friend,C.bmp,1,n,600
breaking,10,22,right,female,friend,Self,S.bmp,1,m,525
breaking,10,22,right,female,friend,Self,S.bmp,1,m,473
breaking,10,22,right,female,self,Self,S.bmp,1,n,469
breaking,10,22,right,female,self,Stranger,T.bmp,1,m,409
breaking,10,22,right,female,self,Friend,C.bmp,1,n,532
breaking,10,22,right,female,stranger,Friend,C.bmp,1,m,649
breaking,10,22,right,female,self,Friend,C.bmp,1,n,517
breaking,10,22,right,female,stranger,Self,S.bmp,1,n,489
breaking,10,22,right,female,stranger,Friend,C.bmp,0,n,493
breaking,10,22,right,female,stranger,Self,S.bmp,1,n,961
breaking,10,22,right,female,friend,Stranger,T.bmp,1,n,533
breaking,10,22,right,female,self,Stranger,T.bmp,1,m,714
breaking,10,22,right,female,friend,Friend,C.bmp,1,n,782
breaking,10,22,right,female,stranger,Stranger,T.bmp,1,n,506
breaking,10,22,right,female,self,Stranger,T.bmp,1,m,454
breaking,10,22,right,female,friend,Stranger,T.bmp,1,n,434
breaking,10,22,right,female,self,Friend,C.bmp,1,n,759
breaking,10,22,right,female,self,Friend,C.bmp,1,n,395
breaking,10,22,right,female,stranger,Friend,C.bmp,1,m,488
breaking,10,22,right,female,self,Self,S.bmp,1,n,436
breaking,10,22,right,female,friend,Self,S.bmp,1,m,384
breaking,10,22,right,female,self,Stranger,T.bmp,1,m,548
breaking,10,22,right,female,friend,Stranger,T.bmp,1,n,431
breaking,10,22,right,female,friend,Self,S.bmp,1,m,403
breaking,10,22,right,female,self,Self,S.bmp,1,n,424
breaking,10,22,right,female,stranger,Friend,C.bmp,1,m,412
breaking,10,22,right,female,friend,Friend,C.bmp,1,n,432
breaking,10,22,right,female,stranger,Stranger,T.bmp,1,n,588
breaking,10,22,right,female,friend,Self,S.bmp,1,m,408
breaking,10,22,right,female,stranger,Self,S.bmp,1,n,532
breaking,10,22,right,female,friend,Stranger,T.bmp,1,n,849
breaking,10,22,right,female,stranger,Self,S.bmp,1,n,453
breaking,10,22,right,female,self,Stranger,T.bmp,1,m,689
breaking,10,22,right,female,stranger,Self,S.bmp,1,n,437
breaking,10,22,right,female,stranger,Stranger,T.bmp,1,n,489
breaking,10,22,right,female,friend,Stranger,T.bmp,1,n,581
breaking,10,22,right,female,stranger,Stranger,T.bmp,1,n,466
breaking,10,22,right,female,stranger,Friend,C.bmp,1,m,526
breaking,10,22,right,female,self,Friend,C.bmp,1,n,442
breaking,10,22,right,female,friend,Friend,C.bmp,1,n,438
breaking,10,22,right,female,self,Stranger,T.bmp,1,m,618
breaking,10,22,right,female,friend,Friend,C.bmp,1,n,510
breaking,10,22,right,female,self,Self,S.bmp,1,n,595
breaking,10,22,right,female,stranger,Self,S.bmp,1,n,519
breaking,10,22,right,female,self,Self,S.bmp,1,n,427
breaking,10,22,right,female,stranger,Self,S.bmp,1,n,422
breaking,10,22,right,female,stranger,Stranger,T.bmp,1,n,946
breaking,10,22,right,female,friend,Friend,C.bmp,1,n,486
breaking,10,22,right,female,self,Stranger,T.bmp,1,m,787
breaking,10,22,right,female,self,Friend,C.bmp,1,n,607
breaking,10,22,right,female,friend,Self,S.bmp,1,m,411
breaking,10,22,right,female,stranger,Friend,C.bmp,0,n,487
breaking,10,22,right,female,self,Friend,C.bmp,1,n,419
breaking,10,22,right,female,friend,Stranger,T.bmp,1,n,503
breaking,10,22,right,female,friend,Self,S.bmp,1,m,428
breaking,10,22,right,female,friend,Stranger,T.bmp,1,n,464
breaking,10,22,right,female,self,Stranger,T.bmp,1,m,516
breaking,10,22,right,female,self,Stranger,T.bmp,1,m,448
breaking,10,22,right,female,friend,Self,S.bmp,1,m,572
breaking,10,22,right,female,self,Self,S.bmp,1,n,472
breaking,10,22,right,female,friend,Friend,C.bmp,1,n,589
breaking,10,22,right,female,stranger,Stranger,T.bmp,1,n,521
breaking,10,22,right,female,self,Friend,C.bmp,1,n,397
breaking,10,22,right,female,stranger,Friend,C.bmp,1,m,425
breaking,10,22,right,female,self,Self,S.bmp,1,n,445
breaking,10,22,right,female,stranger,Self,S.bmp,1,n,458
breaking,10,22,right,female,stranger,Stranger,T.bmp,1,n,438
breaking,10,22,right,female,friend,Friend,C.bmp,1,n,442
breaking,10,22,right,female,stranger,Friend,C.bmp,1,m,485
breaking,10,22,right,female,friend,Stranger,T.bmp,1,n,609
breaking,10,22,right,female,friend,Stranger,T.bmp,1,n,413
breaking,10,22,right,female,self,Stranger,T.bmp,1,m,474
breaking,10,22,right,female,stranger,Stranger,T.bmp,1,n,406
breaking,10,22,right,female,friend,Self,S.bmp,1,m,378
breaking,10,22,right,female,stranger,Friend,C.bmp,1,m,454
breaking,10,22,right,female,self,Friend,C.bmp,1,n,418
breaking,10,22,right,female,friend,Stranger,T.bmp,1,n,390
breaking,10,22,right,female,self,Stranger,T.bmp,1,m,387
breaking,10,22,right,female,friend,Self,S.bmp,1,m,415
breaking,10,22,right,female,self,Self,S.bmp,1,n,403
breaking,10,22,right,female,friend,Self,S.bmp,1,m,487
breaking,10,22,right,female,stranger,Self,S.bmp,1,n,395
breaking,10,22,right,female,stranger,Stranger,T.bmp,1,n,615
breaking,10,22,right,female,stranger,Friend,C.bmp,1,m,436
breaking,10,22,right,female,stranger,Stranger,T.bmp,1,n,512
breaking,10,22,right,female,friend,Friend,C.bmp,1,n,410
breaking,10,22,right,female,stranger,Self,S.bmp,1,n,478
breaking,10,22,right,female,self,Stranger,T.bmp,1,m,682
breaking,10,22,right,female,friend,Friend,C.bmp,1,n,462
breaking,10,22,right,female,friend,Friend,C.bmp,1,n,443
breaking,10,22,right,female,stranger,Self,S.bmp,1,n,647
breaking,10,22,right,female,self,Self,S.bmp,1,n,658
breaking,10,22,right,female,self,Friend,C.bmp,1,n,566
breaking,10,22,right,female,self,Self,S.bmp,1,n,434
breaking,10,22,right,female,self,Friend,C.bmp,1,n,438
breaking,10,22,right,female,stranger,Friend,C.bmp,0,n,515
breaking,10,22,right,female,friend,Stranger,T.bmp,1,n,527
breaking,10,22,right,female,stranger,Friend,C.bmp,1,m,670
breaking,10,22,right,female,friend,Self,S.bmp,1,m,810
breaking,10,22,right,female,stranger,Stranger,T.bmp,1,n,566
breaking,10,22,right,female,friend,Self,S.bmp,1,m,394
breaking,10,22,right,female,stranger,Friend,C.bmp,1,m,438
breaking,10,22,right,female,friend,Friend,C.bmp,1,n,491
breaking,10,22,right,female,friend,Self,S.bmp,1,m,799
breaking,10,22,right,female,stranger,Friend,C.bmp,1,m,555
breaking,10,22,right,female,stranger,Self,S.bmp,1,n,519
breaking,10,22,right,female,friend,Friend,C.bmp,1,n,803
breaking,10,22,right,female,self,Friend,C.bmp,1,n,479
breaking,10,22,right,female,stranger,Stranger,T.bmp,1,n,516
breaking,10,22,right,female,self,Self,S.bmp,1,n,520
breaking,10,22,right,female,stranger,Self,S.bmp,1,n,451
breaking,10,22,right,female,self,Stranger,T.bmp,1,m,599
breaking,10,22,right,female,self,Self,S.bmp,1,n,459
breaking,10,22,right,female,self,Stranger,T.bmp,1,m,647
breaking,10,22,right,female,stranger,Stranger,T.bmp,1,n,436
breaking,10,22,right,female,stranger,Self,S.bmp,1,n,480
breaking,10,22,right,female,friend,Stranger,T.bmp,1,n,452
breaking,10,22,right,female,self,Friend,C.bmp,1,n,608
breaking,10,22,right,female,self,Self,S.bmp,1,n,428
breaking,10,22,right,female,self,Friend,C.bmp,1,n,496
breaking,10,22,right,female,friend,Stranger,T.bmp,1,n,629
breaking,10,22,right,female,self,Stranger,T.bmp,1,m,417
breaking,10,22,right,female,friend,Stranger,T.bmp,1,n,437
breaking,10,22,right,female,friend,Friend,C.bmp,1,n,577
breaking,10,22,right,female,friend,Friend,C.bmp,1,n,461
breaking,10,22,right,female,stranger,Self,S.bmp,1,n,434
breaking,10,22,right,female,stranger,Self,S.bmp,1,n,422
breaking,10,22,right,female,self,Self,S.bmp,1,n,530
breaking,10,22,right,female,self,Friend,C.bmp,1,n,422
breaking,10,22,right,female,stranger,Stranger,T.bmp,1,n,410
breaking,10,22,right,female,friend,Friend,C.bmp,1,n,486
breaking,10,22,right,female,self,Self,S.bmp,1,n,611
breaking,10,22,right,female,friend,Stranger,T.bmp,1,n,479
breaking,10,22,right,female,self,Friend,C.bmp,1,n,418
breaking,10,22,right,female,friend,Self,S.bmp,1,m,446
breaking,10,22,right,female,self,Friend,C.bmp,1,n,410
breaking,10,22,right,female,self,Self,S.bmp,1,n,486
breaking,10,22,right,female,friend,Self,S.bmp,1,m,403
breaking,10,22,right,female,self,Stranger,T.bmp,1,m,455
breaking,10,22,right,female,stranger,Friend,C.bmp,1,m,539
breaking,10,22,right,female,self,Stranger,T.bmp,1,m,439
breaking,10,22,right,female,friend,Self,S.bmp,1,m,571
breaking,10,22,right,female,stranger,Stranger,T.bmp,1,n,463
breaking,10,22,right,female,stranger,Stranger,T.bmp,1,n,572
breaking,10,22,right,female,stranger,Self,S.bmp,1,n,720
breaking,10,22,right,female,friend,Stranger,T.bmp,1,n,524
breaking,10,22,right,female,friend,Stranger,T.bmp,1,n,624
breaking,10,22,right,female,friend,Friend,C.bmp,1,n,468
breaking,10,22,right,female,stranger,Friend,C.bmp,0,n,640
breaking,10,22,right,female,stranger,Friend,C.bmp,1,m,477
breaking,10,22,right,female,self,Stranger,T.bmp,1,m,609
breaking,10,22,right,female,self,Self,S.bmp,1,n,461
breaking,10,22,right,female,stranger,Self,S.bmp,1,n,505
breaking,10,22,right,female,friend,Stranger,T.bmp,1,n,429
breaking,10,22,right,female,friend,Self,S.bmp,1,m,489
breaking,10,22,right,female,friend,Self,S.bmp,1,m,454
breaking,10,22,right,female,friend,Friend,C.bmp,1,n,401
breaking,10,22,right,female,self,Stranger,T.bmp,0,n,469
breaking,10,22,right,female,friend,Self,S.bmp,1,m,409
breaking,10,22,right,female,stranger,Friend,C.bmp,1,m,621
breaking,10,22,right,female,stranger,Friend,C.bmp,1,m,369
breaking,10,22,right,female,self,Stranger,T.bmp,1,m,598
breaking,10,22,right,female,self,Stranger,T.bmp,1,m,394
breaking,10,22,right,female,stranger,Self,S.bmp,1,n,494
breaking,10,22,right,female,self,Self,S.bmp,1,n,474
breaking,10,22,right,female,stranger,Self,S.bmp,1,n,430
breaking,10,22,right,female,friend,Friend,C.bmp,1,n,450
breaking,10,22,right,female,friend,Stranger,T.bmp,1,n,495
breaking,10,22,right,female,stranger,Stranger,T.bmp,1,n,419
breaking,10,22,right,female,self,Friend,C.bmp,1,n,455
breaking,10,22,right,female,friend,Stranger,T.bmp,1,n,435
breaking,10,22,right,female,stranger,Stranger,T.bmp,1,n,407
breaking,10,22,right,female,self,Self,S.bmp,1,n,515
breaking,10,22,right,female,stranger,Stranger,T.bmp,1,n,560
breaking,10,22,right,female,stranger,Friend,C.bmp,0,n,420
breaking,10,22,right,female,self,Friend,C.bmp,1,n,392
breaking,10,22,right,female,self,Friend,C.bmp,1,n,396
breaking,10,22,right,female,friend,Friend,C.bmp,1,n,432
breaking,10,22,right,female,friend,Friend,C.bmp,1,n,612
breaking,10,22,right,female,friend,Friend,C.bmp,1,n,439
breaking,10,22,right,female,stranger,Friend,C.bmp,0,n,251
breaking,10,22,right,female,self,Self,S.bmp,1,n,671
breaking,10,22,right,female,stranger,Stranger,T.bmp,1,n,563
breaking,10,22,right,female,stranger,Self,S.bmp,1,n,463
breaking,10,22,right,female,stranger,Self,S.bmp,1,n,475
breaking,10,22,right,female,friend,Stranger,T.bmp,1,n,776
breaking,10,22,right,female,friend,Self,S.bmp,1,m,804
breaking,10,22,right,female,self,Stranger,T.bmp,1,m,752
breaking,10,22,right,female,self,Stranger,T.bmp,1,m,428
breaking,10,22,right,female,self,Stranger,T.bmp,1,m,368
breaking,10,22,right,female,stranger,Friend,C.bmp,1,m,812
breaking,10,22,right,female,stranger,Self,S.bmp,1,n,593
breaking,10,22,right,female,self,Friend,C.bmp,1,n,733
breaking,10,22,right,female,stranger,Friend,C.bmp,1,m,649
breaking,10,22,right,female,self,Friend,C.bmp,1,n,461
breaking,10,22,right,female,friend,Stranger,T.bmp,1,n,785
breaking,10,22,right,female,stranger,Stranger,T.bmp,1,n,717
breaking,10,22,right,female,friend,Stranger,T.bmp,1,n,498
breaking,10,22,right,female,friend,Self,S.bmp,1,m,461
breaking,10,22,right,female,self,Self,S.bmp,1,n,481
breaking,10,22,right,female,friend,Friend,C.bmp,1,n,837
breaking,10,22,right,female,self,Friend,C.bmp,1,n,569
breaking,10,22,right,female,friend,Self,S.bmp,1,m,933
breaking,10,22,right,female,stranger,Stranger,T.bmp,1,n,586
breaking,10,22,right,female,self,Self,S.bmp,1,n,446
breaking,10,22,right,female,friend,Self,S.bmp,1,m,498
breaking,10,22,right,female,friend,Friend,C.bmp,1,n,526
breaking,10,22,right,female,stranger,Self,S.bmp,1,n,578
breaking,10,22,right,female,friend,Stranger,T.bmp,1,n,548
breaking,10,22,right,female,self,Stranger,T.bmp,1,m,561
breaking,10,22,right,female,self,Self,S.bmp,1,n,533
breaking,10,22,right,female,stranger,Stranger,T.bmp,1,n,609
breaking,10,22,right,female,friend,Self,S.bmp,1,m,509
breaking,10,22,right,female,self,Self,S.bmp,1,n,601
breaking,10,22,right,female,stranger,Stranger,T.bmp,1,n,829
breaking,10,22,right,female,friend,Self,S.bmp,1,m,674
breaking,10,22,right,female,self,Stranger,T.bmp,1,m,646
breaking,10,22,right,female,stranger,Friend,C.bmp,1,m,642
breaking,10,22,right,female,friend,Stranger,T.bmp,1,n,894
breaking,10,22,right,female,self,Friend,C.bmp,1,n,754
breaking,10,22,right,female,friend,Stranger,T.bmp,1,n,974
breaking,10,22,right,female,friend,Friend,C.bmp,1,n,634
breaking,10,22,right,female,stranger,Self,S.bmp,1,n,590
breaking,10,22,right,female,self,Self,S.bmp,1,n,594
breaking,10,22,right,female,self,Friend,C.bmp,1,n,630
breaking,10,22,right,female,stranger,Stranger,T.bmp,1,n,450
breaking,10,22,right,female,stranger,Friend,C.bmp,1,m,630
breaking,10,22,right,female,self,Friend,C.bmp,1,n,499
breaking,10,22,right,female,stranger,Friend,C.bmp,1,m,767
breaking,10,22,right,female,friend,Friend,C.bmp,1,n,531
breaking,10,22,right,female,stranger,Self,S.bmp,1,n,583
breaking,10,22,right,female,self,Stranger,T.bmp,1,m,459
breaking,10,22,right,female,self,Self,S.bmp,1,n,551
breaking,10,22,right,female,stranger,Friend,C.bmp,1,m,580
breaking,10,22,right,female,self,Self,S.bmp,1,n,592
breaking,10,22,right,female,self,Friend,C.bmp,1,n,588
breaking,10,22,right,female,friend,Stranger,T.bmp,1,n,704
breaking,10,22,right,female,stranger,Stranger,T.bmp,1,n,548
breaking,10,22,right,female,self,Stranger,T.bmp,0,n,504
breaking,10,22,right,female,self,Stranger,T.bmp,1,m,517
breaking,10,22,right,female,friend,Self,S.bmp,1,m,457
breaking,10,22,right,female,self,Stranger,T.bmp,1,m,429
breaking,10,22,right,female,self,Self,S.bmp,1,n,617
breaking,10,22,right,female,stranger,Self,S.bmp,1,n,597
breaking,10,22,right,female,stranger,Self,S.bmp,1,n,601
breaking,10,22,right,female,self,Friend,C.bmp,1,n,525
breaking,10,22,right,female,stranger,Stranger,T.bmp,1,n,529
breaking,10,22,right,female,friend,Self,S.bmp,1,m,429
breaking,10,22,right,female,stranger,Self,S.bmp,1,n,593
breaking,10,22,right,female,friend,Stranger,T.bmp,1,n,661
breaking,10,22,right,female,stranger,Friend,C.bmp,1,m,634
breaking,10,22,right,female,stranger,Friend,C.bmp,1,m,502
breaking,10,22,right,female,friend,Self,S.bmp,1,m,666
breaking,10,22,right,female,stranger,Stranger,T.bmp,1,n,566
breaking,10,22,right,female,friend,Stranger,T.bmp,0,,0
breaking,10,22,right,female,friend,Friend,C.bmp,1,n,766
breaking,10,22,right,female,friend,Friend,C.bmp,1,n,587
breaking,10,22,right,female,friend,Friend,C.bmp,1,n,551
breaking,10,22,right,female,self,Friend,C.bmp,1,n,779
breaking,10,22,right,female,friend,Stranger,T.bmp,1,n,538
breaking,10,22,right,female,stranger,Self,S.bmp,1,n,486
breaking,10,22,right,female,stranger,Stranger,T.bmp,1,n,514
breaking,10,22,right,female,self,Self,S.bmp,1,n,502
breaking,10,22,right,female,stranger,Friend,C.bmp,1,m,618
breaking,10,22,right,female,friend,Self,S.bmp,1,m,486
breaking,10,22,right,female,friend,Friend,C.bmp,1,n,762
breaking,10,22,right,female,self,Friend,C.bmp,1,n,790
breaking,10,22,right,female,self,Stranger,T.bmp,1,m,466
breaking,10,22,right,female,self,Friend,C.bmp,1,n,662
breaking,10,22,right,female,self,Stranger,T.bmp,1,m,603
breaking,10,22,right,female,stranger,Self,S.bmp,1,n,679
breaking,10,22,right,female,friend,Stranger,T.bmp,1,n,635
breaking,10,22,right,female,stranger,Self,S.bmp,1,n,791
breaking,10,22,right,female,self,Self,S.bmp,1,n,827
breaking,10,22,right,female,stranger,Friend,C.bmp,1,m,1039
breaking,10,22,right,female,friend,Stranger,T.bmp,1,n,516
breaking,10,22,right,female,self,Self,S.bmp,1,n,544
breaking,10,22,right,female,stranger,Friend,C.bmp,0,n,612
breaking,10,22,right,female,friend,Friend,C.bmp,1,n,464
breaking,10,22,right,female,self,Friend,C.bmp,1,n,612
breaking,10,22,right,female,friend,Self,S.bmp,1,m,672
breaking,10,22,right,female,self,Stranger,T.bmp,1,m,533
breaking,10,22,right,female,friend,Friend,C.bmp,1,n,697
breaking,10,22,right,female,friend,Self,S.bmp,1,m,445
breaking,10,22,right,female,stranger,Stranger,T.bmp,1,n,809
breaking,10,22,right,female,stranger,Stranger,T.bmp,1,n,716
breaking,10,22,right,female,friend,Stranger,T.bmp,1,n,832
breaking,10,22,right,female,stranger,Self,S.bmp,1,n,573
breaking,10,22,right,female,stranger,Self,S.bmp,1,n,825
breaking,10,22,right,female,friend,Self,S.bmp,1,m,821
breaking,10,22,right,female,self,Stranger,T.bmp,1,m,497
breaking,10,22,right,female,stranger,Friend,C.bmp,1,m,653
breaking,10,22,right,female,self,Self,S.bmp,1,n,657
breaking,10,22,right,female,stranger,Stranger,T.bmp,1,n,926
breaking,10,22,right,female,self,Self,S.bmp,1,n,802
breaking,10,22,right,female,self,Self,S.bmp,1,n,590
breaking,10,22,right,female,self,Stranger,T.bmp,0,n,658
breaking,10,22,right,female,friend,Self,S.bmp,0,n,660
breaking,10,22,right,female,stranger,Friend,C.bmp,1,m,536
breaking,10,22,right,female,stranger,Self,S.bmp,1,n,637
breaking,10,22,right,female,self,Friend,C.bmp,1,n,689
breaking,10,22,right,female,self,Friend,C.bmp,1,n,741
breaking,10,22,right,female,friend,Friend,C.bmp,1,n,697
breaking,10,22,right,female,friend,Stranger,T.bmp,1,n,605
breaking,10,22,right,female,friend,Friend,C.bmp,1,n,538
breaking,10,22,right,female,stranger,Stranger,T.bmp,0,,0
breaking,10,22,right,female,self,Friend,C.bmp,1,n,506
breaking,10,22,right,female,friend,Friend,C.bmp,1,n,670
breaking,10,22,right,female,friend,Stranger,T.bmp,1,n,553
breaking,10,22,right,female,self,Stranger,T.bmp,1,m,741
breaking,10,22,right,female,stranger,Friend,C.bmp,1,m,458
breaking,10,22,right,female,friend,Self,S.bmp,1,m,374
breaking,10,22,right,female,stranger,Stranger,T.bmp,1,n,778
breaking,10,22,right,female,self,Self,S.bmp,1,n,494
breaking,10,22,right,female,stranger,Self,S.bmp,1,n,522
breaking,10,22,right,female,friend,Friend,C.bmp,1,n,622
breaking,10,22,right,female,self,Stranger,T.bmp,1,m,419
breaking,10,22,right,female,friend,Stranger,T.bmp,1,n,447
breaking,10,22,right,female,stranger,Friend,C.bmp,1,m,667
breaking,10,22,right,female,self,Friend,C.bmp,1,n,751
breaking,10,22,right,female,self,Friend,C.bmp,1,n,627
breaking,10,22,right,female,self,Self,S.bmp,1,n,479
breaking,10,22,right,female,stranger,Friend,C.bmp,1,m,724
breaking,10,22,right,female,self,Stranger,T.bmp,1,m,600
breaking,10,22,right,female,stranger,Friend,C.bmp,1,m,548
breaking,10,22,right,female,stranger,Self,S.bmp,1,n,536
breaking,10,22,right,female,friend,Self,S.bmp,1,m,548
breaking,10,22,right,female,friend,Self,S.bmp,1,m,528
breaking,10,22,right,female,friend,Friend,C.bmp,0,m,625
breaking,10,22,right,female,stranger,Stranger,T.bmp,1,n,581
breaking,10,22,right,female,stranger,Stranger,T.bmp,1,n,881
breaking,10,22,right,female,friend,Stranger,T.bmp,1,n,717
breaking,10,22,right,female,friend,Stranger,T.bmp,1,n,456
breaking,10,22,right,female,friend,Friend,C.bmp,1,n,524
breaking,10,22,right,female,stranger,Stranger,T.bmp,1,n,561
breaking,10,22,right,female,friend,Self,S.bmp,1,m,501
breaking,10,22,right,female,self,Friend,C.bmp,1,n,609
breaking,10,22,right,female,self,Self,S.bmp,1,n,573
breaking,10,22,right,female,stranger,Self,S.bmp,1,n,473
breaking,10,22,right,female,self,Stranger,T.bmp,1,m,877
breaking,11,21,right,female,stranger,Self,C.bmp,1,n,805
breaking,11,21,right,female,friend,Stranger,S.bmp,1,n,928
breaking,11,21,right,female,friend,Friend,T.bmp,0,m,597
breaking,11,21,right,female,self,Friend,T.bmp,1,n,897
breaking,11,21,right,female,friend,Self,C.bmp,1,m,869
breaking,11,21,right,female,stranger,Friend,T.bmp,0,n,561
breaking,11,21,right,female,stranger,Stranger,S.bmp,1,n,949
breaking,11,21,right,female,stranger,Friend,T.bmp,1,m,849
breaking,11,21,right,female,friend,Stranger,S.bmp,1,n,846
breaking,11,21,right,female,friend,Friend,T.bmp,0,,0
breaking,11,21,right,female,stranger,Friend,T.bmp,0,,0
breaking,11,21,right,female,friend,Stranger,S.bmp,1,n,762
breaking,11,21,right,female,self,Stranger,S.bmp,1,m,886
breaking,11,21,right,female,self,Friend,T.bmp,1,n,570
breaking,11,21,right,female,self,Stranger,S.bmp,1,m,535
breaking,11,21,right,female,friend,Friend,T.bmp,1,n,555
breaking,11,21,right,female,stranger,Self,C.bmp,0,m,623
breaking,11,21,right,female,stranger,Self,C.bmp,1,n,1091
breaking,11,21,right,female,friend,Self,C.bmp,1,m,663
breaking,11,21,right,female,self,Self,C.bmp,1,n,700
breaking,11,21,right,female,friend,Self,C.bmp,1,m,1088
breaking,11,21,right,female,stranger,Stranger,S.bmp,1,n,540
breaking,11,21,right,female,stranger,Stranger,S.bmp,1,n,680
breaking,11,21,right,female,self,Self,C.bmp,1,n,828
breaking,11,21,right,female,self,Stranger,S.bmp,1,m,647
breaking,11,21,right,female,self,Self,C.bmp,1,n,828
breaking,11,21,right,female,self,Friend,T.bmp,1,n,824
breaking,11,21,right,female,self,Self,C.bmp,0,,0
breaking,11,21,right,female,stranger,Friend,T.bmp,0,n,728
breaking,11,21,right,female,self,Friend,T.bmp,1,n,660
breaking,11,21,right,female,stranger,Stranger,S.bmp,1,n,952
breaking,11,21,right,female,self,Self,C.bmp,1,n,757
breaking,11,21,right,female,stranger,Self,C.bmp,1,n,657
breaking,11,21,right,female,friend,Friend,T.bmp,1,n,781
breaking,11,21,right,female,stranger,Self,C.bmp,1,n,737
breaking,11,21,right,female,self,Stranger,S.bmp,1,m,781
breaking,11,21,right,female,friend,Self,C.bmp,1,m,489
breaking,11,21,right,female,self,Friend,T.bmp,1,n,662
breaking,11,21,right,female,friend,Friend,T.bmp,1,n,690
breaking,11,21,right,female,stranger,Self,C.bmp,0,m,886
breaking,11,21,right,female,self,Stranger,S.bmp,1,m,690
breaking,11,21,right,female,friend,Self,C.bmp,1,m,518
breaking,11,21,right,female,stranger,Stranger,S.bmp,1,n,618
breaking,11,21,right,female,stranger,Friend,T.bmp,1,m,575
breaking,11,21,right,female,friend,Stranger,S.bmp,1,n,659
breaking,11,21,right,female,self,Friend,T.bmp,1,n,687
breaking,11,21,right,female,friend,Stranger,S.bmp,1,n,723
breaking,11,21,right,female,stranger,Friend,T.bmp,1,m,678
breaking,11,21,right,female,friend,Self,C.bmp,1,m,714
breaking,11,21,right,female,friend,Friend,T.bmp,1,n,559
breaking,11,21,right,female,friend,Stranger,S.bmp,1,n,627
breaking,11,21,right,female,stranger,Stranger,S.bmp,1,n,511
breaking,11,21,right,female,self,Self,C.bmp,0,m,515
breaking,11,21,right,female,self,Stranger,S.bmp,1,m,911
breaking,11,21,right,female,friend,Friend,T.bmp,1,n,779
breaking,11,21,right,female,friend,Self,C.bmp,1,m,512
breaking,11,21,right,female,self,Self,C.bmp,1,n,652
breaking,11,21,right,female,friend,Stranger,S.bmp,1,n,704
breaking,11,21,right,female,friend,Stranger,S.bmp,0,,0
breaking,11,21,right,female,friend,Self,C.bmp,0,n,664
breaking,11,21,right,female,friend,Self,C.bmp,1,m,1036
breaking,11,21,right,female,stranger,Friend,T.bmp,1,m,689
breaking,11,21,right,female,self,Stranger,S.bmp,1,m,885
breaking,11,21,right,female,self,Stranger,S.bmp,1,m,449
breaking,11,21,right,female,self,Friend,T.bmp,1,n,541
breaking,11,21,right,female,self,Friend,T.bmp,1,n,721
breaking,11,21,right,female,self,Self,C.bmp,0,m,669
breaking,11,21,right,female,stranger,Stranger,S.bmp,1,n,674
breaking,11,21,right,female,friend,Stranger,S.bmp,1,n,774
breaking,11,21,right,female,self,Self,C.bmp,0,,0
breaking,11,21,right,female,friend,Friend,T.bmp,1,n,933
breaking,11,21,right,female,stranger,Stranger,S.bmp,1,n,641
breaking,11,21,right,female,stranger,Self,C.bmp,1,n,573
breaking,11,21,right,female,stranger,Self,C.bmp,1,n,538
breaking,11,21,right,female,friend,Friend,T.bmp,1,n,662
breaking,11,21,right,female,stranger,Stranger,S.bmp,1,n,498
breaking,11,21,right,female,self,Stranger,S.bmp,1,m,838
breaking,11,21,right,female,stranger,Friend,T.bmp,1,m,578
breaking,11,21,right,female,self,Friend,T.bmp,1,n,630
breaking,11,21,right,female,stranger,Friend,T.bmp,0,n,603
breaking,11,21,right,female,stranger,Self,C.bmp,1,n,607
breaking,11,21,right,female,friend,Friend,T.bmp,1,n,758
breaking,11,21,right,female,friend,Stranger,S.bmp,1,n,690
breaking,11,21,right,female,friend,Friend,T.bmp,1,n,534
breaking,11,21,right,female,friend,Stranger,S.bmp,1,n,810
breaking,11,21,right,female,friend,Self,C.bmp,1,m,535
breaking,11,21,right,female,stranger,Stranger,S.bmp,1,n,595
breaking,11,21,right,female,friend,Friend,T.bmp,1,n,615
breaking,11,21,right,female,friend,Self,C.bmp,1,m,571
breaking,11,21,right,female,self,Stranger,S.bmp,1,m,510
breaking,11,21,right,female,stranger,Self,C.bmp,1,n,538
breaking,11,21,right,female,self,Self,C.bmp,1,n,559
breaking,11,21,right,female,stranger,Stranger,S.bmp,1,n,715
breaking,11,21,right,female,self,Stranger,S.bmp,1,m,855
breaking,11,21,right,female,friend,Stranger,S.bmp,1,n,491
breaking,11,21,right,female,self,Friend,T.bmp,1,n,559
breaking,11,21,right,female,self,Self,C.bmp,1,n,779
breaking,11,21,right,female,friend,Self,C.bmp,1,m,472
breaking,11,21,right,female,self,Friend,T.bmp,1,n,788
breaking,11,21,right,female,stranger,Friend,T.bmp,1,m,704
breaking,11,21,right,female,stranger,Friend,T.bmp,1,m,636
breaking,11,21,right,female,stranger,Stranger,S.bmp,1,n,624
breaking,11,21,right,female,self,Self,C.bmp,1,n,620
breaking,11,21,right,female,stranger,Self,C.bmp,1,n,585
breaking,11,21,right,female,self,Friend,T.bmp,1,n,741
breaking,11,21,right,female,stranger,Self,C.bmp,1,n,593
breaking,11,21,right,female,self,Stranger,S.bmp,1,m,805
breaking,11,21,right,female,stranger,Friend,T.bmp,1,m,729
breaking,11,21,right,female,friend,Self,C.bmp,1,m,565
breaking,11,21,right,female,stranger,Self,C.bmp,1,n,610
breaking,11,21,right,female,self,Friend,T.bmp,1,n,574
breaking,11,21,right,female,self,Self,C.bmp,0,m,777
breaking,11,21,right,female,friend,Stranger,S.bmp,1,n,853
breaking,11,21,right,female,stranger,Friend,T.bmp,1,m,593
breaking,11,21,right,female,friend,Stranger,S.bmp,1,n,837
breaking,11,21,right,female,friend,Friend,T.bmp,1,n,938
breaking,11,21,right,female,stranger,Stranger,S.bmp,1,n,902
breaking,11,21,right,female,self,Stranger,S.bmp,1,m,442
breaking,11,21,right,female,friend,Friend,T.bmp,0,m,598
breaking,11,21,right,female,stranger,Friend,T.bmp,1,m,674
breaking,11,21,right,female,friend,Self,C.bmp,0,n,758
breaking,11,21,right,female,stranger,Friend,T.bmp,1,m,531
breaking,11,21,right,female,friend,Friend,T.bmp,1,n,583
breaking,11,21,right,female,friend,Self,C.bmp,1,m,619
breaking,11,21,right,female,self,Stranger,S.bmp,1,m,711
breaking,11,21,right,female,self,Self,C.bmp,1,n,771
breaking,11,21,right,female,friend,Stranger,S.bmp,1,n,607
breaking,11,21,right,female,stranger,Stranger,S.bmp,1,n,644
breaking,11,21,right,female,stranger,Stranger,S.bmp,1,n,776
breaking,11,21,right,female,self,Stranger,S.bmp,1,m,724
breaking,11,21,right,female,self,Friend,T.bmp,1,n,744
breaking,11,21,right,female,self,Self,C.bmp,1,n,868
breaking,11,21,right,female,self,Friend,T.bmp,1,n,832
breaking,11,21,right,female,stranger,Self,C.bmp,1,n,637
breaking,11,21,right,female,stranger,Self,C.bmp,1,n,705
breaking,11,21,right,female,self,Self,C.bmp,1,n,860
breaking,11,21,right,female,friend,Self,C.bmp,1,m,384
breaking,11,21,right,female,stranger,Stranger,S.bmp,1,n,548
breaking,11,21,right,female,self,Stranger,S.bmp,1,m,888
breaking,11,21,right,female,self,Self,C.bmp,1,n,573
breaking,11,21,right,female,stranger,Self,C.bmp,1,n,625
breaking,11,21,right,female,stranger,Self,C.bmp,1,n,629
breaking,11,21,right,female,friend,Friend,T.bmp,1,n,609
breaking,11,21,right,female,friend,Self,C.bmp,1,m,845
breaking,11,21,right,female,stranger,Friend,T.bmp,1,m,754
breaking,11,21,right,female,friend,Stranger,S.bmp,1,n,518
breaking,11,21,right,female,friend,Self,C.bmp,1,m,522
breaking,11,21,right,female,self,Friend,T.bmp,1,n,430
breaking,11,21,right,female,friend,Stranger,S.bmp,1,n,690
breaking,11,21,right,female,stranger,Stranger,S.bmp,1,n,542
breaking,11,21,right,female,self,Stranger,S.bmp,1,m,619
breaking,11,21,right,female,stranger,Friend,T.bmp,1,m,599
breaking,11,21,right,female,stranger,Friend,T.bmp,1,m,723
breaking,11,21,right,female,friend,Stranger,S.bmp,1,n,647
breaking,11,21,right,female,stranger,Stranger,S.bmp,1,n,555
breaking,11,21,right,female,self,Friend,T.bmp,1,n,791
breaking,11,21,right,female,stranger,Self,C.bmp,1,n,620
breaking,11,21,right,female,self,Friend,T.bmp,1,n,584
breaking,11,21,right,female,friend,Friend,T.bmp,1,n,507
breaking,11,21,right,female,self,Self,C.bmp,1,n,759
breaking,11,21,right,female,self,Stranger,S.bmp,1,m,515
breaking,11,21,right,female,friend,Friend,T.bmp,1,n,463
breaking,11,21,right,female,stranger,Friend,T.bmp,1,m,614
breaking,11,21,right,female,stranger,Stranger,S.bmp,1,n,507
breaking,11,21,right,female,self,Friend,T.bmp,1,n,615
breaking,11,21,right,female,friend,Stranger,S.bmp,1,n,627
breaking,11,21,right,female,stranger,Self,C.bmp,1,n,487
breaking,11,21,right,female,self,Self,C.bmp,1,n,699
breaking,11,21,right,female,self,Stranger,S.bmp,1,m,743
breaking,11,21,right,female,friend,Self,C.bmp,1,m,500
breaking,11,21,right,female,self,Self,C.bmp,1,n,496
breaking,11,21,right,female,friend,Stranger,S.bmp,0,m,652
breaking,11,21,right,female,stranger,Self,C.bmp,1,n,568
breaking,11,21,right,female,stranger,Stranger,S.bmp,1,n,644
breaking,11,21,right,female,stranger,Friend,T.bmp,1,m,536
breaking,11,21,right,female,self,Friend,T.bmp,1,n,469
breaking,11,21,right,female,friend,Self,C.bmp,0,n,735
breaking,11,21,right,female,friend,Friend,T.bmp,1,n,602
breaking,11,21,right,female,self,Stranger,S.bmp,0,n,630
breaking,11,21,right,female,friend,Friend,T.bmp,0,m,714
breaking,11,21,right,female,self,Friend,T.bmp,1,n,446
breaking,11,21,right,female,stranger,Stranger,S.bmp,1,n,603
breaking,11,21,right,female,self,Stranger,S.bmp,1,m,735
breaking,11,21,right,female,friend,Stranger,S.bmp,1,n,515
breaking,11,21,right,female,friend,Self,C.bmp,1,m,367
breaking,11,21,right,female,friend,Friend,T.bmp,1,n,699
breaking,11,21,right,female,stranger,Friend,T.bmp,1,m,591
breaking,11,21,right,female,stranger,Self,C.bmp,1,n,556
breaking,11,21,right,female,self,Self,C.bmp,1,n,632
breaking,11,21,right,female,stranger,Stranger,S.bmp,1,n,524
breaking,11,21,right,female,self,Stranger,S.bmp,1,m,504
breaking,11,21,right,female,self,Self,C.bmp,1,n,596
breaking,11,21,right,female,friend,Friend,T.bmp,1,n,632
breaking,11,21,right,female,friend,Stranger,S.bmp,1,n,1013
breaking,11,21,right,female,stranger,Friend,T.bmp,1,m,561
breaking,11,21,right,female,self,Friend,T.bmp,1,n,493
breaking,11,21,right,female,friend,Stranger,S.bmp,1,n,569
breaking,11,21,right,female,stranger,Stranger,S.bmp,1,n,557
breaking,11,21,right,female,friend,Friend,T.bmp,1,n,585
breaking,11,21,right,female,stranger,Self,C.bmp,1,n,1046
breaking,11,21,right,female,stranger,Self,C.bmp,1,n,649
breaking,11,21,right,female,self,Stranger,S.bmp,1,m,781
breaking,11,21,right,female,friend,Self,C.bmp,1,m,481
breaking,11,21,right,female,self,Friend,T.bmp,1,n,445
breaking,11,21,right,female,stranger,Friend,T.bmp,1,m,642
breaking,11,21,right,female,friend,Self,C.bmp,0,n,582
breaking,11,21,right,female,stranger,Self,C.bmp,1,n,690
breaking,11,21,right,female,self,Self,C.bmp,0,m,494
breaking,11,21,right,female,self,Stranger,S.bmp,1,m,466
breaking,11,21,right,female,stranger,Friend,T.bmp,1,m,438
breaking,11,21,right,female,stranger,Stranger,S.bmp,1,n,555
breaking,11,21,right,female,self,Self,C.bmp,1,n,903
breaking,11,21,right,female,self,Friend,T.bmp,1,n,507
breaking,11,21,right,female,friend,Self,C.bmp,1,m,951
breaking,11,21,right,female,friend,Friend,T.bmp,1,n,579
breaking,11,21,right,female,friend,Stranger,S.bmp,1,n,695
breaking,11,21,right,female,friend,Self,C.bmp,1,m,844
breaking,11,21,right,female,stranger,Friend,T.bmp,1,m,752
breaking,11,21,right,female,self,Self,C.bmp,0,m,436
breaking,11,21,right,female,friend,Stranger,S.bmp,1,n,632
breaking,11,21,right,female,self,Self,C.bmp,1,n,540
breaking,11,21,right,female,friend,Self,C.bmp,0,n,736
breaking,11,21,right,female,stranger,Self,C.bmp,1,n,476
breaking,11,21,right,female,stranger,Stranger,S.bmp,1,n,840
breaking,11,21,right,female,self,Stranger,S.bmp,1,m,460
breaking,11,21,right,female,stranger,Friend,T.bmp,1,m,488
breaking,11,21,right,female,friend,Stranger,S.bmp,1,n,772
breaking,11,21,right,female,self,Self,C.bmp,1,n,808
breaking,11,21,right,female,self,Stranger,S.bmp,1,m,597
breaking,11,21,right,female,stranger,Self,C.bmp,1,n,665
breaking,11,21,right,female,stranger,Stranger,S.bmp,1,n,557
breaking,11,21,right,female,friend,Self,C.bmp,0,n,585
breaking,11,21,right,female,stranger,Stranger,S.bmp,1,n,725
breaking,11,21,right,female,friend,Friend,T.bmp,1,n,785
breaking,11,21,right,female,self,Friend,T.bmp,1,n,574
breaking,11,21,right,female,self,Friend,T.bmp,1,n,618
breaking,11,21,right,female,self,Friend,T.bmp,1,n,518
breaking,11,21,right,female,self,Stranger,S.bmp,1,m,546
breaking,11,21,right,female,friend,Friend,T.bmp,1,n,686
breaking,11,21,right,female,friend,Stranger,S.bmp,1,n,730
breaking,11,21,right,female,stranger,Self,C.bmp,1,n,551
breaking,11,21,right,female,stranger,Friend,T.bmp,1,m,667
breaking,11,21,right,female,friend,Friend,T.bmp,1,n,495
breaking,11,21,right,female,stranger,Stranger,S.bmp,1,n,549
breaking,11,21,right,female,self,Self,C.bmp,1,n,737
breaking,11,21,right,female,self,Friend,T.bmp,1,n,453
breaking,11,21,right,female,self,Friend,T.bmp,1,n,489
breaking,11,21,right,female,stranger,Self,C.bmp,1,n,598
breaking,11,21,right,female,stranger,Stranger,S.bmp,1,n,530
breaking,11,21,right,female,friend,Friend,T.bmp,1,n,422
breaking,11,21,right,female,friend,Self,C.bmp,1,m,602
breaking,11,21,right,female,stranger,Self,C.bmp,1,n,494
breaking,11,21,right,female,friend,Stranger,S.bmp,1,n,466
breaking,11,21,right,female,stranger,Friend,T.bmp,1,m,639
breaking,11,21,right,female,friend,Friend,T.bmp,1,n,483
breaking,11,21,right,female,friend,Stranger,S.bmp,1,n,583
breaking,11,21,right,female,stranger,Friend,T.bmp,1,m,459
breaking,11,21,right,female,self,Friend,T.bmp,1,n,447
breaking,11,21,right,female,friend,Friend,T.bmp,1,n,491
breaking,11,21,right,female,stranger,Self,C.bmp,1,n,552
breaking,11,21,right,female,stranger,Stranger,S.bmp,1,n,436
breaking,11,21,right,female,self,Self,C.bmp,0,m,632
breaking,11,21,right,female,self,Stranger,S.bmp,0,n,532
breaking,11,21,right,female,friend,Self,C.bmp,1,m,608
breaking,11,21,right,female,friend,Stranger,S.bmp,1,n,516
breaking,11,21,right,female,self,Self,C.bmp,0,m,504
breaking,11,21,right,female,stranger,Friend,T.bmp,1,m,652
breaking,11,21,right,female,self,Stranger,S.bmp,1,m,792
breaking,11,21,right,female,self,Stranger,S.bmp,1,m,778
breaking,11,21,right,female,friend,Self,C.bmp,0,n,838
breaking,11,21,right,female,self,Friend,T.bmp,1,n,843
breaking,11,21,right,female,friend,Friend,T.bmp,0,m,791
breaking,11,21,right,female,self,Stranger,S.bmp,1,m,859
breaking,11,21,right,female,friend,Self,C.bmp,1,m,463
breaking,11,21,right,female,stranger,Stranger,S.bmp,1,n,499
breaking,11,21,right,female,self,Friend,T.bmp,1,n,575
breaking,11,21,right,female,friend,Friend,T.bmp,1,n,588
breaking,11,21,right,female,self,Stranger,S.bmp,1,m,648
breaking,11,21,right,female,stranger,Stranger,S.bmp,1,n,444
breaking,11,21,right,female,stranger,Self,C.bmp,1,n,592
breaking,11,21,right,female,self,Self,C.bmp,0,,0
breaking,11,21,right,female,stranger,Stranger,S.bmp,1,n,560
breaking,11,21,right,female,friend,Friend,T.bmp,1,n,653
breaking,11,21,right,female,friend,Self,C.bmp,1,m,593
breaking,11,21,right,female,stranger,Friend,T.bmp,0,n,509
breaking,11,21,right,female,friend,Self,C.bmp,0,n,593
breaking,11,21,right,female,stranger,Friend,T.bmp,1,m,621
breaking,11,21,right,female,self,Friend,T.bmp,1,n,433
breaking,11,21,right,female,self,Self,C.bmp,1,n,901
breaking,11,21,right,female,stranger,Self,C.bmp,1,n,545
breaking,11,21,right,female,friend,Stranger,S.bmp,1,n,565
breaking,11,21,right,female,friend,Stranger,S.bmp,0,m,489
breaking,11,21,right,female,self,Stranger,S.bmp,0,n,685
breaking,11,21,right,female,stranger,Self,C.bmp,1,n,625
breaking,11,21,right,female,stranger,Friend,T.bmp,1,m,718
breaking,11,21,right,female,self,Self,C.bmp,1,n,754
breaking,11,21,right,female,friend,Stranger,S.bmp,1,n,742
breaking,11,21,right,female,self,Friend,T.bmp,1,n,514
breaking,11,21,right,female,friend,Self,C.bmp,1,m,542
breaking,11,21,right,female,friend,Stranger,S.bmp,1,n,522
breaking,11,21,right,female,friend,Friend,T.bmp,1,n,447
breaking,11,21,right,female,self,Stranger,S.bmp,0,n,491
breaking,11,21,right,female,self,Friend,T.bmp,1,n,327
breaking,11,21,right,female,stranger,Stranger,S.bmp,1,n,579
breaking,11,21,right,female,friend,Stranger,S.bmp,1,n,431
breaking,11,21,right,female,stranger,Stranger,S.bmp,1,n,395
breaking,11,21,right,female,stranger,Stranger,S.bmp,1,n,328
breaking,11,21,right,female,stranger,Friend,T.bmp,0,n,404
breaking,11,21,right,female,stranger,Friend,T.bmp,1,m,592
breaking,11,21,right,female,self,Self,C.bmp,0,m,492
breaking,11,21,right,female,self,Friend,T.bmp,1,n,616
breaking,11,21,right,female,stranger,Friend,T.bmp,1,m,651
breaking,11,21,right,female,self,Self,C.bmp,1,n,616
breaking,11,21,right,female,friend,Friend,T.bmp,1,n,516
breaking,11,21,right,female,friend,Self,C.bmp,0,n,496
breaking,11,21,right,female,friend,Friend,T.bmp,1,n,804
breaking,11,21,right,female,self,Stranger,S.bmp,0,n,720
breaking,11,21,right,female,self,Self,C.bmp,1,n,460
breaking,11,21,right,female,friend,Stranger,S.bmp,1,n,481
breaking,11,21,right,female,stranger,Self,C.bmp,1,n,549
breaking,11,21,right,female,stranger,Self,C.bmp,1,n,481
breaking,11,21,right,female,self,Stranger,S.bmp,1,m,677
breaking,11,21,right,female,friend,Self,C.bmp,1,m,689
breaking,11,21,right,female,stranger,Self,C.bmp,1,n,646
breaking,11,21,right,female,stranger,Self,C.bmp,1,n,541
breaking,11,21,right,female,friend,Friend,T.bmp,1,n,481
breaking,11,21,right,female,stranger,Stranger,S.bmp,1,n,453
breaking,11,21,right,female,friend,Self,C.bmp,1,m,809
breaking,11,21,right,female,self,Self,C.bmp,1,n,437
breaking,11,21,right,female,friend,Stranger,S.bmp,1,n,880
breaking,11,21,right,female,stranger,Friend,T.bmp,1,m,549
breaking,11,21,right,female,stranger,Friend,T.bmp,0,n,529
breaking,11,21,right,female,friend,Friend,T.bmp,1,n,501
breaking,11,21,right,female,friend,Stranger,S.bmp,1,n,767
breaking,11,21,right,female,self,Friend,T.bmp,1,n,515
breaking,11,21,right,female,friend,Stranger,S.bmp,1,n,623
breaking,11,21,right,female,stranger,Friend,T.bmp,1,m,500
breaking,11,21,right,female,stranger,Stranger,S.bmp,1,n,616
breaking,11,21,right,female,self,Stranger,S.bmp,0,n,708
breaking,11,21,right,female,stranger,Stranger,S.bmp,1,n,520
breaking,11,21,right,female,stranger,Self,C.bmp,1,n,636
breaking,11,21,right,female,self,Stranger,S.bmp,1,m,488
breaking,11,21,right,female,self,Stranger,S.bmp,1,m,485
breaking,11,21,right,female,friend,Self,C.bmp,1,m,425
breaking,11,21,right,female,friend,Friend,T.bmp,1,n,461
breaking,11,21,right,female,self,Friend,T.bmp,1,n,737
breaking,11,21,right,female,self,Self,C.bmp,1,n,525
breaking,11,21,right,female,self,Self,C.bmp,1,n,513
breaking,11,21,right,female,stranger,Self,C.bmp,1,n,454
breaking,11,21,right,female,friend,Self,C.bmp,1,m,458
breaking,11,21,right,female,self,Friend,T.bmp,1,n,446
breaking,11,21,right,female,friend,Friend,T.bmp,1,n,650
breaking,11,21,right,female,stranger,Self,C.bmp,1,n,613
breaking,11,21,right,female,stranger,Stranger,S.bmp,1,n,441
breaking,11,21,right,female,friend,Stranger,S.bmp,1,n,470
breaking,11,21,right,female,stranger,Stranger,S.bmp,1,n,418
breaking,11,21,right,female,stranger,Friend,T.bmp,1,m,558
breaking,11,21,right,female,friend,Self,C.bmp,1,m,818
breaking,11,21,right,female,stranger,Friend,T.bmp,1,m,750
breaking,11,21,right,female,stranger,Friend,T.bmp,1,m,490
breaking,11,21,right,female,friend,Friend,T.bmp,1,n,415
breaking,11,21,right,female,self,Friend,T.bmp,1,n,459
breaking,11,21,right,female,self,Friend,T.bmp,1,n,359
breaking,11,21,right,female,friend,Self,C.bmp,1,m,595
breaking,11,21,right,female,self,Self,C.bmp,1,n,463
breaking,11,21,right,female,self,Stranger,S.bmp,1,m,627
breaking,11,21,right,female,self,Self,C.bmp,1,n,720
breaking,11,21,right,female,self,Stranger,S.bmp,1,m,788
breaking,11,21,right,female,self,Self,C.bmp,1,n,608
breaking,11,21,right,female,self,Friend,T.bmp,1,n,628
breaking,11,21,right,female,friend,Self,C.bmp,1,m,912
breaking,11,21,right,female,stranger,Stranger,S.bmp,1,n,476
breaking,11,21,right,female,friend,Friend,T.bmp,1,n,521
breaking,11,21,right,female,friend,Stranger,S.bmp,1,n,461
breaking,11,21,right,female,friend,Stranger,S.bmp,1,n,513
breaking,11,21,right,female,stranger,Self,C.bmp,1,n,460
breaking,11,21,right,female,self,Stranger,S.bmp,1,m,760
breaking,11,21,right,female,stranger,Self,C.bmp,1,n,540
breaking,11,21,right,female,self,Stranger,S.bmp,1,m,825
breaking,11,21,right,female,friend,Self,C.bmp,0,n,669
breaking,11,21,right,female,friend,Friend,T.bmp,1,n,705
breaking,11,21,right,female,self,Friend,T.bmp,1,n,517
breaking,11,21,right,female,stranger,Self,C.bmp,1,n,537
breaking,11,21,right,female,stranger,Self,C.bmp,1,n,486
breaking,11,21,right,female,self,Friend,T.bmp,1,n,474
breaking,11,21,right,female,friend,Stranger,S.bmp,1,n,806
breaking,11,21,right,female,stranger,Friend,T.bmp,1,m,482
breaking,11,21,right,female,friend,Self,C.bmp,1,m,606
breaking,11,21,right,female,stranger,Stranger,S.bmp,1,n,458
breaking,11,21,right,female,stranger,Stranger,S.bmp,1,n,551
breaking,11,21,right,female,self,Self,C.bmp,1,n,619
breaking,11,21,right,female,stranger,Friend,T.bmp,1,m,543
breaking,11,21,right,female,self,Friend,T.bmp,1,n,451
breaking,11,21,right,female,self,Stranger,S.bmp,1,m,1023
breaking,11,21,right,female,stranger,Stranger,S.bmp,1,n,491
breaking,11,21,right,female,friend,Stranger,S.bmp,1,n,464
breaking,11,21,right,female,self,Self,C.bmp,1,n,572
breaking,11,21,right,female,self,Stranger,S.bmp,1,m,560
breaking,11,21,right,female,friend,Stranger,S.bmp,1,n,755
breaking,11,21,right,female,friend,Self,C.bmp,1,m,679
breaking,11,21,right,female,self,Self,C.bmp,1,n,419
breaking,11,21,right,female,friend,Friend,T.bmp,1,n,528
breaking,11,21,right,female,friend,Friend,T.bmp,1,n,548
breaking,11,21,right,female,stranger,Self,C.bmp,1,n,752
breaking,11,21,right,female,stranger,Friend,T.bmp,1,m,916
breaking,11,21,right,female,friend,Self,C.bmp,0,n,547
breaking,11,21,right,female,friend,Friend,T.bmp,1,n,487
breaking,11,21,right,female,self,Stranger,S.bmp,1,m,619
breaking,11,21,right,female,stranger,Stranger,S.bmp,1,n,360
breaking,11,21,right,female,stranger,Self,C.bmp,1,n,516
breaking,11,21,right,female,self,Friend,T.bmp,1,n,456
breaking,11,21,right,female,self,Self,C.bmp,1,n,548
breaking,11,21,right,female,friend,Self,C.bmp,1,m,456
breaking,11,21,right,female,stranger,Friend,T.bmp,1,m,508
breaking,11,21,right,female,self,Stranger,S.bmp,1,m,793
breaking,11,21,right,female,self,Friend,T.bmp,1,n,549
breaking,11,21,right,female,stranger,Friend,T.bmp,1,m,536
breaking,11,21,right,female,friend,Stranger,S.bmp,1,n,828
breaking,11,21,right,female,self,Self,C.bmp,1,n,712
breaking,11,21,right,female,stranger,Stranger,S.bmp,1,n,660
breaking,11,21,right,female,stranger,Friend,T.bmp,1,m,569
breaking,11,21,right,female,friend,Friend,T.bmp,1,n,493
breaking,11,21,right,female,stranger,Stranger,S.bmp,1,n,785
breaking,11,21,right,female,self,Self,C.bmp,1,n,685
breaking,11,21,right,female,stranger,Self,C.bmp,1,n,513
breaking,11,21,right,female,friend,Stranger,S.bmp,1,n,557
breaking,11,21,right,female,self,Friend,T.bmp,1,n,546
breaking,11,21,right,female,self,Stranger,S.bmp,0,n,598
breaking,11,21,right,female,friend,Self,C.bmp,1,m,602
breaking,11,21,right,female,friend,Stranger,S.bmp,1,n,654
breaking,11,21,right,female,stranger,Self,C.bmp,1,n,538
breaking,11,21,right,female,friend,Friend,T.bmp,1,n,454
breaking,11,21,right,female,stranger,Self,C.bmp,1,n,563
breaking,11,21,right,female,stranger,Stranger,S.bmp,1,n,495
breaking,11,21,right,female,stranger,Friend,T.bmp,1,m,555
breaking,11,21,right,female,friend,Stranger,S.bmp,1,n,631
breaking,11,21,right,female,stranger,Friend,T.bmp,1,m,971
breaking,11,21,right,female,self,Friend,T.bmp,1,n,535
breaking,11,21,right,female,friend,Friend,T.bmp,1,n,604
breaking,11,21,right,female,friend,Self,C.bmp,0,n,528
breaking,11,21,right,female,friend,Stranger,S.bmp,1,n,467
breaking,11,21,right,female,friend,Stranger,S.bmp,1,n,527
breaking,11,21,right,female,self,Stranger,S.bmp,1,m,387
breaking,11,21,right,female,self,Self,C.bmp,1,n,560
breaking,11,21,right,female,stranger,Friend,T.bmp,1,m,476
breaking,11,21,right,female,stranger,Self,C.bmp,1,n,496
breaking,11,21,right,female,self,Friend,T.bmp,1,n,476
breaking,11,21,right,female,stranger,Stranger,S.bmp,1,n,504
breaking,11,21,right,female,friend,Self,C.bmp,1,m,548
breaking,11,21,right,female,friend,Self,C.bmp,1,m,577
breaking,11,21,right,female,self,Self,C.bmp,1,n,829
breaking,11,21,right,female,friend,Friend,T.bmp,0,,0
breaking,11,21,right,female,self,Stranger,S.bmp,0,n,813
breaking,11,21,right,female,self,Stranger,S.bmp,1,m,865
breaking,11,21,right,female,friend,Friend,T.bmp,1,n,829
breaking,11,21,right,female,stranger,Stranger,S.bmp,1,n,706
breaking,11,21,right,female,self,Friend,T.bmp,1,n,726
breaking,11,21,right,female,self,Self,C.bmp,1,n,842
breaking,11,21,right,female,stranger,Self,C.bmp,1,n,534
breaking,11,21,right,female,stranger,Self,C.bmp,1,n,482
breaking,11,21,right,female,friend,Stranger,S.bmp,1,n,606
breaking,11,21,right,female,self,Self,C.bmp,1,n,571
breaking,11,21,right,female,friend,Friend,T.bmp,1,n,710
breaking,11,21,right,female,stranger,Self,C.bmp,1,n,962
breaking,11,21,right,female,stranger,Friend,T.bmp,1,m,534
breaking,11,21,right,female,stranger,Stranger,S.bmp,1,n,554
breaking,11,21,right,female,self,Friend,T.bmp,1,n,486
breaking,11,21,right,female,stranger,Stranger,S.bmp,1,n,491
breaking,11,21,right,female,friend,Self,C.bmp,0,n,583
breaking,11,21,right,female,friend,Friend,T.bmp,0,m,667
breaking,11,21,right,female,friend,Self,C.bmp,1,m,599
breaking,11,21,right,female,self,Stranger,S.bmp,1,m,1003
breaking,11,21,right,female,stranger,Stranger,S.bmp,1,n,391
breaking,11,21,right,female,self,Self,C.bmp,1,n,892
breaking,11,21,right,female,stranger,Self,C.bmp,1,n,568
breaking,11,21,right,female,self,Self,C.bmp,1,n,636
breaking,11,21,right,female,self,Stranger,S.bmp,0,n,488
breaking,11,21,right,female,friend,Stranger,S.bmp,1,n,452
breaking,11,21,right,female,friend,Friend,T.bmp,1,n,440
breaking,11,21,right,female,stranger,Friend,T.bmp,1,m,629
breaking,11,21,right,female,friend,Self,C.bmp,1,m,641
breaking,11,21,right,female,self,Friend,T.bmp,1,n,805
breaking,11,21,right,female,self,Friend,T.bmp,1,n,425
breaking,11,21,right,female,friend,Stranger,S.bmp,1,n,789
breaking,11,21,right,female,self,Stranger,S.bmp,0,n,457
breaking,11,21,right,female,stranger,Friend,T.bmp,0,n,494
breaking,11,21,right,female,friend,Stranger,S.bmp,1,n,660
breaking,11,21,right,female,stranger,Friend,T.bmp,1,m,536
breaking,11,21,right,female,friend,Self,C.bmp,1,m,612
breaking,11,21,right,female,self,Stranger,S.bmp,1,m,672
breaking,11,21,right,female,friend,Friend,T.bmp,1,n,548
breaking,11,21,right,female,friend,Self,C.bmp,1,m,640
breaking,11,21,right,female,self,Stranger,S.bmp,1,m,693
breaking,11,21,right,female,stranger,Friend,T.bmp,1,m,569
breaking,11,21,right,female,stranger,Self,C.bmp,1,n,589
breaking,11,21,right,female,stranger,Stranger,S.bmp,1,n,729
breaking,11,21,right,female,friend,Self,C.bmp,1,m,597
breaking,11,21,right,female,self,Self,C.bmp,1,n,497
breaking,11,21,right,female,friend,Stranger,S.bmp,1,n,638
breaking,11,21,right,female,friend,Friend,T.bmp,1,n,498
breaking,11,21,right,female,self,Self,C.bmp,1,n,638
breaking,11,21,right,female,self,Friend,T.bmp,1,n,594
breaking,11,21,right,female,stranger,Stranger,S.bmp,1,n,966
breaking,11,21,right,female,stranger,Friend,T.bmp,1,m,963
breaking,11,21,right,female,stranger,Self,C.bmp,1,n,614
breaking,11,21,right,female,self,Friend,T.bmp,1,n,666
breaking,11,21,right,female,self,Self,C.bmp,1,n,486
breaking,11,21,right,female,friend,Stranger,S.bmp,1,n,738
breaking,11,21,right,female,friend,Friend,T.bmp,1,n,470
breaking,11,21,right,female,stranger,Self,C.bmp,1,n,827
breaking,11,21,right,female,self,Stranger,S.bmp,0,n,535
breaking,11,21,right,female,self,Friend,T.bmp,1,n,587
breaking,11,21,right,female,stranger,Stranger,S.bmp,1,n,655
breaking,11,21,right,female,self,Friend,T.bmp,1,n,763
breaking,11,21,right,female,self,Stranger,S.bmp,1,m,975
breaking,11,21,right,female,self,Self,C.bmp,1,n,852
breaking,11,21,right,female,friend,Friend,T.bmp,1,n,1080
breaking,11,21,right,female,friend,Self,C.bmp,0,n,812
breaking,11,21,right,female,stranger,Self,C.bmp,1,n,432
breaking,11,21,right,female,self,Friend,T.bmp,1,n,740
breaking,11,21,right,female,stranger,Friend,T.bmp,1,m,1024
breaking,11,21,right,female,friend,Self,C.bmp,0,,0
breaking,11,21,right,female,self,Stranger,S.bmp,1,m,945
breaking,11,21,right,female,self,Friend,T.bmp,1,n,541
