ExperimentName,Subject,Age,Handedness,Sex,Identity,Shape,Target.ACC,Target.RESP,Target.RT
SelfAssociate,10,19,NULL,male,Self,S.bmp,1,n,1563
SelfAssociate,10,19,NULL,male,Friend,C.bmp,1,n,1503
SelfAssociate,10,19,NULL,male,Stranger,T.bmp,1,b,958
SelfAssociate,10,19,NULL,male,Friend,C.bmp,1,n,2453
SelfAssociate,10,19,NULL,male,Self,S.bmp,1,m,976
SelfAssociate,10,19,NULL,male,Stranger,T.bmp,1,b,890
SelfAssociate,10,19,NULL,male,Friend,C.bmp,1,m,1717
SelfAssociate,10,19,NULL,male,Friend,C.bmp,1,n,929
SelfAssociate,10,19,NULL,male,Self,S.bmp,1,b,844
SelfAssociate,10,19,NULL,male,Stranger,T.bmp,1,b,1337
SelfAssociate,10,19,NULL,male,Self,S.bmp,1,b,1210
SelfAssociate,10,19,NULL,male,Stranger,T.bmp,1,b,1436
SelfAssociate,10,19,NULL,male,Friend,C.bmp,0,n,1545
SelfAssociate,10,19,NULL,male,Self,S.bmp,1,b,1089
SelfAssociate,10,19,NULL,male,Stranger,T.bmp,1,m,1018
SelfAssociate,10,19,NULL,male,Self,S.bmp,1,b,1155
SelfAssociate,10,19,NULL,male,Stranger,T.bmp,1,b,1769
SelfAssociate,10,19,NULL,male,Friend,C.bmp,1,b,1427
SelfAssociate,10,19,NULL,male,Friend,C.bmp,1,m,2849
SelfAssociate,10,19,NULL,male,Friend,C.bmp,1,b,1076
SelfAssociate,10,19,NULL,male,Friend,C.bmp,1,m,841
SelfAssociate,10,19,NULL,male,Friend,C.bmp,1,m,1390
SelfAssociate,10,19,NULL,male,Friend,C.bmp,1,n,868
SelfAssociate,10,19,NULL,male,Friend,C.bmp,1,n,676
SelfAssociate,11,26,NULL,female,Stranger,S.bmp,1,m,1499
SelfAssociate,11,26,NULL,female,Self,C.bmp,0,,0
SelfAssociate,11,26,NULL,female,Friend,T.bmp,0,,0
SelfAssociate,11,26,NULL,female,Friend,T.bmp,0,n,1121
SelfAssociate,11,26,NULL,female,Stranger,S.bmp,0,,0
SelfAssociate,11,26,NULL,female,Self,C.bmp,0,,0
SelfAssociate,11,26,NULL,female,Self,C.bmp,0,b,851
SelfAssociate,11,26,NULL,female,Stranger,S.bmp,1,n,940
SelfAssociate,11,26,NULL,female,Friend,T.bmp,0,,0
SelfAssociate,11,26,NULL,female,Friend,T.bmp,0,n,679
SelfAssociate,11,26,NULL,female,Stranger,S.bmp,1,b,1156
SelfAssociate,11,26,NULL,female,Self,C.bmp,1,n,938
SelfAssociate,11,26,NULL,female,Stranger,S.bmp,1,m,1059
SelfAssociate,11,26,NULL,female,Self,C.bmp,0,n,1202
SelfAssociate,11,26,NULL,female,Stranger,S.bmp,1,m,1093
SelfAssociate,11,26,NULL,female,Friend,T.bmp,0,,0
SelfAssociate,11,26,NULL,female,Friend,T.bmp,0,n,782
SelfAssociate,11,26,NULL,female,Self,C.bmp,0,,0
SelfAssociate,11,26,NULL,female,Stranger,S.bmp,1,m,794
SelfAssociate,11,26,NULL,female,Self,C.bmp,1,n,871
SelfAssociate,11,26,NULL,female,Friend,T.bmp,0,m,886
SelfAssociate,11,26,NULL,female,Friend,T.bmp,1,m,1147
SelfAssociate,11,26,NULL,female,Stranger,S.bmp,1,n,1249
SelfAssociate,11,26,NULL,female,Self,C.bmp,1,m,978
SelfAssociate,11,26,NULL,female,Self,C.bmp,0,m,689
SelfAssociate,11,26,NULL,female,Friend,T.bmp,0,n,1108
SelfAssociate,11,26,NULL,female,Friend,T.bmp,0,,0
SelfAssociate,11,26,NULL,female,Self,C.bmp,1,m,831
SelfAssociate,11,26,NULL,female,Self,C.bmp,1,n,901
SelfAssociate,11,26,NULL,female,Self,C.bmp,1,n,726
SelfAssociate,11,26,NULL,female,Friend,T.bmp,0,n,827
SelfAssociate,11,26,NULL,female,Friend,T.bmp,1,b,956
SelfAssociate,11,26,NULL,female,Friend,T.bmp,1,b,761
SelfAssociate,11,26,NULL,female,Friend,T.bmp,1,b,886
SelfAssociate,11,26,NULL,female,Self,C.bmp,1,b,955
SelfAssociate,11,26,NULL,female,Self,C.bmp,1,n,904
SelfAssociate,11,26,NULL,female,Self,C.bmp,1,m,761
SelfAssociate,11,26,NULL,female,Self,C.bmp,1,b,886
SelfAssociate,11,26,NULL,female,Friend,T.bmp,0,,0
SelfAssociate,11,26,NULL,female,Friend,T.bmp,1,b,1074
SelfAssociate,11,26,NULL,female,Self,C.bmp,1,m,967
SelfAssociate,11,26,NULL,female,Self,C.bmp,1,n,1050
SelfAssociate,11,26,NULL,female,Friend,T.bmp,0,,0
SelfAssociate,11,26,NULL,female,Friend,T.bmp,1,m,859
SelfAssociate,11,26,NULL,female,Self,C.bmp,1,b,778
SelfAssociate,11,26,NULL,female,Self,C.bmp,1,n,828
SelfAssociate,11,26,NULL,female,Friend,T.bmp,1,m,781
SelfAssociate,11,26,NULL,female,Friend,T.bmp,0,m,806
SelfAssociate,11,26,NULL,female,Friend,T.bmp,1,m,1067
SelfAssociate,11,26,NULL,female,Self,C.bmp,1,m,874
SelfAssociate,11,26,NULL,female,Self,C.bmp,1,n,841
SelfAssociate,11,26,NULL,female,Friend,T.bmp,0,n,726
SelfAssociate,11,26,NULL,female,Friend,T.bmp,1,m,1115
SelfAssociate,11,26,NULL,female,Self,C.bmp,1,b,792
SelfAssociate,11,26,NULL,female,Self,C.bmp,1,n,742
SelfAssociate,11,26,NULL,female,Friend,T.bmp,1,b,967
SelfAssociate,11,26,NULL,female,Self,C.bmp,1,m,890
SelfAssociate,11,26,NULL,female,Self,C.bmp,1,m,885
SelfAssociate,11,26,NULL,female,Friend,T.bmp,0,,0
SelfAssociate,11,26,NULL,female,Friend,T.bmp,1,b,785
SelfAssociate,11,26,NULL,female,Self,C.bmp,1,m,736
SelfAssociate,11,26,NULL,female,Self,C.bmp,1,n,730
SelfAssociate,11,26,NULL,female,Friend,T.bmp,1,b,949
SelfAssociate,11,26,NULL,female,Friend,T.bmp,1,n,884
SelfAssociate,11,26,NULL,female,Self,C.bmp,1,b,777
SelfAssociate,11,26,NULL,female,Friend,T.bmp,0,,0
SelfAssociate,11,26,NULL,female,Friend,T.bmp,1,n,835
SelfAssociate,11,26,NULL,female,Self,C.bmp,1,m,906
SelfAssociate,11,26,NULL,female,Self,C.bmp,1,b,1297
SelfAssociate,11,26,NULL,female,Self,C.bmp,1,b,714
SelfAssociate,11,26,NULL,female,Friend,T.bmp,1,m,953
SelfAssociate,11,26,NULL,female,Friend,T.bmp,0,,0
SelfAssociate,11,26,NULL,female,Self,C.bmp,0,m,925
SelfAssociate,11,26,NULL,female,Friend,T.bmp,0,m,1130
SelfAssociate,11,26,NULL,female,Friend,T.bmp,1,n,835
SelfAssociate,11,26,NULL,female,Self,C.bmp,1,b,746
SelfAssociate,11,26,NULL,female,Self,C.bmp,1,m,987
SelfAssociate,11,26,NULL,female,Friend,T.bmp,0,,0
SelfAssociate,11,26,NULL,female,Friend,T.bmp,1,b,721
SelfAssociate,11,26,NULL,female,Self,C.bmp,1,m,678
SelfAssociate,11,26,NULL,female,Friend,T.bmp,0,,0
SelfAssociate,11,26,NULL,female,Self,C.bmp,0,,0
SelfAssociate,11,26,NULL,female,Friend,T.bmp,1,b,779
SelfAssociate,11,26,NULL,female,Self,C.bmp,1,b,804
SelfAssociate,11,26,NULL,female,Self,C.bmp,1,n,895
SelfAssociate,11,26,NULL,female,Self,C.bmp,1,b,712
SelfAssociate,11,26,NULL,female,Friend,T.bmp,1,n,711
SelfAssociate,11,26,NULL,female,Friend,T.bmp,1,n,742
SelfAssociate,11,26,NULL,female,Self,C.bmp,0,b,871
SelfAssociate,11,26,NULL,female,Self,C.bmp,1,m,844
SelfAssociate,11,26,NULL,female,Friend,T.bmp,1,b,798
SelfAssociate,11,26,NULL,female,Friend,T.bmp,0,,0
SelfAssociate,11,26,NULL,female,Friend,T.bmp,1,n,762
SelfAssociate,11,26,NULL,female,Friend,T.bmp,1,n,903
SelfAssociate,11,26,NULL,female,Self,C.bmp,1,n,776
SelfAssociate,11,26,NULL,female,Self,C.bmp,1,m,795
SelfAssociate,11,26,NULL,female,Self,C.bmp,1,b,666
SelfAssociate,11,26,NULL,female,Self,C.bmp,1,b,906
SelfAssociate,11,26,NULL,female,Friend,T.bmp,1,m,795
SelfAssociate,11,26,NULL,female,Friend,T.bmp,1,m,794
SelfAssociate,11,26,NULL,female,Friend,T.bmp,1,b,729
SelfAssociate,11,26,NULL,female,Self,C.bmp,1,n,772
SelfAssociate,11,26,NULL,female,Friend,T.bmp,1,m,877
SelfAssociate,11,26,NULL,female,Self,C.bmp,1,m,811
SelfAssociate,11,26,NULL,female,Self,C.bmp,1,m,806
SelfAssociate,11,26,NULL,female,Self,C.bmp,1,m,875
SelfAssociate,11,26,NULL,female,Self,C.bmp,1,n,938
SelfAssociate,11,26,NULL,female,Self,C.bmp,1,m,653
SelfAssociate,11,26,NULL,female,Self,C.bmp,1,m,638
SelfAssociate,11,26,NULL,female,Self,C.bmp,1,n,716
SelfAssociate,12,24,NULL,female,Friend,S.bmp,1,n,1037
SelfAssociate,12,24,NULL,female,Self,C.bmp,1,m,1226
SelfAssociate,12,24,NULL,female,Stranger,T.bmp,1,b,1057
SelfAssociate,12,24,NULL,female,Stranger,T.bmp,0,b,1467
SelfAssociate,12,24,NULL,female,Friend,S.bmp,0,n,1130
SelfAssociate,12,24,NULL,female,Self,C.bmp,0,m,1084
SelfAssociate,12,24,NULL,female,Friend,S.bmp,1,b,1279
SelfAssociate,12,24,NULL,female,Self,C.bmp,0,m,1290
SelfAssociate,12,24,NULL,female,Friend,S.bmp,0,,0
SelfAssociate,12,24,NULL,female,Stranger,T.bmp,1,n,1187
SelfAssociate,12,24,NULL,female,Self,C.bmp,0,b,1074
SelfAssociate,12,24,NULL,female,Stranger,T.bmp,1,m,1360
SelfAssociate,12,24,NULL,female,Friend,S.bmp,1,m,1339
SelfAssociate,12,24,NULL,female,Self,C.bmp,1,n,1299
SelfAssociate,12,24,NULL,female,Friend,S.bmp,1,m,1938
SelfAssociate,12,24,NULL,female,Stranger,T.bmp,1,m,1138
SelfAssociate,12,24,NULL,female,Stranger,T.bmp,1,n,1194
SelfAssociate,12,24,NULL,female,Self,C.bmp,1,n,1151
SelfAssociate,12,24,NULL,female,Stranger,T.bmp,1,b,1276
SelfAssociate,12,24,NULL,female,Friend,S.bmp,1,n,1538
SelfAssociate,12,24,NULL,female,Stranger,T.bmp,1,m,1201
SelfAssociate,12,24,NULL,female,Self,C.bmp,1,m,1213
SelfAssociate,12,24,NULL,female,Friend,S.bmp,1,n,1150
SelfAssociate,12,24,NULL,female,Self,C.bmp,1,b,1164
SelfAssociate,12,24,NULL,female,Self,C.bmp,1,b,2750
SelfAssociate,12,24,NULL,female,Friend,S.bmp,1,n,1989
SelfAssociate,12,24,NULL,female,Friend,S.bmp,1,m,1059
SelfAssociate,12,24,NULL,female,Self,C.bmp,1,b,1010
SelfAssociate,12,24,NULL,female,Friend,S.bmp,1,m,1259
SelfAssociate,12,24,NULL,female,Friend,S.bmp,1,m,1723
SelfAssociate,12,24,NULL,female,Self,C.bmp,1,n,1175
SelfAssociate,12,24,NULL,female,Self,C.bmp,1,m,1712
SelfAssociate,12,24,NULL,female,Self,C.bmp,1,n,1238
SelfAssociate,12,24,NULL,female,Friend,S.bmp,1,b,985
SelfAssociate,12,24,NULL,female,Self,C.bmp,1,m,1442
SelfAssociate,12,24,NULL,female,Friend,S.bmp,1,n,798
SelfAssociate,13,20,NULL,female,Stranger,C.bmp,1,n,1235
SelfAssociate,13,20,NULL,female,Friend,S.bmp,1,n,1128
SelfAssociate,13,20,NULL,female,Self,T.bmp,0,b,1034
SelfAssociate,13,20,NULL,female,Stranger,C.bmp,0,n,879
SelfAssociate,13,20,NULL,female,Friend,S.bmp,1,n,1012
SelfAssociate,13,20,NULL,female,Self,T.bmp,1,n,1125
SelfAssociate,13,20,NULL,female,Friend,S.bmp,0,b,1080
SelfAssociate,13,20,NULL,female,Self,T.bmp,1,n,916
SelfAssociate,13,20,NULL,female,Self,T.bmp,1,b,850
SelfAssociate,13,20,NULL,female,Stranger,C.bmp,0,m,997
SelfAssociate,13,20,NULL,female,Friend,S.bmp,0,n,1143
SelfAssociate,13,20,NULL,female,Stranger,C.bmp,1,b,1015
SelfAssociate,13,20,NULL,female,Stranger,C.bmp,0,b,904
SelfAssociate,13,20,NULL,female,Stranger,C.bmp,1,b,777
SelfAssociate,13,20,NULL,female,Self,T.bmp,1,m,1140
SelfAssociate,13,20,NULL,female,Friend,S.bmp,1,m,1315
SelfAssociate,13,20,NULL,female,Friend,S.bmp,1,n,1312
SelfAssociate,13,20,NULL,female,Self,T.bmp,1,b,758
SelfAssociate,13,20,NULL,female,Stranger,C.bmp,0,n,949
SelfAssociate,13,20,NULL,female,Friend,S.bmp,1,b,891
SelfAssociate,13,20,NULL,female,Self,T.bmp,0,m,806
SelfAssociate,13,20,NULL,female,Friend,S.bmp,1,b,947
SelfAssociate,13,20,NULL,female,Self,T.bmp,1,b,764
SelfAssociate,13,20,NULL,female,Stranger,C.bmp,1,m,809
SelfAssociate,13,20,NULL,female,Friend,S.bmp,1,m,1131
SelfAssociate,13,20,NULL,female,Stranger,C.bmp,1,n,981
SelfAssociate,13,20,NULL,female,Self,T.bmp,1,b,710
SelfAssociate,13,20,NULL,female,Stranger,C.bmp,0,n,1244
SelfAssociate,13,20,NULL,female,Friend,S.bmp,1,b,848
SelfAssociate,13,20,NULL,female,Self,T.bmp,1,b,636
SelfAssociate,13,20,NULL,female,Stranger,C.bmp,1,b,867
SelfAssociate,13,20,NULL,female,Stranger,C.bmp,1,m,972
SelfAssociate,13,20,NULL,female,Self,T.bmp,1,b,854
SelfAssociate,13,20,NULL,female,Self,T.bmp,1,m,888
SelfAssociate,13,20,NULL,female,Self,T.bmp,1,b,611
SelfAssociate,13,20,NULL,female,Stranger,C.bmp,1,n,782
SelfAssociate,13,20,NULL,female,Self,T.bmp,1,m,806
SelfAssociate,13,20,NULL,female,Stranger,C.bmp,1,m,1126
SelfAssociate,13,20,NULL,female,Stranger,C.bmp,0,n,1256
SelfAssociate,13,20,NULL,female,Stranger,C.bmp,1,n,1178
SelfAssociate,13,20,NULL,female,Self,T.bmp,1,m,1072
SelfAssociate,13,20,NULL,female,Self,T.bmp,1,b,725
SelfAssociate,13,20,NULL,female,Stranger,C.bmp,1,n,761
SelfAssociate,13,20,NULL,female,Stranger,C.bmp,1,n,710
SelfAssociate,13,20,NULL,female,Stranger,C.bmp,1,n,917
SelfAssociate,13,20,NULL,female,Stranger,C.bmp,1,b,932
SelfAssociate,13,20,NULL,female,Stranger,C.bmp,1,n,1014
SelfAssociate,13,20,NULL,female,Stranger,C.bmp,1,b,896
SelfAssociate,14,20,NULL,female,Friend,C.bmp,0,,0
SelfAssociate,14,20,NULL,female,Friend,C.bmp,0,b,1355
SelfAssociate,14,20,NULL,female,Self,T.bmp,0,m,808
SelfAssociate,14,20,NULL,female,Stranger,S.bmp,1,n,787
SelfAssociate,14,20,NULL,female,Stranger,S.bmp,0,n,796
SelfAssociate,14,20,NULL,female,Self,T.bmp,0,m,827
SelfAssociate,14,20,NULL,female,Self,T.bmp,0,,0
SelfAssociate,14,20,NULL,female,Stranger,S.bmp,1,b,1362
SelfAssociate,14,20,NULL,female,Friend,C.bmp,0,,0
SelfAssociate,14,20,NULL,female,Self,T.bmp,1,b,876
SelfAssociate,14,20,NULL,female,Stranger,S.bmp,1,b,1003
SelfAssociate,14,20,NULL,female,Friend,C.bmp,1,n,983
SelfAssociate,14,20,NULL,female,Stranger,S.bmp,0,n,1110
SelfAssociate,14,20,NULL,female,Self,T.bmp,0,m,1059
SelfAssociate,14,20,NULL,female,Friend,C.bmp,0,n,1123
SelfAssociate,14,20,NULL,female,Stranger,S.bmp,0,b,1318
SelfAssociate,14,20,NULL,female,Self,T.bmp,1,m,1074
SelfAssociate,14,20,NULL,female,Friend,C.bmp,0,b,663
SelfAssociate,14,20,NULL,female,Self,T.bmp,1,b,1198
SelfAssociate,14,20,NULL,female,Friend,C.bmp,0,n,1313
SelfAssociate,14,20,NULL,female,Friend,C.bmp,0,b,1095
SelfAssociate,14,20,NULL,female,Self,T.bmp,1,n,936
SelfAssociate,14,20,NULL,female,Stranger,S.bmp,0,b,1227
SelfAssociate,14,20,NULL,female,Stranger,S.bmp,1,b,938
SelfAssociate,14,20,NULL,female,Friend,C.bmp,0,n,1187
SelfAssociate,14,20,NULL,female,Stranger,S.bmp,1,n,849
SelfAssociate,14,20,NULL,female,Self,T.bmp,1,m,1284
SelfAssociate,14,20,NULL,female,Friend,C.bmp,1,n,1143
SelfAssociate,14,20,NULL,female,Self,T.bmp,1,n,791
SelfAssociate,14,20,NULL,female,Stranger,S.bmp,1,b,812
SelfAssociate,14,20,NULL,female,Self,T.bmp,0,b,1222
SelfAssociate,14,20,NULL,female,Stranger,S.bmp,1,b,934
SelfAssociate,14,20,NULL,female,Self,T.bmp,1,b,873
SelfAssociate,14,20,NULL,female,Friend,C.bmp,1,n,1096
SelfAssociate,14,20,NULL,female,Stranger,S.bmp,1,m,1209
SelfAssociate,14,20,NULL,female,Friend,C.bmp,0,b,1202
SelfAssociate,14,20,NULL,female,Stranger,S.bmp,1,n,758
SelfAssociate,14,20,NULL,female,Friend,C.bmp,1,b,819
SelfAssociate,14,20,NULL,female,Friend,C.bmp,0,n,1210
SelfAssociate,14,20,NULL,female,Stranger,S.bmp,1,m,963
SelfAssociate,14,20,NULL,female,Self,T.bmp,1,b,694
SelfAssociate,14,20,NULL,female,Self,T.bmp,1,n,1225
SelfAssociate,14,20,NULL,female,Self,T.bmp,1,n,633
SelfAssociate,14,20,NULL,female,Friend,C.bmp,0,m,1159
SelfAssociate,14,20,NULL,female,Friend,C.bmp,1,n,691
SelfAssociate,14,20,NULL,female,Stranger,S.bmp,1,m,1205
SelfAssociate,14,20,NULL,female,Stranger,S.bmp,0,m,857
SelfAssociate,14,20,NULL,female,Self,T.bmp,1,m,1068
SelfAssociate,14,20,NULL,female,Self,T.bmp,1,b,779
SelfAssociate,14,20,NULL,female,Friend,C.bmp,1,b,947
SelfAssociate,14,20,NULL,female,Friend,C.bmp,1,m,1196
SelfAssociate,14,20,NULL,female,Self,T.bmp,1,n,729
SelfAssociate,14,20,NULL,female,Stranger,S.bmp,1,m,1012
SelfAssociate,14,20,NULL,female,Stranger,S.bmp,0,m,853
SelfAssociate,14,20,NULL,female,Friend,C.bmp,1,m,1192
SelfAssociate,14,20,NULL,female,Friend,C.bmp,0,b,1158
SelfAssociate,14,20,NULL,female,Self,T.bmp,0,n,769
SelfAssociate,14,20,NULL,female,Stranger,S.bmp,0,m,644
SelfAssociate,14,20,NULL,female,Self,T.bmp,0,b,793
SelfAssociate,14,20,NULL,female,Stranger,S.bmp,0,,0
SelfAssociate,14,20,NULL,female,Friend,C.bmp,0,b,1226
SelfAssociate,14,20,NULL,female,Self,T.bmp,1,n,746
SelfAssociate,14,20,NULL,female,Friend,C.bmp,1,n,1195
SelfAssociate,14,20,NULL,female,Self,T.bmp,1,m,1144
SelfAssociate,14,20,NULL,female,Stranger,S.bmp,1,n,1112
SelfAssociate,14,20,NULL,female,Stranger,S.bmp,0,m,981
SelfAssociate,14,20,NULL,female,Friend,C.bmp,0,n,996
SelfAssociate,14,20,NULL,female,Stranger,S.bmp,1,b,1066
SelfAssociate,14,20,NULL,female,Stranger,S.bmp,1,n,1017
SelfAssociate,14,20,NULL,female,Friend,C.bmp,0,,0
SelfAssociate,14,20,NULL,female,Self,T.bmp,1,m,1009
SelfAssociate,14,20,NULL,female,Self,T.bmp,1,n,786
SelfAssociate,14,20,NULL,female,Self,T.bmp,1,m,843
SelfAssociate,14,20,NULL,female,Stranger,S.bmp,1,b,808
SelfAssociate,14,20,NULL,female,Friend,C.bmp,0,n,1171
SelfAssociate,14,20,NULL,female,Self,T.bmp,1,m,1172
SelfAssociate,14,20,NULL,female,Stranger,S.bmp,1,n,1110
SelfAssociate,14,20,NULL,female,Friend,C.bmp,1,n,931
SelfAssociate,14,20,NULL,female,Friend,C.bmp,0,b,982
SelfAssociate,14,20,NULL,female,Friend,C.bmp,0,n,981
SelfAssociate,14,20,NULL,female,Stranger,S.bmp,1,b,901
SelfAssociate,14,20,NULL,female,Stranger,S.bmp,0,b,1206
SelfAssociate,14,20,NULL,female,Stranger,S.bmp,1,m,1257
SelfAssociate,14,20,NULL,female,Friend,C.bmp,1,m,1211
SelfAssociate,14,20,NULL,female,Stranger,S.bmp,0,b,1060
SelfAssociate,14,20,NULL,female,Friend,C.bmp,1,m,1091
SelfAssociate,14,20,NULL,female,Friend,C.bmp,1,n,1189
SelfAssociate,14,20,NULL,female,Friend,C.bmp,1,n,866
SelfAssociate,14,20,NULL,female,Stranger,S.bmp,1,m,1115
SelfAssociate,14,20,NULL,female,Stranger,S.bmp,0,m,1001
SelfAssociate,14,20,NULL,female,Friend,C.bmp,1,n,1028
SelfAssociate,14,20,NULL,female,Stranger,S.bmp,0,b,971
SelfAssociate,14,20,NULL,female,Stranger,S.bmp,1,n,835
SelfAssociate,14,20,NULL,female,Friend,C.bmp,1,b,1098
SelfAssociate,14,20,NULL,female,Stranger,S.bmp,1,m,850
SelfAssociate,14,20,NULL,female,Stranger,S.bmp,1,n,955
SelfAssociate,14,20,NULL,female,Stranger,S.bmp,1,b,920
SelfAssociate,14,20,NULL,female,Stranger,S.bmp,1,m,1013
SelfAssociate,14,20,NULL,female,Stranger,S.bmp,1,n,998
SelfAssociate,14,20,NULL,female,Stranger,S.bmp,1,n,849
SelfAssociate,15,19,NULL,female,Stranger,C.bmp,0,n,574
SelfAssociate,15,19,NULL,female,Self,S.bmp,0,m,969
SelfAssociate,15,19,NULL,female,Self,S.bmp,1,b,470
SelfAssociate,15,19,NULL,female,Friend,T.bmp,1,n,836
SelfAssociate,15,19,NULL,female,Stranger,C.bmp,0,n,1091
SelfAssociate,15,19,NULL,female,Friend,T.bmp,0,b,1116
SelfAssociate,15,19,NULL,female,Stranger,C.bmp,0,m,705
SelfAssociate,15,19,NULL,female,Friend,T.bmp,0,m,986
SelfAssociate,15,19,NULL,female,Self,S.bmp,1,b,899
SelfAssociate,15,19,NULL,female,Stranger,C.bmp,0,,0
SelfAssociate,15,19,NULL,female,Friend,T.bmp,1,n,787
SelfAssociate,15,19,NULL,female,Self,S.bmp,1,m,747
SelfAssociate,15,19,NULL,female,Self,S.bmp,1,m,612
SelfAssociate,15,19,NULL,female,Friend,T.bmp,1,b,767
SelfAssociate,15,19,NULL,female,Stranger,C.bmp,0,b,1163
SelfAssociate,15,19,NULL,female,Friend,T.bmp,1,n,1111
SelfAssociate,15,19,NULL,female,Stranger,C.bmp,1,m,748
SelfAssociate,15,19,NULL,female,Self,S.bmp,1,b,741
SelfAssociate,15,19,NULL,female,Stranger,C.bmp,1,m,780
SelfAssociate,15,19,NULL,female,Friend,T.bmp,0,b,629
SelfAssociate,15,19,NULL,female,Friend,T.bmp,0,b,876
SelfAssociate,15,19,NULL,female,Self,S.bmp,0,m,819
SelfAssociate,15,19,NULL,female,Stranger,C.bmp,0,,0
SelfAssociate,15,19,NULL,female,Self,S.bmp,1,b,754
SelfAssociate,15,19,NULL,female,Friend,T.bmp,0,b,1049
SelfAssociate,15,19,NULL,female,Stranger,C.bmp,1,b,1130
SelfAssociate,15,19,NULL,female,Stranger,C.bmp,0,n,860
SelfAssociate,15,19,NULL,female,Friend,T.bmp,0,b,772
SelfAssociate,15,19,NULL,female,Self,S.bmp,1,b,727
SelfAssociate,15,19,NULL,female,Self,S.bmp,1,n,772
SelfAssociate,15,19,NULL,female,Self,S.bmp,1,m,782
SelfAssociate,15,19,NULL,female,Self,S.bmp,0,m,791
SelfAssociate,15,19,NULL,female,Stranger,C.bmp,0,b,862
SelfAssociate,15,19,NULL,female,Friend,T.bmp,0,n,1135
SelfAssociate,15,19,NULL,female,Stranger,C.bmp,0,b,1104
SelfAssociate,15,19,NULL,female,Friend,T.bmp,0,n,879
SelfAssociate,15,19,NULL,female,Friend,T.bmp,0,b,692
SelfAssociate,15,19,NULL,female,Self,S.bmp,1,b,911
SelfAssociate,15,19,NULL,female,Stranger,C.bmp,0,b,1029
SelfAssociate,15,19,NULL,female,Stranger,C.bmp,0,m,1115
SelfAssociate,15,19,NULL,female,Self,S.bmp,1,b,967
SelfAssociate,15,19,NULL,female,Friend,T.bmp,0,m,588
SelfAssociate,15,19,NULL,female,Self,S.bmp,0,b,829
SelfAssociate,15,19,NULL,female,Self,S.bmp,1,n,739
SelfAssociate,15,19,NULL,female,Stranger,C.bmp,1,b,788
SelfAssociate,15,19,NULL,female,Friend,T.bmp,1,b,867
SelfAssociate,15,19,NULL,female,Stranger,C.bmp,0,m,955
SelfAssociate,15,19,NULL,female,Friend,T.bmp,1,b,794
SelfAssociate,15,19,NULL,female,Self,S.bmp,1,m,673
SelfAssociate,15,19,NULL,female,Friend,T.bmp,0,b,616
SelfAssociate,15,19,NULL,female,Stranger,C.bmp,0,n,1106
SelfAssociate,15,19,NULL,female,Friend,T.bmp,1,b,986
SelfAssociate,15,19,NULL,female,Self,S.bmp,1,m,474
SelfAssociate,15,19,NULL,female,Stranger,C.bmp,0,n,577
SelfAssociate,15,19,NULL,female,Stranger,C.bmp,1,b,779
SelfAssociate,15,19,NULL,female,Friend,T.bmp,1,n,828
SelfAssociate,15,19,NULL,female,Self,S.bmp,1,n,749
SelfAssociate,15,19,NULL,female,Self,S.bmp,1,n,516
SelfAssociate,15,19,NULL,female,Friend,T.bmp,0,b,698
SelfAssociate,15,19,NULL,female,Stranger,C.bmp,0,n,981
SelfAssociate,15,19,NULL,female,Stranger,C.bmp,0,b,949
SelfAssociate,15,19,NULL,female,Friend,T.bmp,1,n,1220
SelfAssociate,15,19,NULL,female,Friend,T.bmp,0,m,1147
SelfAssociate,15,19,NULL,female,Self,S.bmp,1,n,776
SelfAssociate,15,19,NULL,female,Stranger,C.bmp,0,b,859
SelfAssociate,15,19,NULL,female,Self,S.bmp,1,b,756
SelfAssociate,15,19,NULL,female,Self,S.bmp,1,b,1050
SelfAssociate,15,19,NULL,female,Stranger,C.bmp,0,m,908
SelfAssociate,15,19,NULL,female,Friend,T.bmp,0,b,1029
SelfAssociate,15,19,NULL,female,Stranger,C.bmp,0,m,842
SelfAssociate,15,19,NULL,female,Self,S.bmp,1,b,687
SelfAssociate,15,19,NULL,female,Friend,T.bmp,0,m,859
SelfAssociate,15,19,NULL,female,Friend,T.bmp,1,b,903
SelfAssociate,15,19,NULL,female,Self,S.bmp,0,n,959
SelfAssociate,15,19,NULL,female,Stranger,C.bmp,0,n,972
SelfAssociate,15,19,NULL,female,Friend,T.bmp,1,m,999
SelfAssociate,15,19,NULL,female,Stranger,C.bmp,0,m,943
SelfAssociate,15,19,NULL,female,Self,S.bmp,1,b,760
SelfAssociate,15,19,NULL,female,Friend,T.bmp,0,b,1186
SelfAssociate,15,19,NULL,female,Friend,T.bmp,0,m,962
SelfAssociate,15,19,NULL,female,Self,S.bmp,1,m,868
SelfAssociate,15,19,NULL,female,Self,S.bmp,1,m,735
SelfAssociate,15,19,NULL,female,Stranger,C.bmp,0,b,838
SelfAssociate,15,19,NULL,female,Stranger,C.bmp,0,b,1163
SelfAssociate,15,19,NULL,female,Self,S.bmp,0,,0
SelfAssociate,15,19,NULL,female,Friend,T.bmp,0,b,735
SelfAssociate,15,19,NULL,female,Self,S.bmp,1,m,402
SelfAssociate,15,19,NULL,female,Stranger,C.bmp,1,b,609
SelfAssociate,15,19,NULL,female,Stranger,C.bmp,0,b,541
SelfAssociate,15,19,NULL,female,Friend,T.bmp,1,n,830
SelfAssociate,15,19,NULL,female,Stranger,C.bmp,0,b,639
SelfAssociate,15,19,NULL,female,Self,S.bmp,1,n,473
SelfAssociate,15,19,NULL,female,Friend,T.bmp,0,b,655
SelfAssociate,15,19,NULL,female,Self,S.bmp,1,n,618
SelfAssociate,15,19,NULL,female,Friend,T.bmp,1,m,749
SelfAssociate,15,19,NULL,female,Stranger,C.bmp,0,,0
SelfAssociate,15,19,NULL,female,Stranger,C.bmp,0,m,810
SelfAssociate,15,19,NULL,female,Stranger,C.bmp,1,b,611
SelfAssociate,15,19,NULL,female,Self,S.bmp,0,n,480
SelfAssociate,15,19,NULL,female,Friend,T.bmp,0,b,866
SelfAssociate,15,19,NULL,female,Self,S.bmp,1,n,741
SelfAssociate,15,19,NULL,female,Friend,T.bmp,0,b,758
SelfAssociate,15,19,NULL,female,Self,S.bmp,1,m,617
SelfAssociate,15,19,NULL,female,Stranger,C.bmp,1,b,629
SelfAssociate,15,19,NULL,female,Friend,T.bmp,1,n,588
SelfAssociate,15,19,NULL,female,Stranger,C.bmp,0,n,531
SelfAssociate,15,19,NULL,female,Friend,T.bmp,1,n,591
SelfAssociate,15,19,NULL,female,Self,S.bmp,0,b,581
SelfAssociate,15,19,NULL,female,Self,S.bmp,0,m,584
SelfAssociate,15,19,NULL,female,Stranger,C.bmp,0,m,717
SelfAssociate,15,19,NULL,female,Self,S.bmp,1,m,637
SelfAssociate,15,19,NULL,female,Friend,T.bmp,0,n,675
SelfAssociate,15,19,NULL,female,Stranger,C.bmp,0,m,891
SelfAssociate,15,19,NULL,female,Friend,T.bmp,0,m,1020
SelfAssociate,15,19,NULL,female,Self,S.bmp,0,,0
SelfAssociate,15,19,NULL,female,Stranger,C.bmp,1,b,914
SelfAssociate,15,19,NULL,female,Stranger,C.bmp,1,b,1025
SelfAssociate,15,19,NULL,female,Self,S.bmp,0,m,760
SelfAssociate,15,19,NULL,female,Friend,T.bmp,1,b,957
SelfAssociate,15,19,NULL,female,Friend,T.bmp,1,n,700
SelfAssociate,15,19,NULL,female,Friend,T.bmp,0,m,948
SelfAssociate,15,19,NULL,female,Self,S.bmp,1,m,572
SelfAssociate,15,19,NULL,female,Friend,T.bmp,0,n,839
SelfAssociate,15,19,NULL,female,Stranger,C.bmp,1,b,763
SelfAssociate,15,19,NULL,female,Stranger,C.bmp,1,m,704
SelfAssociate,15,19,NULL,female,Self,S.bmp,1,b,713
SelfAssociate,15,19,NULL,female,Stranger,C.bmp,0,b,1031
SelfAssociate,15,19,NULL,female,Stranger,C.bmp,0,m,845
SelfAssociate,15,19,NULL,female,Friend,T.bmp,1,n,890
SelfAssociate,15,19,NULL,female,Friend,T.bmp,1,b,652
SelfAssociate,15,19,NULL,female,Self,S.bmp,1,n,591
SelfAssociate,15,19,NULL,female,Self,S.bmp,1,b,749
SelfAssociate,15,19,NULL,female,Stranger,C.bmp,0,m,628
SelfAssociate,15,19,NULL,female,Stranger,C.bmp,1,n,645
SelfAssociate,15,19,NULL,female,Friend,T.bmp,1,b,769
SelfAssociate,15,19,NULL,female,Self,S.bmp,1,n,700
SelfAssociate,15,19,NULL,female,Self,S.bmp,1,n,517
SelfAssociate,15,19,NULL,female,Friend,T.bmp,0,b,651
SelfAssociate,15,19,NULL,female,Friend,T.bmp,1,n,1070
SelfAssociate,15,19,NULL,female,Friend,T.bmp,1,b,1219
SelfAssociate,15,19,NULL,female,Stranger,C.bmp,0,m,963
SelfAssociate,15,19,NULL,female,Stranger,C.bmp,1,m,1142
SelfAssociate,15,19,NULL,female,Stranger,C.bmp,1,b,606
SelfAssociate,15,19,NULL,female,Friend,T.bmp,0,n,666
SelfAssociate,15,19,NULL,female,Stranger,C.bmp,1,m,755
SelfAssociate,15,19,NULL,female,Friend,T.bmp,0,n,1018
SelfAssociate,15,19,NULL,female,Friend,T.bmp,1,n,1051
SelfAssociate,15,19,NULL,female,Friend,T.bmp,1,b,900
SelfAssociate,15,19,NULL,female,Stranger,C.bmp,1,n,949
SelfAssociate,15,19,NULL,female,Stranger,C.bmp,1,n,572
SelfAssociate,15,19,NULL,female,Friend,T.bmp,1,m,774
SelfAssociate,15,19,NULL,female,Stranger,C.bmp,0,b,849
SelfAssociate,15,19,NULL,female,Friend,T.bmp,1,m,1212
SelfAssociate,15,19,NULL,female,Stranger,C.bmp,1,b,653
SelfAssociate,15,19,NULL,female,Friend,T.bmp,0,b,744
SelfAssociate,15,19,NULL,female,Friend,T.bmp,1,n,561
SelfAssociate,15,19,NULL,female,Stranger,C.bmp,0,m,773
SelfAssociate,15,19,NULL,female,Stranger,C.bmp,0,n,552
SelfAssociate,15,19,NULL,female,Stranger,C.bmp,0,b,614
SelfAssociate,15,19,NULL,female,Friend,T.bmp,1,n,753
SelfAssociate,15,19,NULL,female,Stranger,C.bmp,1,n,672
SelfAssociate,15,19,NULL,female,Friend,T.bmp,0,n,550
SelfAssociate,15,19,NULL,female,Stranger,C.bmp,1,m,973
SelfAssociate,15,19,NULL,female,Friend,T.bmp,1,b,799
SelfAssociate,15,19,NULL,female,Friend,T.bmp,0,m,1011
SelfAssociate,15,19,NULL,female,Stranger,C.bmp,1,m,1509
SelfAssociate,15,19,NULL,female,Friend,T.bmp,1,n,1650
SelfAssociate,15,19,NULL,female,Friend,T.bmp,1,b,852
SelfAssociate,15,19,NULL,female,Stranger,C.bmp,1,n,631
SelfAssociate,15,19,NULL,female,Stranger,C.bmp,0,n,1013
SelfAssociate,15,19,NULL,female,Stranger,C.bmp,1,b,887
SelfAssociate,15,19,NULL,female,Friend,T.bmp,1,n,635
SelfAssociate,15,19,NULL,female,Stranger,C.bmp,0,n,874
SelfAssociate,15,19,NULL,female,Friend,T.bmp,1,n,657
SelfAssociate,15,19,NULL,female,Friend,T.bmp,0,n,651
SelfAssociate,15,19,NULL,female,Stranger,C.bmp,1,m,1030
SelfAssociate,15,19,NULL,female,Friend,T.bmp,1,n,827
SelfAssociate,15,19,NULL,female,Stranger,C.bmp,1,n,836
SelfAssociate,15,19,NULL,female,Friend,T.bmp,0,n,643
SelfAssociate,15,19,NULL,female,Stranger,C.bmp,0,b,751
SelfAssociate,15,19,NULL,female,Stranger,C.bmp,1,b,750
SelfAssociate,15,19,NULL,female,Friend,T.bmp,1,n,757
SelfAssociate,15,19,NULL,female,Friend,T.bmp,0,m,1003
SelfAssociate,15,19,NULL,female,Stranger,C.bmp,1,n,1087
SelfAssociate,15,19,NULL,female,Stranger,C.bmp,1,n,714
SelfAssociate,15,19,NULL,female,Friend,T.bmp,1,n,760
SelfAssociate,15,19,NULL,female,Stranger,C.bmp,1,m,804
SelfAssociate,15,19,NULL,female,Friend,T.bmp,0,n,889
SelfAssociate,15,19,NULL,female,Stranger,C.bmp,1,b,1020
SelfAssociate,15,19,NULL,female,Friend,T.bmp,1,n,995
SelfAssociate,15,19,NULL,female,Friend,T.bmp,0,m,998
SelfAssociate,15,19,NULL,female,Friend,T.bmp,1,n,930
SelfAssociate,15,19,NULL,female,Stranger,C.bmp,1,m,765
SelfAssociate,15,19,NULL,female,Stranger,C.bmp,1,n,665
SelfAssociate,15,19,NULL,female,Friend,T.bmp,0,b,650
SelfAssociate,15,19,NULL,female,Stranger,C.bmp,1,n,716
SelfAssociate,15,19,NULL,female,Stranger,C.bmp,1,m,819
SelfAssociate,15,19,NULL,female,Friend,T.bmp,1,m,796
SelfAssociate,15,19,NULL,female,Friend,T.bmp,1,b,827
SelfAssociate,15,19,NULL,female,Stranger,C.bmp,1,b,939
SelfAssociate,15,19,NULL,female,Stranger,C.bmp,1,b,796
SelfAssociate,15,19,NULL,female,Friend,T.bmp,1,m,851
SelfAssociate,15,19,NULL,female,Stranger,C.bmp,0,b,806
SelfAssociate,15,19,NULL,female,Friend,T.bmp,1,m,1042
SelfAssociate,15,19,NULL,female,Friend,T.bmp,0,m,694
SelfAssociate,15,19,NULL,female,Stranger,C.bmp,1,n,776
SelfAssociate,15,19,NULL,female,Friend,T.bmp,1,m,650
SelfAssociate,15,19,NULL,female,Stranger,C.bmp,1,b,837
SelfAssociate,15,19,NULL,female,Stranger,C.bmp,1,m,1003
SelfAssociate,15,19,NULL,female,Friend,T.bmp,1,b,799
SelfAssociate,15,19,NULL,female,Friend,T.bmp,1,m,779
SelfAssociate,15,19,NULL,female,Stranger,C.bmp,0,b,812
SelfAssociate,15,19,NULL,female,Stranger,C.bmp,1,m,991
SelfAssociate,15,19,NULL,female,Friend,T.bmp,1,n,750
SelfAssociate,15,19,NULL,female,Friend,T.bmp,0,b,804
SelfAssociate,15,19,NULL,female,Stranger,C.bmp,1,n,657
SelfAssociate,15,19,NULL,female,Stranger,C.bmp,1,n,756
SelfAssociate,15,19,NULL,female,Friend,T.bmp,1,b,802
SelfAssociate,15,19,NULL,female,Friend,T.bmp,1,n,679
SelfAssociate,15,19,NULL,female,Stranger,C.bmp,1,b,604
SelfAssociate,15,19,NULL,female,Stranger,C.bmp,1,b,896
SelfAssociate,15,19,NULL,female,Friend,T.bmp,1,m,643
SelfAssociate,15,19,NULL,female,Friend,T.bmp,1,n,680
SelfAssociate,15,19,NULL,female,Friend,T.bmp,1,n,716
SelfAssociate,15,19,NULL,female,Stranger,C.bmp,1,m,699
SelfAssociate,15,19,NULL,female,Stranger,C.bmp,1,b,708
SelfAssociate,15,19,NULL,female,Stranger,C.bmp,1,m,923
SelfAssociate,15,19,NULL,female,Stranger,C.bmp,1,m,888
SelfAssociate,15,19,NULL,female,Friend,T.bmp,1,b,667
SelfAssociate,15,19,NULL,female,Friend,T.bmp,1,n,668
SelfAssociate,15,19,NULL,female,Stranger,C.bmp,1,b,756
SelfAssociate,15,19,NULL,female,Stranger,C.bmp,1,n,731
SelfAssociate,15,19,NULL,female,Friend,T.bmp,1,m,702
SelfAssociate,15,19,NULL,female,Friend,T.bmp,1,m,566
SelfAssociate,15,19,NULL,female,Stranger,C.bmp,1,n,651
SelfAssociate,15,19,NULL,female,Stranger,C.bmp,1,b,781
SelfAssociate,15,19,NULL,female,Friend,T.bmp,1,n,766
SelfAssociate,15,19,NULL,female,Friend,T.bmp,0,n,923
SelfAssociate,15,19,NULL,female,Stranger,C.bmp,1,b,744
SelfAssociate,15,19,NULL,female,Friend,T.bmp,1,n,672
SelfAssociate,15,19,NULL,female,Friend,T.bmp,1,n,719
SelfAssociate,15,19,NULL,female,Stranger,C.bmp,1,b,724
SelfAssociate,15,19,NULL,female,Friend,T.bmp,1,n,520
SelfAssociate,15,19,NULL,female,Friend,T.bmp,1,n,653
SelfAssociate,15,19,NULL,female,Stranger,C.bmp,1,b,647
SelfAssociate,15,19,NULL,female,Stranger,C.bmp,1,m,795
SelfAssociate,15,19,NULL,female,Stranger,C.bmp,1,m,634
SelfAssociate,15,19,NULL,female,Friend,T.bmp,1,b,648
SelfAssociate,15,19,NULL,female,Stranger,C.bmp,0,m,659
SelfAssociate,15,19,NULL,female,Friend,T.bmp,1,b,875
SelfAssociate,15,19,NULL,female,Stranger,C.bmp,1,m,642
SelfAssociate,15,19,NULL,female,Stranger,C.bmp,1,n,839
SelfAssociate,15,19,NULL,female,Stranger,C.bmp,1,b,516
SelfAssociate,15,19,NULL,female,Stranger,C.bmp,1,b,666
SelfAssociate,15,19,NULL,female,Stranger,C.bmp,0,n,515
SelfAssociate,15,19,NULL,female,Stranger,C.bmp,1,m,697
SelfAssociate,15,19,NULL,female,Stranger,C.bmp,1,m,828
SelfAssociate,15,19,NULL,female,Stranger,C.bmp,1,n,597
SelfAssociate,15,19,NULL,female,Stranger,C.bmp,0,n,467
SelfAssociate,15,19,NULL,female,Stranger,C.bmp,1,n,660
SelfAssociate,15,19,NULL,female,Stranger,C.bmp,1,b,580
SelfAssociate,15,19,NULL,female,Stranger,C.bmp,1,m,501
SelfAssociate,15,19,NULL,female,Stranger,C.bmp,1,m,629
SelfAssociate,15,19,NULL,female,Stranger,C.bmp,1,b,548
SelfAssociate,15,19,NULL,female,Stranger,C.bmp,1,n,483
SelfAssociate,16,20,NULL,female,Stranger,T.bmp,1,m,1234
SelfAssociate,16,20,NULL,female,Self,S.bmp,1,n,903
SelfAssociate,16,20,NULL,female,Friend,C.bmp,0,b,1016
SelfAssociate,16,20,NULL,female,Self,S.bmp,1,m,1417
SelfAssociate,16,20,NULL,female,Stranger,T.bmp,1,n,1169
SelfAssociate,16,20,NULL,female,Friend,C.bmp,1,n,1283
SelfAssociate,16,20,NULL,female,Friend,C.bmp,1,b,1094
SelfAssociate,16,20,NULL,female,Friend,C.bmp,0,m,775
SelfAssociate,16,20,NULL,female,Self,S.bmp,1,n,1498
SelfAssociate,16,20,NULL,female,Stranger,T.bmp,1,b,898
SelfAssociate,16,20,NULL,female,Self,S.bmp,0,n,851
SelfAssociate,16,20,NULL,female,Stranger,T.bmp,1,n,1318
SelfAssociate,16,20,NULL,female,Friend,C.bmp,1,b,1169
SelfAssociate,16,20,NULL,female,Self,S.bmp,1,n,851
SelfAssociate,16,20,NULL,female,Stranger,T.bmp,1,m,886
SelfAssociate,16,20,NULL,female,Friend,C.bmp,0,n,1265
SelfAssociate,16,20,NULL,female,Self,S.bmp,1,n,920
SelfAssociate,16,20,NULL,female,Stranger,T.bmp,1,b,997
SelfAssociate,16,20,NULL,female,Self,S.bmp,0,b,1226
SelfAssociate,16,20,NULL,female,Friend,C.bmp,1,m,1226
SelfAssociate,16,20,NULL,female,Self,S.bmp,0,b,1177
SelfAssociate,16,20,NULL,female,Friend,C.bmp,0,b,1243
SelfAssociate,16,20,NULL,female,Friend,C.bmp,0,n,662
SelfAssociate,16,20,NULL,female,Friend,C.bmp,1,m,2486
SelfAssociate,16,20,NULL,female,Self,S.bmp,1,b,737
SelfAssociate,16,20,NULL,female,Self,S.bmp,1,b,1387
SelfAssociate,16,20,NULL,female,Self,S.bmp,0,b,881
SelfAssociate,16,20,NULL,female,Self,S.bmp,1,b,1382
SelfAssociate,16,20,NULL,female,Friend,C.bmp,1,n,1045
SelfAssociate,16,20,NULL,female,Friend,C.bmp,1,n,809
SelfAssociate,16,20,NULL,female,Self,S.bmp,1,b,730
SelfAssociate,16,20,NULL,female,Self,S.bmp,1,b,884
SelfAssociate,16,20,NULL,female,Friend,C.bmp,1,n,1129
SelfAssociate,16,20,NULL,female,Friend,C.bmp,1,m,1235
SelfAssociate,16,20,NULL,female,Self,S.bmp,0,b,920
SelfAssociate,16,20,NULL,female,Friend,C.bmp,1,b,1365
SelfAssociate,16,20,NULL,female,Self,S.bmp,1,m,745
SelfAssociate,16,20,NULL,female,Friend,C.bmp,1,n,1337
SelfAssociate,16,20,NULL,female,Friend,C.bmp,1,n,785
SelfAssociate,16,20,NULL,female,Self,S.bmp,1,n,778
SelfAssociate,16,20,NULL,female,Self,S.bmp,1,m,1203
SelfAssociate,16,20,NULL,female,Friend,C.bmp,1,n,806
SelfAssociate,16,20,NULL,female,Self,S.bmp,1,n,827
SelfAssociate,16,20,NULL,female,Friend,C.bmp,1,n,1148
SelfAssociate,16,20,NULL,female,Friend,C.bmp,1,n,721
SelfAssociate,16,20,NULL,female,Self,S.bmp,1,m,710
SelfAssociate,16,20,NULL,female,Friend,C.bmp,1,m,1461
SelfAssociate,16,20,NULL,female,Self,S.bmp,1,n,724
SelfAssociate,16,20,NULL,female,Friend,C.bmp,1,n,889
SelfAssociate,16,20,NULL,female,Self,S.bmp,1,n,1460
SelfAssociate,16,20,NULL,female,Friend,C.bmp,1,b,1076
SelfAssociate,16,20,NULL,female,Self,S.bmp,1,m,905
SelfAssociate,16,20,NULL,female,Self,S.bmp,1,b,1210
SelfAssociate,16,20,NULL,female,Friend,C.bmp,1,m,868
SelfAssociate,16,20,NULL,female,Self,S.bmp,1,m,812
SelfAssociate,16,20,NULL,female,Self,S.bmp,1,m,775
SelfAssociate,16,20,NULL,female,Friend,C.bmp,1,b,778
SelfAssociate,16,20,NULL,female,Friend,C.bmp,1,b,1085
SelfAssociate,16,20,NULL,female,Friend,C.bmp,1,n,904
SelfAssociate,16,20,NULL,female,Self,S.bmp,1,n,1289
SelfAssociate,16,20,NULL,female,Self,S.bmp,1,b,706
SelfAssociate,16,20,NULL,female,Friend,C.bmp,1,m,922
SelfAssociate,16,20,NULL,female,Self,S.bmp,1,m,1415
SelfAssociate,16,20,NULL,female,Friend,C.bmp,1,n,841
SelfAssociate,16,20,NULL,female,Self,S.bmp,1,b,1030
SelfAssociate,16,20,NULL,female,Friend,C.bmp,0,m,723
SelfAssociate,16,20,NULL,female,Self,S.bmp,1,n,1224
SelfAssociate,16,20,NULL,female,Friend,C.bmp,1,n,935
SelfAssociate,16,20,NULL,female,Friend,C.bmp,0,m,1082
SelfAssociate,16,20,NULL,female,Self,S.bmp,0,n,1270
SelfAssociate,16,20,NULL,female,Self,S.bmp,1,n,979
SelfAssociate,16,20,NULL,female,Self,S.bmp,1,n,739
SelfAssociate,16,20,NULL,female,Friend,C.bmp,1,n,1443
SelfAssociate,16,20,NULL,female,Friend,C.bmp,1,n,631
SelfAssociate,16,20,NULL,female,Self,S.bmp,0,n,1750
SelfAssociate,16,20,NULL,female,Friend,C.bmp,1,b,1108
SelfAssociate,16,20,NULL,female,Self,S.bmp,1,b,1473
SelfAssociate,16,20,NULL,female,Friend,C.bmp,1,m,1511
SelfAssociate,16,20,NULL,female,Self,S.bmp,1,b,1716
SelfAssociate,16,20,NULL,female,Friend,C.bmp,1,b,778
SelfAssociate,16,20,NULL,female,Friend,C.bmp,1,m,819
SelfAssociate,16,20,NULL,female,Self,S.bmp,1,n,1092
SelfAssociate,16,20,NULL,female,Self,S.bmp,1,b,933
SelfAssociate,16,20,NULL,female,Self,S.bmp,1,n,1224
SelfAssociate,16,20,NULL,female,Self,S.bmp,0,b,792
SelfAssociate,16,20,NULL,female,Self,S.bmp,1,n,733
SelfAssociate,16,20,NULL,female,Self,S.bmp,1,n,647
SelfAssociate,16,20,NULL,female,Self,S.bmp,1,n,652
SelfAssociate,16,20,NULL,female,Self,S.bmp,1,m,951
SelfAssociate,16,20,NULL,female,Self,S.bmp,1,m,884
SelfAssociate,16,20,NULL,female,Self,S.bmp,1,n,585
SelfAssociate,17,25,NULL,female,Self,C.bmp,1,n,1203
SelfAssociate,17,25,NULL,female,Friend,T.bmp,1,b,1255
SelfAssociate,17,25,NULL,female,Stranger,S.bmp,0,n,1320
SelfAssociate,17,25,NULL,female,Self,C.bmp,1,b,964
SelfAssociate,17,25,NULL,female,Stranger,S.bmp,1,b,1079
SelfAssociate,17,25,NULL,female,Friend,T.bmp,1,m,1186
SelfAssociate,17,25,NULL,female,Stranger,S.bmp,1,b,2346
SelfAssociate,17,25,NULL,female,Friend,T.bmp,0,n,1386
SelfAssociate,17,25,NULL,female,Stranger,S.bmp,0,m,1066
SelfAssociate,17,25,NULL,female,Self,C.bmp,1,b,777
SelfAssociate,17,25,NULL,female,Self,C.bmp,1,b,732
SelfAssociate,17,25,NULL,female,Friend,T.bmp,0,n,1543
SelfAssociate,17,25,NULL,female,Friend,T.bmp,0,b,935
SelfAssociate,17,25,NULL,female,Self,C.bmp,1,n,1104
SelfAssociate,17,25,NULL,female,Self,C.bmp,0,n,1383
SelfAssociate,17,25,NULL,female,Friend,T.bmp,1,m,1079
SelfAssociate,17,25,NULL,female,Stranger,S.bmp,0,b,673
SelfAssociate,17,25,NULL,female,Stranger,S.bmp,1,m,1102
SelfAssociate,17,25,NULL,female,Friend,T.bmp,0,b,885
SelfAssociate,17,25,NULL,female,Stranger,S.bmp,1,b,1242
SelfAssociate,17,25,NULL,female,Friend,T.bmp,1,m,1173
SelfAssociate,17,25,NULL,female,Self,C.bmp,1,n,711
SelfAssociate,17,25,NULL,female,Stranger,S.bmp,1,b,908
SelfAssociate,17,25,NULL,female,Self,C.bmp,1,m,851
SelfAssociate,17,25,NULL,female,Self,C.bmp,1,m,981
SelfAssociate,17,25,NULL,female,Stranger,S.bmp,0,b,869
SelfAssociate,17,25,NULL,female,Friend,T.bmp,1,m,1082
SelfAssociate,17,25,NULL,female,Self,C.bmp,1,m,933
SelfAssociate,17,25,NULL,female,Friend,T.bmp,1,m,1096
SelfAssociate,17,25,NULL,female,Stranger,S.bmp,1,n,953
SelfAssociate,17,25,NULL,female,Friend,T.bmp,1,m,1478
SelfAssociate,17,25,NULL,female,Stranger,S.bmp,1,m,1042
SelfAssociate,17,25,NULL,female,Friend,T.bmp,0,b,933
SelfAssociate,17,25,NULL,female,Self,C.bmp,1,m,1016
SelfAssociate,17,25,NULL,female,Stranger,S.bmp,1,m,1370
SelfAssociate,17,25,NULL,female,Self,C.bmp,1,b,771
SelfAssociate,17,25,NULL,female,Stranger,S.bmp,1,n,1190
SelfAssociate,17,25,NULL,female,Stranger,S.bmp,1,m,1044
SelfAssociate,17,25,NULL,female,Friend,T.bmp,1,b,951
SelfAssociate,17,25,NULL,female,Friend,T.bmp,0,,0
SelfAssociate,17,25,NULL,female,Stranger,S.bmp,0,m,1707
SelfAssociate,17,25,NULL,female,Friend,T.bmp,0,m,993
SelfAssociate,17,25,NULL,female,Friend,T.bmp,1,b,1030
SelfAssociate,17,25,NULL,female,Stranger,S.bmp,1,m,1588
SelfAssociate,17,25,NULL,female,Friend,T.bmp,1,b,897
SelfAssociate,17,25,NULL,female,Stranger,S.bmp,1,m,1196
SelfAssociate,17,25,NULL,female,Stranger,S.bmp,1,b,714
SelfAssociate,17,25,NULL,female,Friend,T.bmp,1,n,1519
SelfAssociate,17,25,NULL,female,Stranger,S.bmp,1,m,930
SelfAssociate,17,25,NULL,female,Friend,T.bmp,1,b,997
SelfAssociate,17,25,NULL,female,Friend,T.bmp,1,n,843
SelfAssociate,17,25,NULL,female,Stranger,S.bmp,0,b,1143
SelfAssociate,17,25,NULL,female,Stranger,S.bmp,1,n,1015
SelfAssociate,17,25,NULL,female,Stranger,S.bmp,1,n,696
SelfAssociate,17,25,NULL,female,Friend,T.bmp,0,n,1611
SelfAssociate,17,25,NULL,female,Friend,T.bmp,0,b,901
SelfAssociate,17,25,NULL,female,Stranger,S.bmp,0,m,1564
SelfAssociate,17,25,NULL,female,Friend,T.bmp,1,b,1126
SelfAssociate,17,25,NULL,female,Stranger,S.bmp,1,n,1194
SelfAssociate,17,25,NULL,female,Friend,T.bmp,1,b,663
SelfAssociate,17,25,NULL,female,Friend,T.bmp,1,m,1064
SelfAssociate,17,25,NULL,female,Stranger,S.bmp,1,m,1047
SelfAssociate,17,25,NULL,female,Friend,T.bmp,1,n,1089
SelfAssociate,17,25,NULL,female,Stranger,S.bmp,1,b,914
SelfAssociate,17,25,NULL,female,Stranger,S.bmp,1,m,985
SelfAssociate,17,25,NULL,female,Friend,T.bmp,1,m,904
SelfAssociate,17,25,NULL,female,Friend,T.bmp,0,b,777
SelfAssociate,17,25,NULL,female,Stranger,S.bmp,1,m,1436
SelfAssociate,17,25,NULL,female,Friend,T.bmp,1,b,650
SelfAssociate,17,25,NULL,female,Friend,T.bmp,1,b,1284
SelfAssociate,17,25,NULL,female,Stranger,S.bmp,1,n,840
SelfAssociate,17,25,NULL,female,Stranger,S.bmp,0,n,933
SelfAssociate,17,25,NULL,female,Friend,T.bmp,1,n,1022
SelfAssociate,17,25,NULL,female,Friend,T.bmp,1,b,821
SelfAssociate,17,25,NULL,female,Stranger,S.bmp,1,b,966
SelfAssociate,17,25,NULL,female,Stranger,S.bmp,0,m,1097
SelfAssociate,17,25,NULL,female,Friend,T.bmp,1,n,1098
SelfAssociate,17,25,NULL,female,Stranger,S.bmp,1,b,642
SelfAssociate,17,25,NULL,female,Friend,T.bmp,1,n,716
SelfAssociate,17,25,NULL,female,Stranger,S.bmp,0,n,1275
SelfAssociate,17,25,NULL,female,Stranger,S.bmp,1,b,1193
SelfAssociate,17,25,NULL,female,Stranger,S.bmp,1,n,1494
SelfAssociate,17,25,NULL,female,Stranger,S.bmp,1,n,824
SelfAssociate,17,25,NULL,female,Stranger,S.bmp,1,b,857
SelfAssociate,17,25,NULL,female,Stranger,S.bmp,1,n,1340
SelfAssociate,17,25,NULL,female,Stranger,S.bmp,1,m,1043
SelfAssociate,18,26,NULL,female,Stranger,T.bmp,1,n,2329
SelfAssociate,18,26,NULL,female,Self,C.bmp,1,b,1819
SelfAssociate,18,26,NULL,female,Self,C.bmp,0,m,1131
SelfAssociate,18,26,NULL,female,Friend,S.bmp,1,b,1397
SelfAssociate,18,26,NULL,female,Stranger,T.bmp,1,m,1570
SelfAssociate,18,26,NULL,female,Friend,S.bmp,1,n,1268
SelfAssociate,18,26,NULL,female,Friend,S.bmp,1,n,1489
SelfAssociate,18,26,NULL,female,Stranger,T.bmp,1,b,1139
SelfAssociate,18,26,NULL,female,Self,C.bmp,1,b,1162
SelfAssociate,18,26,NULL,female,Friend,S.bmp,1,n,1134
SelfAssociate,18,26,NULL,female,Self,C.bmp,0,b,1407
SelfAssociate,18,26,NULL,female,Stranger,T.bmp,0,m,1123
SelfAssociate,18,26,NULL,female,Self,C.bmp,1,b,1494
SelfAssociate,18,26,NULL,female,Stranger,T.bmp,0,n,1168
SelfAssociate,18,26,NULL,female,Self,C.bmp,1,n,1194
SelfAssociate,18,26,NULL,female,Friend,S.bmp,0,b,1135
SelfAssociate,18,26,NULL,female,Stranger,T.bmp,0,,0
SelfAssociate,18,26,NULL,female,Friend,S.bmp,0,,0
SelfAssociate,18,26,NULL,female,Self,C.bmp,0,n,1230
SelfAssociate,18,26,NULL,female,Stranger,T.bmp,1,n,1070
SelfAssociate,18,26,NULL,female,Friend,S.bmp,0,n,884
SelfAssociate,18,26,NULL,female,Self,C.bmp,0,n,1350
SelfAssociate,18,26,NULL,female,Friend,S.bmp,1,b,886
SelfAssociate,18,26,NULL,female,Stranger,T.bmp,1,m,1028
SelfAssociate,18,26,NULL,female,Self,C.bmp,0,n,809
SelfAssociate,18,26,NULL,female,Stranger,T.bmp,0,m,948
SelfAssociate,18,26,NULL,female,Friend,S.bmp,1,n,847
SelfAssociate,18,26,NULL,female,Self,C.bmp,1,n,980
SelfAssociate,18,26,NULL,female,Stranger,T.bmp,1,m,1125
SelfAssociate,18,26,NULL,female,Friend,S.bmp,1,b,952
SelfAssociate,18,26,NULL,female,Friend,S.bmp,1,m,919
SelfAssociate,18,26,NULL,female,Stranger,T.bmp,1,b,1175
SelfAssociate,18,26,NULL,female,Friend,S.bmp,1,n,1024
SelfAssociate,18,26,NULL,female,Self,C.bmp,0,b,933
SelfAssociate,18,26,NULL,female,Self,C.bmp,0,,0
SelfAssociate,18,26,NULL,female,Stranger,T.bmp,1,m,1406
SelfAssociate,18,26,NULL,female,Friend,S.bmp,0,b,1213
SelfAssociate,18,26,NULL,female,Stranger,T.bmp,1,n,1171
SelfAssociate,18,26,NULL,female,Self,C.bmp,1,b,1213
SelfAssociate,18,26,NULL,female,Friend,S.bmp,1,m,838
SelfAssociate,18,26,NULL,female,Self,C.bmp,0,b,1252
SelfAssociate,18,26,NULL,female,Stranger,T.bmp,1,b,1253
SelfAssociate,18,26,NULL,female,Friend,S.bmp,1,n,719
SelfAssociate,18,26,NULL,female,Stranger,T.bmp,1,m,1052
SelfAssociate,18,26,NULL,female,Stranger,T.bmp,0,m,1302
SelfAssociate,18,26,NULL,female,Self,C.bmp,1,m,1255
SelfAssociate,18,26,NULL,female,Self,C.bmp,0,b,1030
SelfAssociate,18,26,NULL,female,Friend,S.bmp,0,,0
SelfAssociate,18,26,NULL,female,Self,C.bmp,1,m,1254
SelfAssociate,18,26,NULL,female,Friend,S.bmp,1,b,1302
SelfAssociate,18,26,NULL,female,Self,C.bmp,1,n,955
SelfAssociate,18,26,NULL,female,Friend,S.bmp,1,n,970
SelfAssociate,18,26,NULL,female,Stranger,T.bmp,1,m,1030
SelfAssociate,18,26,NULL,female,Stranger,T.bmp,1,b,1177
SelfAssociate,18,26,NULL,female,Stranger,T.bmp,0,b,974
SelfAssociate,18,26,NULL,female,Stranger,T.bmp,1,b,1208
SelfAssociate,18,26,NULL,female,Friend,S.bmp,0,n,1057
SelfAssociate,18,26,NULL,female,Self,C.bmp,0,n,1139
SelfAssociate,18,26,NULL,female,Friend,S.bmp,1,m,1101
SelfAssociate,18,26,NULL,female,Self,C.bmp,1,m,1035
SelfAssociate,18,26,NULL,female,Self,C.bmp,1,m,1089
SelfAssociate,18,26,NULL,female,Self,C.bmp,1,n,1059
SelfAssociate,18,26,NULL,female,Stranger,T.bmp,0,b,1227
SelfAssociate,18,26,NULL,female,Friend,S.bmp,0,b,1112
SelfAssociate,18,26,NULL,female,Stranger,T.bmp,0,,0
SelfAssociate,18,26,NULL,female,Friend,S.bmp,1,n,1334
SelfAssociate,18,26,NULL,female,Friend,S.bmp,1,n,1135
SelfAssociate,18,26,NULL,female,Self,C.bmp,1,m,1086
SelfAssociate,18,26,NULL,female,Stranger,T.bmp,0,b,921
SelfAssociate,18,26,NULL,female,Stranger,T.bmp,1,m,1336
SelfAssociate,18,26,NULL,female,Self,C.bmp,1,b,1494
SelfAssociate,18,26,NULL,female,Friend,S.bmp,1,n,1129
SelfAssociate,18,26,NULL,female,Stranger,T.bmp,1,b,921
SelfAssociate,18,26,NULL,female,Self,C.bmp,1,b,942
SelfAssociate,18,26,NULL,female,Stranger,T.bmp,1,m,776
SelfAssociate,18,26,NULL,female,Friend,S.bmp,1,b,906
SelfAssociate,18,26,NULL,female,Friend,S.bmp,1,b,1171
SelfAssociate,18,26,NULL,female,Self,C.bmp,0,m,1020
SelfAssociate,18,26,NULL,female,Stranger,T.bmp,1,b,1027
SelfAssociate,18,26,NULL,female,Stranger,T.bmp,1,b,1003
SelfAssociate,18,26,NULL,female,Self,C.bmp,1,b,1159
SelfAssociate,18,26,NULL,female,Friend,S.bmp,0,m,1052
SelfAssociate,18,26,NULL,female,Self,C.bmp,1,b,1199
SelfAssociate,18,26,NULL,female,Friend,S.bmp,1,m,1102
SelfAssociate,18,26,NULL,female,Self,C.bmp,0,n,1341
SelfAssociate,18,26,NULL,female,Stranger,T.bmp,1,m,1173
SelfAssociate,18,26,NULL,female,Stranger,T.bmp,1,n,1336
SelfAssociate,18,26,NULL,female,Friend,S.bmp,1,n,1265
SelfAssociate,18,26,NULL,female,Self,C.bmp,1,b,847
SelfAssociate,18,26,NULL,female,Friend,S.bmp,1,n,1206
SelfAssociate,18,26,NULL,female,Self,C.bmp,1,b,999
SelfAssociate,18,26,NULL,female,Stranger,T.bmp,1,m,909
SelfAssociate,18,26,NULL,female,Self,C.bmp,1,n,793
SelfAssociate,18,26,NULL,female,Stranger,T.bmp,1,b,744
SelfAssociate,18,26,NULL,female,Friend,S.bmp,0,m,1049
SelfAssociate,18,26,NULL,female,Friend,S.bmp,1,n,1186
SelfAssociate,18,26,NULL,female,Self,C.bmp,1,n,1628
SelfAssociate,18,26,NULL,female,Stranger,T.bmp,1,m,1607
SelfAssociate,18,26,NULL,female,Friend,S.bmp,1,m,1486
SelfAssociate,18,26,NULL,female,Friend,S.bmp,1,m,1158
SelfAssociate,18,26,NULL,female,Stranger,T.bmp,1,b,1253
SelfAssociate,18,26,NULL,female,Self,C.bmp,1,b,1034
SelfAssociate,18,26,NULL,female,Self,C.bmp,1,b,1104
SelfAssociate,18,26,NULL,female,Friend,S.bmp,1,b,951
SelfAssociate,18,26,NULL,female,Stranger,T.bmp,1,m,1017
SelfAssociate,18,26,NULL,female,Friend,S.bmp,1,b,999
SelfAssociate,18,26,NULL,female,Stranger,T.bmp,1,m,1140
SelfAssociate,18,26,NULL,female,Self,C.bmp,1,n,1091
SelfAssociate,18,26,NULL,female,Self,C.bmp,0,n,847
SelfAssociate,18,26,NULL,female,Friend,S.bmp,0,n,1004
SelfAssociate,18,26,NULL,female,Self,C.bmp,1,m,1566
SelfAssociate,18,26,NULL,female,Friend,S.bmp,1,n,1008
SelfAssociate,18,26,NULL,female,Stranger,T.bmp,0,b,770
SelfAssociate,18,26,NULL,female,Stranger,T.bmp,1,b,901
SelfAssociate,18,26,NULL,female,Self,C.bmp,1,m,941
SelfAssociate,18,26,NULL,female,Friend,S.bmp,1,m,990
SelfAssociate,18,26,NULL,female,Stranger,T.bmp,1,m,829
SelfAssociate,18,26,NULL,female,Self,C.bmp,1,n,724
SelfAssociate,18,26,NULL,female,Stranger,T.bmp,1,m,1084
SelfAssociate,18,26,NULL,female,Friend,S.bmp,1,m,996
SelfAssociate,18,26,NULL,female,Self,C.bmp,1,n,1095
SelfAssociate,18,26,NULL,female,Self,C.bmp,1,n,865
SelfAssociate,18,26,NULL,female,Stranger,T.bmp,1,b,906
SelfAssociate,18,26,NULL,female,Friend,S.bmp,1,m,809
SelfAssociate,18,26,NULL,female,Stranger,T.bmp,1,b,844
SelfAssociate,18,26,NULL,female,Friend,S.bmp,1,n,753
SelfAssociate,18,26,NULL,female,Friend,S.bmp,1,n,791
SelfAssociate,18,26,NULL,female,Stranger,T.bmp,1,b,670
SelfAssociate,18,26,NULL,female,Stranger,T.bmp,1,b,885
SelfAssociate,18,26,NULL,female,Friend,S.bmp,1,m,1201
SelfAssociate,18,26,NULL,female,Self,C.bmp,0,n,1173
SelfAssociate,18,26,NULL,female,Self,C.bmp,1,b,1174
SelfAssociate,18,26,NULL,female,Stranger,T.bmp,1,n,1368
SelfAssociate,18,26,NULL,female,Self,C.bmp,1,b,1099
SelfAssociate,18,26,NULL,female,Friend,S.bmp,1,n,899
SelfAssociate,18,26,NULL,female,Stranger,T.bmp,1,m,944
SelfAssociate,18,26,NULL,female,Self,C.bmp,1,b,934
SelfAssociate,18,26,NULL,female,Friend,S.bmp,1,b,873
SelfAssociate,18,26,NULL,female,Stranger,T.bmp,1,n,768
SelfAssociate,18,26,NULL,female,Self,C.bmp,1,b,837
SelfAssociate,18,26,NULL,female,Friend,S.bmp,1,m,874
SelfAssociate,18,26,NULL,female,Friend,S.bmp,1,m,1609
SelfAssociate,18,26,NULL,female,Stranger,T.bmp,1,n,1170
SelfAssociate,18,26,NULL,female,Self,C.bmp,1,n,1177
SelfAssociate,18,26,NULL,female,Friend,S.bmp,1,b,1125
SelfAssociate,18,26,NULL,female,Friend,S.bmp,1,n,810
SelfAssociate,18,26,NULL,female,Self,C.bmp,1,m,950
SelfAssociate,18,26,NULL,female,Self,C.bmp,1,m,629
SelfAssociate,18,26,NULL,female,Stranger,T.bmp,1,m,972
SelfAssociate,18,26,NULL,female,Stranger,T.bmp,1,n,927
SelfAssociate,18,26,NULL,female,Friend,S.bmp,1,b,829
SelfAssociate,18,26,NULL,female,Stranger,T.bmp,1,n,1024
SelfAssociate,18,26,NULL,female,Self,C.bmp,1,b,832
SelfAssociate,18,26,NULL,female,Stranger,T.bmp,1,m,930
SelfAssociate,18,26,NULL,female,Self,C.bmp,1,m,865
SelfAssociate,18,26,NULL,female,Friend,S.bmp,1,b,724
SelfAssociate,18,26,NULL,female,Self,C.bmp,1,n,775
SelfAssociate,18,26,NULL,female,Stranger,T.bmp,1,n,1049
SelfAssociate,18,26,NULL,female,Friend,S.bmp,0,n,1195
SelfAssociate,18,26,NULL,female,Friend,S.bmp,1,n,855
SelfAssociate,18,26,NULL,female,Stranger,T.bmp,1,n,875
SelfAssociate,18,26,NULL,female,Self,C.bmp,1,m,860
SelfAssociate,18,26,NULL,female,Friend,S.bmp,1,b,839
SelfAssociate,18,26,NULL,female,Stranger,T.bmp,1,b,1007
SelfAssociate,18,26,NULL,female,Stranger,T.bmp,1,b,717
SelfAssociate,18,26,NULL,female,Friend,S.bmp,1,n,675
SelfAssociate,18,26,NULL,female,Self,C.bmp,1,m,705
SelfAssociate,18,26,NULL,female,Self,C.bmp,1,n,722
SelfAssociate,18,26,NULL,female,Stranger,T.bmp,1,m,881
SelfAssociate,18,26,NULL,female,Friend,S.bmp,1,m,793
SelfAssociate,18,26,NULL,female,Stranger,T.bmp,1,m,1120
SelfAssociate,18,26,NULL,female,Self,C.bmp,1,m,1109
SelfAssociate,18,26,NULL,female,Self,C.bmp,1,n,827
SelfAssociate,18,26,NULL,female,Friend,S.bmp,1,n,672
SelfAssociate,18,26,NULL,female,Self,C.bmp,1,n,630
SelfAssociate,18,26,NULL,female,Friend,S.bmp,1,b,757
SelfAssociate,18,26,NULL,female,Stranger,T.bmp,0,m,841
SelfAssociate,18,26,NULL,female,Friend,S.bmp,1,m,1096
SelfAssociate,18,26,NULL,female,Stranger,T.bmp,0,b,1126
SelfAssociate,18,26,NULL,female,Self,C.bmp,1,m,1093
SelfAssociate,18,26,NULL,female,Self,C.bmp,1,m,918
SelfAssociate,18,26,NULL,female,Friend,S.bmp,1,n,765
SelfAssociate,18,26,NULL,female,Stranger,T.bmp,1,b,904
SelfAssociate,18,26,NULL,female,Stranger,T.bmp,1,b,724
SelfAssociate,18,26,NULL,female,Self,C.bmp,1,n,653
SelfAssociate,18,26,NULL,female,Friend,S.bmp,1,n,728
SelfAssociate,18,26,NULL,female,Friend,S.bmp,1,n,634
SelfAssociate,18,26,NULL,female,Friend,S.bmp,1,n,590
SelfAssociate,18,26,NULL,female,Self,C.bmp,1,n,737
SelfAssociate,18,26,NULL,female,Stranger,T.bmp,1,b,867
SelfAssociate,18,26,NULL,female,Stranger,T.bmp,1,n,1028
SelfAssociate,18,26,NULL,female,Self,C.bmp,1,n,953
SelfAssociate,18,26,NULL,female,Self,C.bmp,1,b,970
SelfAssociate,18,26,NULL,female,Friend,S.bmp,1,n,651
SelfAssociate,18,26,NULL,female,Stranger,T.bmp,1,b,1010
SelfAssociate,18,26,NULL,female,Friend,S.bmp,1,b,1107
SelfAssociate,18,26,NULL,female,Stranger,T.bmp,1,m,1067
SelfAssociate,18,26,NULL,female,Self,C.bmp,1,b,669
SelfAssociate,18,26,NULL,female,Friend,S.bmp,1,n,646
SelfAssociate,18,26,NULL,female,Friend,S.bmp,1,m,735
SelfAssociate,18,26,NULL,female,Self,C.bmp,1,b,674
SelfAssociate,18,26,NULL,female,Self,C.bmp,1,n,768
SelfAssociate,18,26,NULL,female,Self,C.bmp,1,m,957
SelfAssociate,18,26,NULL,female,Friend,S.bmp,1,m,764
SelfAssociate,18,26,NULL,female,Self,C.bmp,1,m,664
SelfAssociate,18,26,NULL,female,Friend,S.bmp,1,n,697
SelfAssociate,18,26,NULL,female,Friend,S.bmp,1,m,671
SelfAssociate,18,26,NULL,female,Friend,S.bmp,1,m,730
SelfAssociate,18,26,NULL,female,Self,C.bmp,1,b,678
SelfAssociate,18,26,NULL,female,Self,C.bmp,1,m,840
SelfAssociate,19,21,NULL,female,Stranger,C.bmp,1,m,1153
SelfAssociate,19,21,NULL,female,Self,T.bmp,1,b,1158
SelfAssociate,19,21,NULL,female,Stranger,C.bmp,0,n,770
SelfAssociate,19,21,NULL,female,Friend,S.bmp,0,,0
SelfAssociate,19,21,NULL,female,Self,T.bmp,0,m,1281
SelfAssociate,19,21,NULL,female,Friend,S.bmp,1,b,901
SelfAssociate,19,21,NULL,female,Stranger,C.bmp,0,m,1110
SelfAssociate,19,21,NULL,female,Friend,S.bmp,1,n,1171
SelfAssociate,19,21,NULL,female,Self,T.bmp,0,m,885
SelfAssociate,19,21,NULL,female,Friend,S.bmp,0,b,1386
SelfAssociate,19,21,NULL,female,Self,T.bmp,1,m,1033
SelfAssociate,19,21,NULL,female,Stranger,C.bmp,0,b,1223
SelfAssociate,19,21,NULL,female,Self,T.bmp,1,b,934
SelfAssociate,19,21,NULL,female,Friend,S.bmp,0,n,825
SelfAssociate,19,21,NULL,female,Stranger,C.bmp,0,b,1162
SelfAssociate,19,21,NULL,female,Stranger,C.bmp,0,n,1222
SelfAssociate,19,21,NULL,female,Self,T.bmp,0,b,933
SelfAssociate,19,21,NULL,female,Friend,S.bmp,1,n,1175
SelfAssociate,19,21,NULL,female,Self,T.bmp,1,b,1065
SelfAssociate,19,21,NULL,female,Stranger,C.bmp,0,m,536
SelfAssociate,19,21,NULL,female,Stranger,C.bmp,0,,0
SelfAssociate,19,21,NULL,female,Friend,S.bmp,1,b,1230
SelfAssociate,19,21,NULL,female,Self,T.bmp,1,b,1155
SelfAssociate,19,21,NULL,female,Friend,S.bmp,0,n,1161
SelfAssociate,19,21,NULL,female,Self,T.bmp,0,b,1396
SelfAssociate,19,21,NULL,female,Friend,S.bmp,1,b,1418
SelfAssociate,19,21,NULL,female,Friend,S.bmp,0,b,1217
SelfAssociate,19,21,NULL,female,Stranger,C.bmp,0,,0
SelfAssociate,19,21,NULL,female,Self,T.bmp,1,n,1192
SelfAssociate,19,21,NULL,female,Stranger,C.bmp,0,,0
SelfAssociate,19,21,NULL,female,Self,T.bmp,1,b,754
SelfAssociate,19,21,NULL,female,Friend,S.bmp,1,n,953
SelfAssociate,19,21,NULL,female,Friend,S.bmp,1,m,1095
SelfAssociate,19,21,NULL,female,Stranger,C.bmp,0,n,1176
SelfAssociate,19,21,NULL,female,Stranger,C.bmp,0,,0
SelfAssociate,19,21,NULL,female,Self,T.bmp,1,m,1174
SelfAssociate,19,21,NULL,female,Self,T.bmp,0,,0
SelfAssociate,19,21,NULL,female,Friend,S.bmp,0,,0
SelfAssociate,19,21,NULL,female,Stranger,C.bmp,0,b,645
SelfAssociate,19,21,NULL,female,Stranger,C.bmp,0,m,1338
SelfAssociate,19,21,NULL,female,Self,T.bmp,1,b,929
SelfAssociate,19,21,NULL,female,Friend,S.bmp,0,m,932
SelfAssociate,19,21,NULL,female,Self,T.bmp,0,,0
SelfAssociate,19,21,NULL,female,Stranger,C.bmp,0,n,1246
SelfAssociate,19,21,NULL,female,Friend,S.bmp,0,,0
SelfAssociate,19,21,NULL,female,Self,T.bmp,1,b,689
SelfAssociate,19,21,NULL,female,Friend,S.bmp,0,,0
SelfAssociate,19,21,NULL,female,Stranger,C.bmp,0,m,1259
SelfAssociate,19,21,NULL,female,Stranger,C.bmp,0,,0
SelfAssociate,19,21,NULL,female,Friend,S.bmp,0,,0
SelfAssociate,19,21,NULL,female,Self,T.bmp,0,b,895
SelfAssociate,19,21,NULL,female,Self,T.bmp,0,b,746
SelfAssociate,19,21,NULL,female,Friend,S.bmp,0,n,1243
SelfAssociate,19,21,NULL,female,Stranger,C.bmp,0,m,1223
SelfAssociate,19,21,NULL,female,Friend,S.bmp,0,,0
SelfAssociate,19,21,NULL,female,Self,T.bmp,1,b,717
SelfAssociate,19,21,NULL,female,Friend,S.bmp,0,n,956
SelfAssociate,19,21,NULL,female,Stranger,C.bmp,1,m,1161
SelfAssociate,19,21,NULL,female,Stranger,C.bmp,0,,0
SelfAssociate,19,21,NULL,female,Self,T.bmp,1,n,988
SelfAssociate,19,21,NULL,female,Self,T.bmp,1,m,913
SelfAssociate,19,21,NULL,female,Friend,S.bmp,0,b,1272
SelfAssociate,19,21,NULL,female,Self,T.bmp,1,n,1094
SelfAssociate,19,21,NULL,female,Stranger,C.bmp,1,m,1223
SelfAssociate,19,21,NULL,female,Friend,S.bmp,1,b,1398
SelfAssociate,19,21,NULL,female,Stranger,C.bmp,1,b,1298
SelfAssociate,19,21,NULL,female,Stranger,C.bmp,0,m,994
SelfAssociate,19,21,NULL,female,Friend,S.bmp,1,b,1111
SelfAssociate,19,21,NULL,female,Friend,S.bmp,0,b,1220
SelfAssociate,19,21,NULL,female,Stranger,C.bmp,0,n,868
SelfAssociate,19,21,NULL,female,Self,T.bmp,1,b,1170
SelfAssociate,19,21,NULL,female,Self,T.bmp,1,m,819
SelfAssociate,19,21,NULL,female,Friend,S.bmp,0,b,868
SelfAssociate,19,21,NULL,female,Friend,S.bmp,1,m,979
SelfAssociate,19,21,NULL,female,Stranger,C.bmp,1,b,1106
SelfAssociate,19,21,NULL,female,Stranger,C.bmp,1,m,1562
SelfAssociate,19,21,NULL,female,Friend,S.bmp,1,m,1158
SelfAssociate,19,21,NULL,female,Stranger,C.bmp,1,b,1297
SelfAssociate,19,21,NULL,female,Friend,S.bmp,0,b,1259
SelfAssociate,19,21,NULL,female,Stranger,C.bmp,0,,0
SelfAssociate,19,21,NULL,female,Friend,S.bmp,1,b,1401
SelfAssociate,19,21,NULL,female,Stranger,C.bmp,0,m,1205
SelfAssociate,19,21,NULL,female,Friend,S.bmp,1,b,1112
SelfAssociate,19,21,NULL,female,Stranger,C.bmp,1,n,998
SelfAssociate,19,21,NULL,female,Friend,S.bmp,1,m,1137
SelfAssociate,19,21,NULL,female,Friend,S.bmp,1,b,795
SelfAssociate,19,21,NULL,female,Stranger,C.bmp,1,b,1225
SelfAssociate,19,21,NULL,female,Stranger,C.bmp,0,m,1209
SelfAssociate,19,21,NULL,female,Stranger,C.bmp,1,n,930
SelfAssociate,19,21,NULL,female,Friend,S.bmp,0,b,1204
SelfAssociate,19,21,NULL,female,Friend,S.bmp,1,m,760
SelfAssociate,19,21,NULL,female,Stranger,C.bmp,1,n,1029
SelfAssociate,19,21,NULL,female,Stranger,C.bmp,0,b,930
SelfAssociate,19,21,NULL,female,Stranger,C.bmp,0,,0
SelfAssociate,19,21,NULL,female,Friend,S.bmp,1,b,1180
SelfAssociate,19,21,NULL,female,Friend,S.bmp,1,b,756
SelfAssociate,19,21,NULL,female,Stranger,C.bmp,1,m,1146
SelfAssociate,19,21,NULL,female,Stranger,C.bmp,1,n,1082
SelfAssociate,19,21,NULL,female,Friend,S.bmp,1,b,853
SelfAssociate,19,21,NULL,female,Friend,S.bmp,1,n,1032
SelfAssociate,19,21,NULL,female,Stranger,C.bmp,1,m,1125
SelfAssociate,19,21,NULL,female,Stranger,C.bmp,1,m,1017
SelfAssociate,19,21,NULL,female,Friend,S.bmp,1,m,1242
SelfAssociate,19,21,NULL,female,Friend,S.bmp,1,n,870
SelfAssociate,19,21,NULL,female,Stranger,C.bmp,1,m,1275
SelfAssociate,19,21,NULL,female,Friend,S.bmp,0,n,1224
SelfAssociate,19,21,NULL,female,Stranger,C.bmp,0,,0
SelfAssociate,19,21,NULL,female,Friend,S.bmp,1,b,1135
SelfAssociate,19,21,NULL,female,Stranger,C.bmp,1,n,855
SelfAssociate,19,21,NULL,female,Friend,S.bmp,0,n,874
SelfAssociate,19,21,NULL,female,Friend,S.bmp,1,m,1097
SelfAssociate,19,21,NULL,female,Stranger,C.bmp,1,n,778
SelfAssociate,19,21,NULL,female,Stranger,C.bmp,0,b,979
SelfAssociate,19,21,NULL,female,Friend,S.bmp,0,b,1315
SelfAssociate,19,21,NULL,female,Friend,S.bmp,1,m,872
SelfAssociate,19,21,NULL,female,Stranger,C.bmp,1,m,1591
SelfAssociate,19,21,NULL,female,Friend,S.bmp,1,m,1237
SelfAssociate,19,21,NULL,female,Stranger,C.bmp,1,m,1146
SelfAssociate,19,21,NULL,female,Stranger,C.bmp,1,n,1162
SelfAssociate,19,21,NULL,female,Friend,S.bmp,1,m,901
SelfAssociate,19,21,NULL,female,Friend,S.bmp,1,m,1030
SelfAssociate,19,21,NULL,female,Stranger,C.bmp,1,n,676
SelfAssociate,19,21,NULL,female,Friend,S.bmp,1,m,874
SelfAssociate,19,21,NULL,female,Stranger,C.bmp,0,n,1305
SelfAssociate,19,21,NULL,female,Friend,S.bmp,1,b,1049
SelfAssociate,19,21,NULL,female,Stranger,C.bmp,0,n,1026
SelfAssociate,19,21,NULL,female,Stranger,C.bmp,1,b,954
SelfAssociate,19,21,NULL,female,Friend,S.bmp,1,m,1030
SelfAssociate,19,21,NULL,female,Friend,S.bmp,1,b,1203
SelfAssociate,19,21,NULL,female,Friend,S.bmp,1,n,679
SelfAssociate,19,21,NULL,female,Stranger,C.bmp,1,n,1027
SelfAssociate,19,21,NULL,female,Stranger,C.bmp,0,b,769
SelfAssociate,19,21,NULL,female,Friend,S.bmp,0,n,730
SelfAssociate,19,21,NULL,female,Stranger,C.bmp,0,,0
SelfAssociate,19,21,NULL,female,Stranger,C.bmp,1,m,1448
SelfAssociate,19,21,NULL,female,Friend,S.bmp,1,m,913
SelfAssociate,19,21,NULL,female,Stranger,C.bmp,1,m,1176
SelfAssociate,19,21,NULL,female,Stranger,C.bmp,1,b,810
SelfAssociate,19,21,NULL,female,Friend,S.bmp,1,n,779
SelfAssociate,19,21,NULL,female,Friend,S.bmp,1,n,675
SelfAssociate,19,21,NULL,female,Stranger,C.bmp,1,b,858
SelfAssociate,19,21,NULL,female,Stranger,C.bmp,1,b,1053
SelfAssociate,19,21,NULL,female,Friend,S.bmp,1,n,694
SelfAssociate,19,21,NULL,female,Friend,S.bmp,1,n,632
SelfAssociate,19,21,NULL,female,Stranger,C.bmp,1,b,775
SelfAssociate,19,21,NULL,female,Friend,S.bmp,1,n,634
SelfAssociate,19,21,NULL,female,Friend,S.bmp,1,n,1375
SelfAssociate,19,21,NULL,female,Stranger,C.bmp,1,n,1176
SelfAssociate,19,21,NULL,female,Friend,S.bmp,0,b,858
SelfAssociate,19,21,NULL,female,Friend,S.bmp,1,n,691
SelfAssociate,19,21,NULL,female,Stranger,C.bmp,0,b,1605
SelfAssociate,19,21,NULL,female,Stranger,C.bmp,1,n,1193
SelfAssociate,19,21,NULL,female,Friend,S.bmp,1,n,855
SelfAssociate,19,21,NULL,female,Stranger,C.bmp,0,b,1280
SelfAssociate,19,21,NULL,female,Friend,S.bmp,1,b,1187
SelfAssociate,19,21,NULL,female,Stranger,C.bmp,1,m,763
SelfAssociate,19,21,NULL,female,Stranger,C.bmp,1,b,1063
SelfAssociate,19,21,NULL,female,Friend,S.bmp,1,m,887
SelfAssociate,19,21,NULL,female,Stranger,C.bmp,1,m,1164
SelfAssociate,19,21,NULL,female,Friend,S.bmp,1,n,599
SelfAssociate,19,21,NULL,female,Friend,S.bmp,0,b,1171
SelfAssociate,19,21,NULL,female,Friend,S.bmp,1,m,1124
SelfAssociate,19,21,NULL,female,Stranger,C.bmp,1,m,856
SelfAssociate,19,21,NULL,female,Stranger,C.bmp,0,b,779
SelfAssociate,19,21,NULL,female,Friend,S.bmp,1,n,1130
SelfAssociate,19,21,NULL,female,Friend,S.bmp,1,m,739
SelfAssociate,19,21,NULL,female,Stranger,C.bmp,1,n,788
SelfAssociate,19,21,NULL,female,Stranger,C.bmp,1,m,1075
SelfAssociate,19,21,NULL,female,Stranger,C.bmp,0,b,728
SelfAssociate,19,21,NULL,female,Stranger,C.bmp,1,n,1155
SelfAssociate,19,21,NULL,female,Friend,S.bmp,1,m,1272
SelfAssociate,19,21,NULL,female,Friend,S.bmp,1,b,1334
SelfAssociate,19,21,NULL,female,Stranger,C.bmp,0,m,871
SelfAssociate,19,21,NULL,female,Friend,S.bmp,1,n,1638
SelfAssociate,19,21,NULL,female,Stranger,C.bmp,1,m,1202
SelfAssociate,19,21,NULL,female,Friend,S.bmp,1,m,1243
SelfAssociate,19,21,NULL,female,Stranger,C.bmp,1,n,1121
SelfAssociate,19,21,NULL,female,Friend,S.bmp,1,m,1317
SelfAssociate,19,21,NULL,female,Friend,S.bmp,0,m,1466
SelfAssociate,19,21,NULL,female,Stranger,C.bmp,0,b,1354
SelfAssociate,19,21,NULL,female,Friend,S.bmp,1,m,807
SelfAssociate,19,21,NULL,female,Friend,S.bmp,0,m,753
SelfAssociate,19,21,NULL,female,Stranger,C.bmp,1,b,1016
SelfAssociate,19,21,NULL,female,Stranger,C.bmp,1,n,682
SelfAssociate,19,21,NULL,female,Stranger,C.bmp,1,b,1158
SelfAssociate,19,21,NULL,female,Stranger,C.bmp,1,m,738
SelfAssociate,19,21,NULL,female,Friend,S.bmp,1,m,1385
SelfAssociate,19,21,NULL,female,Friend,S.bmp,1,m,1000
SelfAssociate,19,21,NULL,female,Friend,S.bmp,1,b,1204
SelfAssociate,19,21,NULL,female,Stranger,C.bmp,1,m,903
SelfAssociate,19,21,NULL,female,Stranger,C.bmp,1,m,1177
SelfAssociate,19,21,NULL,female,Friend,S.bmp,1,n,618
SelfAssociate,19,21,NULL,female,Friend,S.bmp,1,b,1004
SelfAssociate,19,21,NULL,female,Friend,S.bmp,1,m,616
SelfAssociate,19,21,NULL,female,Friend,S.bmp,1,b,843
SelfAssociate,19,21,NULL,female,Friend,S.bmp,1,m,823
SelfAssociate,19,21,NULL,female,Friend,S.bmp,1,b,904
SelfAssociate,19,21,NULL,female,Friend,S.bmp,1,n,808
SelfAssociate,20,22,NULL,female,Self,T.bmp,1,b,778
SelfAssociate,20,22,NULL,female,Stranger,S.bmp,1,b,1412
SelfAssociate,20,22,NULL,female,Self,T.bmp,1,m,1446
SelfAssociate,20,22,NULL,female,Stranger,S.bmp,0,n,1097
SelfAssociate,20,22,NULL,female,Friend,C.bmp,1,n,1307
SelfAssociate,20,22,NULL,female,Friend,C.bmp,1,b,2060
SelfAssociate,20,22,NULL,female,Stranger,S.bmp,1,b,972
SelfAssociate,20,22,NULL,female,Self,T.bmp,1,b,741
SelfAssociate,20,22,NULL,female,Friend,C.bmp,1,b,838
SelfAssociate,20,22,NULL,female,Stranger,S.bmp,1,b,989
SelfAssociate,20,22,NULL,female,Self,T.bmp,1,n,829
SelfAssociate,20,22,NULL,female,Friend,C.bmp,1,b,748
SelfAssociate,20,22,NULL,female,Friend,C.bmp,0,n,1191
SelfAssociate,20,22,NULL,female,Self,T.bmp,0,n,1026
SelfAssociate,20,22,NULL,female,Stranger,S.bmp,1,m,1073
SelfAssociate,20,22,NULL,female,Friend,C.bmp,1,b,1335
SelfAssociate,20,22,NULL,female,Self,T.bmp,1,b,634
SelfAssociate,20,22,NULL,female,Stranger,S.bmp,0,m,734
SelfAssociate,20,22,NULL,female,Friend,C.bmp,1,b,777
SelfAssociate,20,22,NULL,female,Friend,C.bmp,1,n,1212
SelfAssociate,20,22,NULL,female,Self,T.bmp,1,b,608
SelfAssociate,20,22,NULL,female,Stranger,S.bmp,1,b,690
SelfAssociate,20,22,NULL,female,Stranger,S.bmp,0,m,1183
SelfAssociate,20,22,NULL,female,Self,T.bmp,0,n,1227
SelfAssociate,20,22,NULL,female,Self,T.bmp,1,b,1236
SelfAssociate,20,22,NULL,female,Self,T.bmp,1,m,1254
SelfAssociate,20,22,NULL,female,Friend,C.bmp,1,b,704
SelfAssociate,20,22,NULL,female,Friend,C.bmp,1,m,1200
SelfAssociate,20,22,NULL,female,Stranger,S.bmp,1,n,812
SelfAssociate,20,22,NULL,female,Stranger,S.bmp,0,n,1167
SelfAssociate,20,22,NULL,female,Stranger,S.bmp,1,b,785
SelfAssociate,20,22,NULL,female,Friend,C.bmp,1,b,826
SelfAssociate,20,22,NULL,female,Self,T.bmp,1,m,1095
SelfAssociate,20,22,NULL,female,Stranger,S.bmp,1,b,728
SelfAssociate,20,22,NULL,female,Self,T.bmp,1,m,990
SelfAssociate,20,22,NULL,female,Friend,C.bmp,1,b,930
SelfAssociate,20,22,NULL,female,Stranger,S.bmp,1,m,957
SelfAssociate,20,22,NULL,female,Friend,C.bmp,1,b,724
SelfAssociate,20,22,NULL,female,Stranger,S.bmp,1,b,1004
SelfAssociate,20,22,NULL,female,Self,T.bmp,1,n,857
SelfAssociate,20,22,NULL,female,Friend,C.bmp,1,m,1221
SelfAssociate,20,22,NULL,female,Self,T.bmp,1,n,817
SelfAssociate,20,22,NULL,female,Stranger,S.bmp,1,m,699
SelfAssociate,20,22,NULL,female,Friend,C.bmp,1,m,1011
SelfAssociate,20,22,NULL,female,Friend,C.bmp,0,m,973
SelfAssociate,20,22,NULL,female,Stranger,S.bmp,1,m,1111
SelfAssociate,20,22,NULL,female,Stranger,S.bmp,1,m,797
SelfAssociate,20,22,NULL,female,Friend,C.bmp,1,m,1068
SelfAssociate,20,22,NULL,female,Stranger,S.bmp,1,m,992
SelfAssociate,20,22,NULL,female,Friend,C.bmp,1,m,1167
SelfAssociate,20,22,NULL,female,Stranger,S.bmp,1,n,1085
SelfAssociate,20,22,NULL,female,Stranger,S.bmp,1,b,1066
SelfAssociate,20,22,NULL,female,Friend,C.bmp,1,b,1362
SelfAssociate,20,22,NULL,female,Friend,C.bmp,0,,0
SelfAssociate,20,22,NULL,female,Friend,C.bmp,1,n,1666
SelfAssociate,20,22,NULL,female,Friend,C.bmp,1,m,1279
SelfAssociate,20,22,NULL,female,Friend,C.bmp,1,n,1303
SelfAssociate,20,22,NULL,female,Friend,C.bmp,0,n,1147
SelfAssociate,20,22,NULL,female,Friend,C.bmp,1,b,1206
SelfAssociate,20,22,NULL,female,Friend,C.bmp,1,m,1215
SelfAssociate,20,22,NULL,female,Friend,C.bmp,0,m,987
SelfAssociate,20,22,NULL,female,Friend,C.bmp,1,m,1109
SelfAssociate,20,22,NULL,female,Friend,C.bmp,1,n,1200
SelfAssociate,20,22,NULL,female,Friend,C.bmp,1,m,1192
SelfAssociate,20,22,NULL,female,Friend,C.bmp,1,b,753
SelfAssociate,20,22,NULL,female,Friend,C.bmp,1,b,600
SelfAssociate,20,22,NULL,female,Friend,C.bmp,1,n,764
SelfAssociate,21,25,NULL,female,Self,S.bmp,1,b,1504
SelfAssociate,21,25,NULL,female,Stranger,C.bmp,0,,0
SelfAssociate,21,25,NULL,female,Stranger,C.bmp,0,,0
SelfAssociate,21,25,NULL,female,Friend,T.bmp,0,b,965
SelfAssociate,21,25,NULL,female,Self,S.bmp,0,,0
SelfAssociate,21,25,NULL,female,Friend,T.bmp,0,,0
SelfAssociate,21,25,NULL,female,Stranger,C.bmp,0,,0
SelfAssociate,21,25,NULL,female,Friend,T.bmp,1,m,1765
SelfAssociate,21,25,NULL,female,Stranger,C.bmp,1,b,2875
SelfAssociate,21,25,NULL,female,Self,S.bmp,0,,0
SelfAssociate,21,25,NULL,female,Self,S.bmp,0,,0
SelfAssociate,21,25,NULL,female,Friend,T.bmp,1,n,1227
SelfAssociate,21,25,NULL,female,Self,S.bmp,1,b,2414
SelfAssociate,21,25,NULL,female,Friend,T.bmp,1,m,1373
SelfAssociate,21,25,NULL,female,Stranger,C.bmp,0,n,2385
SelfAssociate,21,25,NULL,female,Self,S.bmp,0,n,2643
SelfAssociate,21,25,NULL,female,Friend,T.bmp,1,n,1394
SelfAssociate,21,25,NULL,female,Stranger,C.bmp,1,b,2577
SelfAssociate,21,25,NULL,female,Stranger,C.bmp,0,m,2330
SelfAssociate,21,25,NULL,female,Self,S.bmp,1,b,1835
SelfAssociate,21,25,NULL,female,Stranger,C.bmp,1,m,1579
SelfAssociate,21,25,NULL,female,Self,S.bmp,1,m,1468
SelfAssociate,21,25,NULL,female,Friend,T.bmp,1,n,836
SelfAssociate,21,25,NULL,female,Friend,T.bmp,1,b,2411
SelfAssociate,21,25,NULL,female,Stranger,C.bmp,1,b,2298
SelfAssociate,21,25,NULL,female,Self,S.bmp,1,m,1294
SelfAssociate,21,25,NULL,female,Stranger,C.bmp,0,n,1930
SelfAssociate,21,25,NULL,female,Self,S.bmp,1,b,1835
SelfAssociate,21,25,NULL,female,Stranger,C.bmp,1,m,1338
SelfAssociate,21,25,NULL,female,Self,S.bmp,1,m,1043
SelfAssociate,21,25,NULL,female,Self,S.bmp,1,n,1170
SelfAssociate,21,25,NULL,female,Stranger,C.bmp,1,m,1536
SelfAssociate,21,25,NULL,female,Stranger,C.bmp,1,n,1953
SelfAssociate,21,25,NULL,female,Stranger,C.bmp,1,b,954
SelfAssociate,21,25,NULL,female,Self,S.bmp,1,b,924
SelfAssociate,21,25,NULL,female,Self,S.bmp,1,b,1217
SelfAssociate,21,25,NULL,female,Stranger,C.bmp,1,m,2303
SelfAssociate,21,25,NULL,female,Stranger,C.bmp,1,m,1252
SelfAssociate,21,25,NULL,female,Stranger,C.bmp,1,m,831
SelfAssociate,21,25,NULL,female,Stranger,C.bmp,1,n,1442
SelfAssociate,21,25,NULL,female,Stranger,C.bmp,1,b,945
SelfAssociate,21,25,NULL,female,Stranger,C.bmp,1,n,1390
SelfAssociate,22,25,NULL,female,Self,S.bmp,1,m,1194
SelfAssociate,22,25,NULL,female,Stranger,T.bmp,1,b,1000
SelfAssociate,22,25,NULL,female,Self,S.bmp,0,n,1163
SelfAssociate,22,25,NULL,female,Friend,C.bmp,0,m,846
SelfAssociate,22,25,NULL,female,Friend,C.bmp,0,b,731
SelfAssociate,22,25,NULL,female,Stranger,T.bmp,1,n,854
SelfAssociate,22,25,NULL,female,Self,S.bmp,1,b,856
SelfAssociate,22,25,NULL,female,Friend,C.bmp,1,m,987
SelfAssociate,22,25,NULL,female,Stranger,T.bmp,1,b,732
SelfAssociate,22,25,NULL,female,Friend,C.bmp,0,n,719
SelfAssociate,22,25,NULL,female,Self,S.bmp,1,b,779
SelfAssociate,22,25,NULL,female,Stranger,T.bmp,1,b,748
SelfAssociate,22,25,NULL,female,Self,S.bmp,1,b,613
SelfAssociate,22,25,NULL,female,Friend,C.bmp,0,,0
SelfAssociate,22,25,NULL,female,Friend,C.bmp,0,m,998
SelfAssociate,22,25,NULL,female,Stranger,T.bmp,1,n,849
SelfAssociate,22,25,NULL,female,Self,S.bmp,0,b,860
SelfAssociate,22,25,NULL,female,Stranger,T.bmp,0,b,797
SelfAssociate,22,25,NULL,female,Stranger,T.bmp,1,b,948
SelfAssociate,22,25,NULL,female,Self,S.bmp,1,m,1052
SelfAssociate,22,25,NULL,female,Friend,C.bmp,0,n,846
SelfAssociate,22,25,NULL,female,Stranger,T.bmp,0,b,762
SelfAssociate,22,25,NULL,female,Self,S.bmp,1,b,711
SelfAssociate,22,25,NULL,female,Friend,C.bmp,1,n,1110
SelfAssociate,22,25,NULL,female,Stranger,T.bmp,1,b,779
SelfAssociate,22,25,NULL,female,Self,S.bmp,1,n,628
SelfAssociate,22,25,NULL,female,Friend,C.bmp,1,n,803
SelfAssociate,22,25,NULL,female,Friend,C.bmp,1,b,832
SelfAssociate,22,25,NULL,female,Stranger,T.bmp,1,b,895
SelfAssociate,22,25,NULL,female,Self,S.bmp,0,b,826
SelfAssociate,22,25,NULL,female,Stranger,T.bmp,0,b,778
SelfAssociate,22,25,NULL,female,Stranger,T.bmp,0,n,715
SelfAssociate,22,25,NULL,female,Friend,C.bmp,0,n,1018
SelfAssociate,22,25,NULL,female,Self,S.bmp,1,b,683
SelfAssociate,22,25,NULL,female,Friend,C.bmp,1,n,991
SelfAssociate,22,25,NULL,female,Self,S.bmp,1,m,774
SelfAssociate,22,25,NULL,female,Friend,C.bmp,0,n,1065
SelfAssociate,22,25,NULL,female,Stranger,T.bmp,0,b,624
SelfAssociate,22,25,NULL,female,Stranger,T.bmp,1,b,761
SelfAssociate,22,25,NULL,female,Self,S.bmp,1,b,869
SelfAssociate,22,25,NULL,female,Self,S.bmp,1,n,812
SelfAssociate,22,25,NULL,female,Friend,C.bmp,1,b,663
SelfAssociate,22,25,NULL,female,Stranger,T.bmp,1,b,872
SelfAssociate,22,25,NULL,female,Self,S.bmp,1,n,950
SelfAssociate,22,25,NULL,female,Friend,C.bmp,1,m,1182
SelfAssociate,22,25,NULL,female,Self,S.bmp,1,b,645
SelfAssociate,22,25,NULL,female,Friend,C.bmp,1,n,761
SelfAssociate,22,25,NULL,female,Stranger,T.bmp,1,b,902
SelfAssociate,22,25,NULL,female,Stranger,T.bmp,1,n,967
SelfAssociate,22,25,NULL,female,Friend,C.bmp,1,n,715
SelfAssociate,22,25,NULL,female,Friend,C.bmp,1,m,810
SelfAssociate,22,25,NULL,female,Stranger,T.bmp,1,n,821
SelfAssociate,22,25,NULL,female,Stranger,T.bmp,1,b,774
SelfAssociate,22,25,NULL,female,Friend,C.bmp,1,n,856
SelfAssociate,22,25,NULL,female,Friend,C.bmp,0,m,819
SelfAssociate,22,25,NULL,female,Stranger,T.bmp,1,b,636
SelfAssociate,22,25,NULL,female,Stranger,T.bmp,0,b,626
SelfAssociate,22,25,NULL,female,Stranger,T.bmp,0,b,1035
SelfAssociate,22,25,NULL,female,Friend,C.bmp,1,n,760
SelfAssociate,22,25,NULL,female,Friend,C.bmp,1,m,853
SelfAssociate,22,25,NULL,female,Stranger,T.bmp,1,b,671
SelfAssociate,22,25,NULL,female,Stranger,T.bmp,1,m,798
SelfAssociate,22,25,NULL,female,Friend,C.bmp,1,b,756
SelfAssociate,22,25,NULL,female,Friend,C.bmp,1,b,581
SelfAssociate,22,25,NULL,female,Friend,C.bmp,1,n,747
SelfAssociate,22,25,NULL,female,Stranger,T.bmp,1,m,1044
SelfAssociate,22,25,NULL,female,Stranger,T.bmp,0,b,871
SelfAssociate,22,25,NULL,female,Friend,C.bmp,1,n,895
SelfAssociate,22,25,NULL,female,Stranger,T.bmp,1,m,880
SelfAssociate,22,25,NULL,female,Stranger,T.bmp,1,m,949
SelfAssociate,22,25,NULL,female,Stranger,T.bmp,1,n,1020
SelfAssociate,22,25,NULL,female,Stranger,T.bmp,1,m,915
SelfAssociate,22,25,NULL,female,Stranger,T.bmp,1,n,738
SelfAssociate,22,25,NULL,female,Stranger,T.bmp,1,n,581
SelfAssociate,3,21,right,male,Friend,T.bmp,0,m,974
SelfAssociate,3,21,right,male,Self,S.bmp,0,,0
SelfAssociate,3,21,right,male,Stranger,C.bmp,0,m,1438
SelfAssociate,3,21,right,male,Stranger,C.bmp,1,m,1113
SelfAssociate,3,21,right,male,Friend,T.bmp,1,m,1847
SelfAssociate,3,21,right,male,Self,S.bmp,1,n,1019
SelfAssociate,3,21,right,male,Self,S.bmp,1,n,690
SelfAssociate,3,21,right,male,Stranger,C.bmp,1,m,1010
SelfAssociate,3,21,right,male,Friend,T.bmp,1,b,820
SelfAssociate,3,21,right,male,Self,S.bmp,1,n,691
SelfAssociate,3,21,right,male,Stranger,C.bmp,1,m,1053
SelfAssociate,3,21,right,male,Friend,T.bmp,1,m,1598
SelfAssociate,3,21,right,male,Friend,T.bmp,0,m,1586
SelfAssociate,3,21,right,male,Self,S.bmp,1,n,890
SelfAssociate,3,21,right,male,Self,S.bmp,0,m,1173
SelfAssociate,3,21,right,male,Friend,T.bmp,0,,0
SelfAssociate,3,21,right,male,Stranger,C.bmp,1,m,1085
SelfAssociate,3,21,right,male,Stranger,C.bmp,0,,0
SelfAssociate,3,21,right,male,Self,S.bmp,1,b,974
SelfAssociate,3,21,right,male,Self,S.bmp,1,b,823
SelfAssociate,3,21,right,male,Stranger,C.bmp,1,n,1336
SelfAssociate,3,21,right,male,Friend,T.bmp,1,m,1354
SelfAssociate,3,21,right,male,Friend,T.bmp,1,n,911
SelfAssociate,3,21,right,male,Stranger,C.bmp,1,m,910
SelfAssociate,3,21,right,male,Friend,T.bmp,1,n,949
SelfAssociate,3,21,right,male,Friend,T.bmp,1,m,884
SelfAssociate,3,21,right,male,Self,S.bmp,1,b,847
SelfAssociate,3,21,right,male,Stranger,C.bmp,0,m,915
SelfAssociate,3,21,right,male,Stranger,C.bmp,1,m,1258
SelfAssociate,3,21,right,male,Self,S.bmp,1,n,826
SelfAssociate,3,21,right,male,Self,S.bmp,1,n,1138
SelfAssociate,3,21,right,male,Stranger,C.bmp,1,n,1818
SelfAssociate,3,21,right,male,Friend,T.bmp,1,n,1226
SelfAssociate,3,21,right,male,Stranger,C.bmp,1,m,1081
SelfAssociate,3,21,right,male,Self,S.bmp,1,b,732
SelfAssociate,3,21,right,male,Friend,T.bmp,1,b,943
SelfAssociate,3,21,right,male,Stranger,C.bmp,1,n,1048
SelfAssociate,3,21,right,male,Stranger,C.bmp,1,m,1107
SelfAssociate,3,21,right,male,Stranger,C.bmp,0,m,1771
SelfAssociate,3,21,right,male,Stranger,C.bmp,1,m,1348
SelfAssociate,3,21,right,male,Stranger,C.bmp,1,n,1042
SelfAssociate,3,21,right,male,Stranger,C.bmp,1,b,957
SelfAssociate,3,21,right,male,Stranger,C.bmp,1,n,962
SelfAssociate,3,21,right,male,Stranger,C.bmp,1,b,846
SelfAssociate,3,21,right,male,Stranger,C.bmp,1,n,1153
SelfAssociate,4,25,right,female,Friend,C.bmp,0,n,1379
SelfAssociate,4,25,right,female,Friend,C.bmp,0,n,1226
SelfAssociate,4,25,right,female,Stranger,T.bmp,0,m,1418
SelfAssociate,4,25,right,female,Self,S.bmp,0,b,2313
SelfAssociate,4,25,right,female,Stranger,T.bmp,1,m,1344
SelfAssociate,4,25,right,female,Self,S.bmp,1,n,1247
SelfAssociate,4,25,right,female,Self,S.bmp,1,b,1219
SelfAssociate,4,25,right,female,Friend,C.bmp,1,n,850
SelfAssociate,4,25,right,female,Self,S.bmp,0,b,1205
SelfAssociate,4,25,right,female,Stranger,T.bmp,1,m,1136
SelfAssociate,4,25,right,female,Stranger,T.bmp,1,m,986
SelfAssociate,4,25,right,female,Friend,C.bmp,0,m,1153
SelfAssociate,4,25,right,female,Stranger,T.bmp,1,m,1014
SelfAssociate,4,25,right,female,Self,S.bmp,1,b,1151
SelfAssociate,4,25,right,female,Friend,C.bmp,1,m,989
SelfAssociate,4,25,right,female,Stranger,T.bmp,1,m,1114
SelfAssociate,4,25,right,female,Friend,C.bmp,0,b,1111
SelfAssociate,4,25,right,female,Self,S.bmp,1,b,1125
SelfAssociate,4,25,right,female,Stranger,T.bmp,0,b,952
SelfAssociate,4,25,right,female,Self,S.bmp,1,n,941
SelfAssociate,4,25,right,female,Friend,C.bmp,1,m,934
SelfAssociate,4,25,right,female,Friend,C.bmp,0,b,921
SelfAssociate,4,25,right,female,Self,S.bmp,1,n,958
SelfAssociate,4,25,right,female,Stranger,T.bmp,1,m,963
SelfAssociate,4,25,right,female,Stranger,T.bmp,1,b,1174
SelfAssociate,4,25,right,female,Friend,C.bmp,0,m,840
SelfAssociate,4,25,right,female,Stranger,T.bmp,1,b,1220
SelfAssociate,4,25,right,female,Friend,C.bmp,0,m,779
SelfAssociate,4,25,right,female,Self,S.bmp,1,n,1196
SelfAssociate,4,25,right,female,Self,S.bmp,0,n,665
SelfAssociate,4,25,right,female,Friend,C.bmp,1,m,1130
SelfAssociate,4,25,right,female,Stranger,T.bmp,1,b,907
SelfAssociate,4,25,right,female,Self,S.bmp,1,m,884
SelfAssociate,4,25,right,female,Friend,C.bmp,0,n,1241
SelfAssociate,4,25,right,female,Stranger,T.bmp,1,m,1012
SelfAssociate,4,25,right,female,Self,S.bmp,1,b,837
SelfAssociate,4,25,right,female,Stranger,T.bmp,1,b,1188
SelfAssociate,4,25,right,female,Stranger,T.bmp,1,b,881
SelfAssociate,4,25,right,female,Self,S.bmp,1,m,886
SelfAssociate,4,25,right,female,Friend,C.bmp,0,n,987
SelfAssociate,4,25,right,female,Friend,C.bmp,0,n,1218
SelfAssociate,4,25,right,female,Self,S.bmp,0,n,1890
SelfAssociate,4,25,right,female,Stranger,T.bmp,1,m,1020
SelfAssociate,4,25,right,female,Self,S.bmp,0,b,1003
SelfAssociate,4,25,right,female,Friend,C.bmp,1,b,958
SelfAssociate,4,25,right,female,Self,S.bmp,1,b,891
SelfAssociate,4,25,right,female,Stranger,T.bmp,1,m,878
SelfAssociate,4,25,right,female,Friend,C.bmp,1,m,901
SelfAssociate,4,25,right,female,Stranger,T.bmp,1,m,1014
SelfAssociate,4,25,right,female,Friend,C.bmp,1,b,1119
SelfAssociate,4,25,right,female,Stranger,T.bmp,1,n,731
SelfAssociate,4,25,right,female,Self,S.bmp,0,m,1149
SelfAssociate,4,25,right,female,Self,S.bmp,0,n,755
SelfAssociate,4,25,right,female,Friend,C.bmp,1,m,1000
SelfAssociate,4,25,right,female,Friend,C.bmp,1,n,804
SelfAssociate,4,25,right,female,Self,S.bmp,0,n,1168
SelfAssociate,4,25,right,female,Friend,C.bmp,1,b,890
SelfAssociate,4,25,right,female,Stranger,T.bmp,1,n,1090
SelfAssociate,4,25,right,female,Self,S.bmp,0,m,892
SelfAssociate,4,25,right,female,Stranger,T.bmp,1,b,927
SelfAssociate,4,25,right,female,Stranger,T.bmp,0,n,1169
SelfAssociate,4,25,right,female,Stranger,T.bmp,1,n,715
SelfAssociate,4,25,right,female,Self,S.bmp,0,b,952
SelfAssociate,4,25,right,female,Self,S.bmp,0,n,1189
SelfAssociate,4,25,right,female,Stranger,T.bmp,0,b,914
SelfAssociate,4,25,right,female,Stranger,T.bmp,1,b,937
SelfAssociate,4,25,right,female,Self,S.bmp,0,n,1132
SelfAssociate,4,25,right,female,Self,S.bmp,0,m,893
SelfAssociate,4,25,right,female,Self,S.bmp,0,b,992
SelfAssociate,4,25,right,female,Self,S.bmp,0,b,1061
SelfAssociate,4,25,right,female,Stranger,T.bmp,1,m,1229
SelfAssociate,4,25,right,female,Stranger,T.bmp,0,b,1146
SelfAssociate,4,25,right,female,Stranger,T.bmp,0,n,681
SelfAssociate,4,25,right,female,Self,S.bmp,0,m,1142
SelfAssociate,4,25,right,female,Stranger,T.bmp,0,n,909
SelfAssociate,4,25,right,female,Self,S.bmp,1,b,1172
SelfAssociate,4,25,right,female,Self,S.bmp,1,b,910
SelfAssociate,4,25,right,female,Self,S.bmp,1,m,1180
SelfAssociate,4,25,right,female,Stranger,T.bmp,1,n,1060
SelfAssociate,4,25,right,female,Stranger,T.bmp,0,b,1211
SelfAssociate,4,25,right,female,Self,S.bmp,1,m,1124
SelfAssociate,4,25,right,female,Stranger,T.bmp,1,b,871
SelfAssociate,4,25,right,female,Self,S.bmp,1,n,1014
SelfAssociate,4,25,right,female,Stranger,T.bmp,1,m,1015
SelfAssociate,4,25,right,female,Self,S.bmp,0,n,1184
SelfAssociate,4,25,right,female,Stranger,T.bmp,1,b,1312
SelfAssociate,4,25,right,female,Self,S.bmp,1,n,1317
SelfAssociate,4,25,right,female,Stranger,T.bmp,1,b,1201
SelfAssociate,4,25,right,female,Self,S.bmp,0,n,1020
SelfAssociate,4,25,right,female,Stranger,T.bmp,1,m,1295
SelfAssociate,4,25,right,female,Stranger,T.bmp,1,b,981
SelfAssociate,4,25,right,female,Self,S.bmp,0,m,1180
SelfAssociate,4,25,right,female,Self,S.bmp,1,m,1051
SelfAssociate,4,25,right,female,Self,S.bmp,0,m,789
SelfAssociate,4,25,right,female,Self,S.bmp,0,n,1097
SelfAssociate,4,25,right,female,Self,S.bmp,1,b,835
SelfAssociate,4,25,right,female,Self,S.bmp,1,b,786
SelfAssociate,4,25,right,female,Self,S.bmp,1,m,914
SelfAssociate,4,25,right,female,Self,S.bmp,1,m,809
SelfAssociate,4,25,right,female,Self,S.bmp,1,b,865
SelfAssociate,4,25,right,female,Self,S.bmp,1,m,701
SelfAssociate,5,20,right,male,Stranger,S.bmp,0,m,1108
SelfAssociate,5,20,right,male,Stranger,S.bmp,0,,0
SelfAssociate,5,20,right,male,Friend,T.bmp,0,b,921
SelfAssociate,5,20,right,male,Self,C.bmp,1,b,1222
SelfAssociate,5,20,right,male,Friend,T.bmp,1,n,1165
SelfAssociate,5,20,right,male,Self,C.bmp,0,m,977
SelfAssociate,5,20,right,male,Stranger,S.bmp,0,,0
SelfAssociate,5,20,right,male,Friend,T.bmp,0,n,1073
SelfAssociate,5,20,right,male,Stranger,S.bmp,0,,0
SelfAssociate,5,20,right,male,Self,C.bmp,1,b,733
SelfAssociate,5,20,right,male,Friend,T.bmp,0,m,920
SelfAssociate,5,20,right,male,Self,C.bmp,1,b,1187
SelfAssociate,5,20,right,male,Friend,T.bmp,0,n,994
SelfAssociate,5,20,right,male,Stranger,S.bmp,0,,0
SelfAssociate,5,20,right,male,Self,C.bmp,1,b,918
SelfAssociate,5,20,right,male,Stranger,S.bmp,0,b,749
SelfAssociate,5,20,right,male,Self,C.bmp,0,b,948
SelfAssociate,5,20,right,male,Friend,T.bmp,0,m,842
SelfAssociate,5,20,right,male,Self,C.bmp,0,,0
SelfAssociate,5,20,right,male,Self,C.bmp,1,b,950
SelfAssociate,5,20,right,male,Friend,T.bmp,0,,0
SelfAssociate,5,20,right,male,Stranger,S.bmp,0,,0
SelfAssociate,5,20,right,male,Stranger,S.bmp,1,m,1393
SelfAssociate,5,20,right,male,Friend,T.bmp,0,m,1343
SelfAssociate,5,20,right,male,Stranger,S.bmp,0,,0
SelfAssociate,5,20,right,male,Stranger,S.bmp,0,b,685
SelfAssociate,5,20,right,male,Self,C.bmp,1,b,1057
SelfAssociate,5,20,right,male,Friend,T.bmp,0,m,1138
SelfAssociate,5,20,right,male,Self,C.bmp,0,,0
SelfAssociate,5,20,right,male,Friend,T.bmp,0,,0
SelfAssociate,5,20,right,male,Self,C.bmp,1,b,591
SelfAssociate,5,20,right,male,Friend,T.bmp,1,m,1246
SelfAssociate,5,20,right,male,Stranger,S.bmp,0,b,1113
SelfAssociate,5,20,right,male,Stranger,S.bmp,0,,0
SelfAssociate,5,20,right,male,Friend,T.bmp,0,b,996
SelfAssociate,5,20,right,male,Self,C.bmp,1,b,1449
SelfAssociate,5,20,right,male,Friend,T.bmp,0,n,1690
SelfAssociate,5,20,right,male,Stranger,S.bmp,0,,0
SelfAssociate,5,20,right,male,Friend,T.bmp,0,n,1067
SelfAssociate,5,20,right,male,Self,C.bmp,1,b,1170
SelfAssociate,5,20,right,male,Self,C.bmp,0,m,1764
SelfAssociate,5,20,right,male,Stranger,S.bmp,0,b,1104
SelfAssociate,5,20,right,male,Friend,T.bmp,0,b,839
SelfAssociate,5,20,right,male,Friend,T.bmp,0,,0
SelfAssociate,5,20,right,male,Stranger,S.bmp,0,b,1155
SelfAssociate,5,20,right,male,Self,C.bmp,1,b,1128
SelfAssociate,5,20,right,male,Stranger,S.bmp,1,b,1123
SelfAssociate,5,20,right,male,Self,C.bmp,0,b,831
SelfAssociate,5,20,right,male,Friend,T.bmp,0,,0
SelfAssociate,5,20,right,male,Self,C.bmp,0,b,754
SelfAssociate,5,20,right,male,Stranger,S.bmp,0,b,1280
SelfAssociate,5,20,right,male,Stranger,S.bmp,0,,0
SelfAssociate,5,20,right,male,Self,C.bmp,1,n,1145
SelfAssociate,5,20,right,male,Friend,T.bmp,1,b,928
SelfAssociate,5,20,right,male,Friend,T.bmp,1,b,1011
SelfAssociate,5,20,right,male,Self,C.bmp,1,b,1156
SelfAssociate,5,20,right,male,Friend,T.bmp,0,m,1281
SelfAssociate,5,20,right,male,Self,C.bmp,0,m,861
SelfAssociate,5,20,right,male,Stranger,S.bmp,1,b,1054
SelfAssociate,5,20,right,male,Stranger,S.bmp,1,b,879
SelfAssociate,5,20,right,male,Self,C.bmp,1,b,948
SelfAssociate,5,20,right,male,Friend,T.bmp,1,b,1059
SelfAssociate,5,20,right,male,Self,C.bmp,1,b,1202
SelfAssociate,5,20,right,male,Stranger,S.bmp,1,b,1053
SelfAssociate,5,20,right,male,Stranger,S.bmp,0,b,959
SelfAssociate,5,20,right,male,Friend,T.bmp,1,b,1818
SelfAssociate,5,20,right,male,Friend,T.bmp,0,m,2274
SelfAssociate,5,20,right,male,Self,C.bmp,0,,0
SelfAssociate,5,20,right,male,Stranger,S.bmp,1,b,1111
SelfAssociate,5,20,right,male,Self,C.bmp,1,m,1172
SelfAssociate,5,20,right,male,Stranger,S.bmp,1,b,998
SelfAssociate,5,20,right,male,Friend,T.bmp,0,,0
SelfAssociate,5,20,right,male,Stranger,S.bmp,1,b,970
SelfAssociate,5,20,right,male,Self,C.bmp,1,n,1043
SelfAssociate,5,20,right,male,Self,C.bmp,1,n,1190
SelfAssociate,5,20,right,male,Stranger,S.bmp,0,b,1148
SelfAssociate,5,20,right,male,Friend,T.bmp,1,n,2083
SelfAssociate,5,20,right,male,Friend,T.bmp,0,,0
SelfAssociate,5,20,right,male,Friend,T.bmp,0,b,990
SelfAssociate,5,20,right,male,Self,C.bmp,1,m,1482
SelfAssociate,5,20,right,male,Self,C.bmp,0,,0
SelfAssociate,5,20,right,male,Friend,T.bmp,0,,0
SelfAssociate,5,20,right,male,Stranger,S.bmp,0,m,1372
SelfAssociate,5,20,right,male,Stranger,S.bmp,1,n,1485
SelfAssociate,5,20,right,male,Self,C.bmp,1,b,793
SelfAssociate,5,20,right,male,Friend,T.bmp,1,n,968
SelfAssociate,5,20,right,male,Stranger,S.bmp,0,b,1827
SelfAssociate,5,20,right,male,Friend,T.bmp,1,b,1115
SelfAssociate,5,20,right,male,Self,C.bmp,1,m,1128
SelfAssociate,5,20,right,male,Stranger,S.bmp,0,n,1306
SelfAssociate,5,20,right,male,Stranger,S.bmp,0,m,1337
SelfAssociate,5,20,right,male,Friend,T.bmp,0,,0
SelfAssociate,5,20,right,male,Stranger,S.bmp,1,m,1040
SelfAssociate,5,20,right,male,Self,C.bmp,1,m,1667
SelfAssociate,5,20,right,male,Friend,T.bmp,1,b,1339
SelfAssociate,5,20,right,male,Self,C.bmp,1,n,946
SelfAssociate,5,20,right,male,Friend,T.bmp,1,b,1571
SelfAssociate,5,20,right,male,Stranger,S.bmp,0,m,1621
SelfAssociate,5,20,right,male,Friend,T.bmp,0,m,901
SelfAssociate,5,20,right,male,Self,C.bmp,1,n,1061
SelfAssociate,5,20,right,male,Stranger,S.bmp,1,b,1309
SelfAssociate,5,20,right,male,Self,C.bmp,1,b,1722
SelfAssociate,5,20,right,male,Friend,T.bmp,0,m,1174
SelfAssociate,5,20,right,male,Stranger,S.bmp,0,,0
SelfAssociate,5,20,right,male,Friend,T.bmp,1,b,1182
SelfAssociate,5,20,right,male,Stranger,S.bmp,0,m,1117
SelfAssociate,5,20,right,male,Friend,T.bmp,1,m,1258
SelfAssociate,5,20,right,male,Stranger,S.bmp,1,m,1041
SelfAssociate,5,20,right,male,Friend,T.bmp,1,m,1477
SelfAssociate,5,20,right,male,Stranger,S.bmp,1,b,1010
SelfAssociate,5,20,right,male,Stranger,S.bmp,0,m,1228
SelfAssociate,5,20,right,male,Friend,T.bmp,0,n,1465
SelfAssociate,5,20,right,male,Friend,T.bmp,0,,0
SelfAssociate,5,20,right,male,Stranger,S.bmp,1,b,992
SelfAssociate,5,20,right,male,Stranger,S.bmp,0,,0
SelfAssociate,5,20,right,male,Stranger,S.bmp,0,m,732
SelfAssociate,5,20,right,male,Friend,T.bmp,1,m,1204
SelfAssociate,5,20,right,male,Friend,T.bmp,1,b,1688
SelfAssociate,5,20,right,male,Friend,T.bmp,1,b,1026
SelfAssociate,5,20,right,male,Stranger,S.bmp,1,m,1153
SelfAssociate,5,20,right,male,Stranger,S.bmp,0,n,1462
SelfAssociate,5,20,right,male,Friend,T.bmp,1,n,1566
SelfAssociate,5,20,right,male,Stranger,S.bmp,0,m,1106
SelfAssociate,5,20,right,male,Stranger,S.bmp,1,b,1305
SelfAssociate,5,20,right,male,Friend,T.bmp,1,m,2209
SelfAssociate,5,20,right,male,Friend,T.bmp,0,b,2475
SelfAssociate,5,20,right,male,Stranger,S.bmp,0,,0
SelfAssociate,5,20,right,male,Stranger,S.bmp,0,,0
SelfAssociate,5,20,right,male,Friend,T.bmp,0,,0
SelfAssociate,5,20,right,male,Friend,T.bmp,1,m,1254
SelfAssociate,5,20,right,male,Friend,T.bmp,0,m,967
SelfAssociate,5,20,right,male,Friend,T.bmp,1,n,1275
SelfAssociate,5,20,right,male,Stranger,S.bmp,1,m,1056
SelfAssociate,5,20,right,male,Stranger,S.bmp,0,,0
SelfAssociate,5,20,right,male,Stranger,S.bmp,1,b,1311
SelfAssociate,5,20,right,male,Stranger,S.bmp,0,m,1053
SelfAssociate,5,20,right,male,Friend,T.bmp,0,,0
SelfAssociate,5,20,right,male,Friend,T.bmp,1,n,1037
SelfAssociate,5,20,right,male,Stranger,S.bmp,1,m,1002
SelfAssociate,5,20,right,male,Friend,T.bmp,0,,0
SelfAssociate,5,20,right,male,Stranger,S.bmp,0,,0
SelfAssociate,5,20,right,male,Friend,T.bmp,1,m,1443
SelfAssociate,5,20,right,male,Stranger,S.bmp,1,m,1119
SelfAssociate,5,20,right,male,Friend,T.bmp,0,b,1298
SelfAssociate,5,20,right,male,Stranger,S.bmp,0,m,1202
SelfAssociate,5,20,right,male,Friend,T.bmp,1,b,941
SelfAssociate,5,20,right,male,Stranger,S.bmp,0,,0
SelfAssociate,5,20,right,male,Friend,T.bmp,0,,0
SelfAssociate,5,20,right,male,Friend,T.bmp,1,b,1932
SelfAssociate,5,20,right,male,Stranger,S.bmp,1,m,830
SelfAssociate,5,20,right,male,Stranger,S.bmp,0,b,1573
SelfAssociate,5,20,right,male,Friend,T.bmp,0,n,894
SelfAssociate,5,20,right,male,Stranger,S.bmp,1,m,1849
SelfAssociate,5,20,right,male,Friend,T.bmp,0,n,2323
SelfAssociate,5,20,right,male,Stranger,S.bmp,1,b,1583
SelfAssociate,5,20,right,male,Friend,T.bmp,1,m,1143
SelfAssociate,5,20,right,male,Friend,T.bmp,1,m,1071
SelfAssociate,5,20,right,male,Stranger,S.bmp,1,m,1068
SelfAssociate,5,20,right,male,Stranger,S.bmp,1,n,2138
SelfAssociate,5,20,right,male,Friend,T.bmp,1,n,2242
SelfAssociate,5,20,right,male,Stranger,S.bmp,1,m,1319
SelfAssociate,5,20,right,male,Friend,T.bmp,0,n,1978
SelfAssociate,5,20,right,male,Stranger,S.bmp,1,m,1994
SelfAssociate,5,20,right,male,Friend,T.bmp,0,n,2480
SelfAssociate,5,20,right,male,Friend,T.bmp,1,b,2221
SelfAssociate,5,20,right,male,Stranger,S.bmp,1,n,1773
SelfAssociate,5,20,right,male,Friend,T.bmp,0,m,2311
SelfAssociate,5,20,right,male,Stranger,S.bmp,0,,0
SelfAssociate,5,20,right,male,Friend,T.bmp,1,b,1692
SelfAssociate,5,20,right,male,Stranger,S.bmp,1,m,998
SelfAssociate,5,20,right,male,Stranger,S.bmp,1,n,1195
SelfAssociate,5,20,right,male,Friend,T.bmp,1,m,1657
SelfAssociate,5,20,right,male,Stranger,S.bmp,1,n,2146
SelfAssociate,5,20,right,male,Friend,T.bmp,1,b,1067
SelfAssociate,5,20,right,male,Friend,T.bmp,1,m,1218
SelfAssociate,5,20,right,male,Stranger,S.bmp,1,m,2403
SelfAssociate,5,20,right,male,Friend,T.bmp,0,,0
SelfAssociate,5,20,right,male,Stranger,S.bmp,1,m,2647
SelfAssociate,5,20,right,male,Stranger,S.bmp,0,m,1307
SelfAssociate,5,20,right,male,Friend,T.bmp,0,,0
SelfAssociate,5,20,right,male,Stranger,S.bmp,1,m,978
SelfAssociate,5,20,right,male,Friend,T.bmp,1,n,2267
SelfAssociate,5,20,right,male,Stranger,S.bmp,0,m,1891
SelfAssociate,5,20,right,male,Stranger,S.bmp,1,b,1412
SelfAssociate,5,20,right,male,Friend,T.bmp,1,n,1366
SelfAssociate,5,20,right,male,Friend,T.bmp,1,m,1593
SelfAssociate,5,20,right,male,Friend,T.bmp,1,b,2583
SelfAssociate,5,20,right,male,Stranger,S.bmp,1,n,2144
SelfAssociate,5,20,right,male,Friend,T.bmp,1,m,2384
SelfAssociate,5,20,right,male,Stranger,S.bmp,1,m,2936
SelfAssociate,5,20,right,male,Stranger,S.bmp,1,n,1387
SelfAssociate,5,20,right,male,Friend,T.bmp,1,b,2083
SelfAssociate,5,20,right,male,Stranger,S.bmp,0,,0
SelfAssociate,5,20,right,male,Friend,T.bmp,0,m,118
SelfAssociate,5,20,right,male,Friend,T.bmp,0,n,1932
SelfAssociate,5,20,right,male,Friend,T.bmp,1,n,1822
SelfAssociate,5,20,right,male,Stranger,S.bmp,1,n,1774
SelfAssociate,5,20,right,male,Stranger,S.bmp,1,n,928
SelfAssociate,5,20,right,male,Friend,T.bmp,1,n,1684
SelfAssociate,5,20,right,male,Stranger,S.bmp,1,m,1168
SelfAssociate,5,20,right,male,Stranger,S.bmp,1,m,986
SelfAssociate,5,20,right,male,Friend,T.bmp,1,n,1377
SelfAssociate,5,20,right,male,Stranger,S.bmp,1,b,1258
SelfAssociate,5,20,right,male,Friend,T.bmp,1,m,1706
SelfAssociate,5,20,right,male,Friend,T.bmp,1,n,1498
SelfAssociate,5,20,right,male,Stranger,S.bmp,1,b,2011
SelfAssociate,5,20,right,male,Friend,T.bmp,1,n,1213
SelfAssociate,5,20,right,male,Friend,T.bmp,1,n,855
SelfAssociate,5,20,right,male,Friend,T.bmp,1,n,1178
SelfAssociate,5,20,right,male,Friend,T.bmp,0,n,707
SelfAssociate,5,20,right,male,Friend,T.bmp,1,n,915
SelfAssociate,5,20,right,male,Friend,T.bmp,1,n,1040
SelfAssociate,5,20,right,male,Friend,T.bmp,1,m,1195
SelfAssociate,5,20,right,male,Friend,T.bmp,1,n,912
SelfAssociate,5,20,right,male,Friend,T.bmp,1,m,999
SelfAssociate,5,20,right,male,Friend,T.bmp,1,n,1026
SelfAssociate,6,20,right,female,Self,C.bmp,1,b,1049
SelfAssociate,6,20,right,female,Friend,S.bmp,0,m,2508
SelfAssociate,6,20,right,female,Stranger,T.bmp,1,n,1261
SelfAssociate,6,20,right,female,Friend,S.bmp,1,b,1052
SelfAssociate,6,20,right,female,Self,C.bmp,1,n,928
SelfAssociate,6,20,right,female,Stranger,T.bmp,0,,0
SelfAssociate,6,20,right,female,Self,C.bmp,1,n,1186
SelfAssociate,6,20,right,female,Stranger,T.bmp,0,b,1187
SelfAssociate,6,20,right,female,Friend,S.bmp,1,n,1161
SelfAssociate,6,20,right,female,Friend,S.bmp,1,n,1251
SelfAssociate,6,20,right,female,Self,C.bmp,0,b,1182
SelfAssociate,6,20,right,female,Stranger,T.bmp,0,,0
SelfAssociate,6,20,right,female,Stranger,T.bmp,1,b,1262
SelfAssociate,6,20,right,female,Friend,S.bmp,1,n,910
SelfAssociate,6,20,right,female,Self,C.bmp,1,b,894
SelfAssociate,6,20,right,female,Friend,S.bmp,1,n,1179
SelfAssociate,6,20,right,female,Self,C.bmp,0,b,1213
SelfAssociate,6,20,right,female,Stranger,T.bmp,0,,0
SelfAssociate,6,20,right,female,Self,C.bmp,1,b,1097
SelfAssociate,6,20,right,female,Self,C.bmp,0,b,926
SelfAssociate,6,20,right,female,Friend,S.bmp,1,b,1170
SelfAssociate,6,20,right,female,Stranger,T.bmp,1,n,1280
SelfAssociate,6,20,right,female,Friend,S.bmp,1,n,1188
SelfAssociate,6,20,right,female,Stranger,T.bmp,1,b,1098
SelfAssociate,6,20,right,female,Stranger,T.bmp,0,b,1182
SelfAssociate,6,20,right,female,Friend,S.bmp,0,,0
SelfAssociate,6,20,right,female,Self,C.bmp,0,b,750
SelfAssociate,6,20,right,female,Stranger,T.bmp,1,n,1235
SelfAssociate,6,20,right,female,Self,C.bmp,1,m,1291
SelfAssociate,6,20,right,female,Friend,S.bmp,1,b,1171
SelfAssociate,6,20,right,female,Stranger,T.bmp,1,n,1088
SelfAssociate,6,20,right,female,Self,C.bmp,0,m,1088
SelfAssociate,6,20,right,female,Friend,S.bmp,0,,0
SelfAssociate,6,20,right,female,Stranger,T.bmp,1,b,1022
SelfAssociate,6,20,right,female,Self,C.bmp,1,n,809
SelfAssociate,6,20,right,female,Friend,S.bmp,0,n,884
SelfAssociate,6,20,right,female,Stranger,T.bmp,1,b,940
SelfAssociate,6,20,right,female,Self,C.bmp,1,b,1109
SelfAssociate,6,20,right,female,Friend,S.bmp,1,n,893
SelfAssociate,6,20,right,female,Friend,S.bmp,1,n,1029
SelfAssociate,6,20,right,female,Self,C.bmp,0,b,928
SelfAssociate,6,20,right,female,Stranger,T.bmp,0,b,1301
SelfAssociate,6,20,right,female,Self,C.bmp,0,,0
SelfAssociate,6,20,right,female,Self,C.bmp,1,m,1167
SelfAssociate,6,20,right,female,Friend,S.bmp,1,b,957
SelfAssociate,6,20,right,female,Stranger,T.bmp,1,m,1342
SelfAssociate,6,20,right,female,Stranger,T.bmp,1,n,1212
SelfAssociate,6,20,right,female,Friend,S.bmp,1,b,1402
SelfAssociate,6,20,right,female,Friend,S.bmp,0,n,1069
SelfAssociate,6,20,right,female,Stranger,T.bmp,1,b,1315
SelfAssociate,6,20,right,female,Self,C.bmp,1,n,884
SelfAssociate,6,20,right,female,Friend,S.bmp,1,m,1020
SelfAssociate,6,20,right,female,Self,C.bmp,0,n,1234
SelfAssociate,6,20,right,female,Stranger,T.bmp,0,n,1673
SelfAssociate,6,20,right,female,Friend,S.bmp,1,n,1341
SelfAssociate,6,20,right,female,Friend,S.bmp,0,b,1338
SelfAssociate,6,20,right,female,Self,C.bmp,0,n,1187
SelfAssociate,6,20,right,female,Self,C.bmp,1,b,1289
SelfAssociate,6,20,right,female,Stranger,T.bmp,1,n,1233
SelfAssociate,6,20,right,female,Stranger,T.bmp,1,m,1193
SelfAssociate,6,20,right,female,Friend,S.bmp,1,b,1215
SelfAssociate,6,20,right,female,Self,C.bmp,1,b,1261
SelfAssociate,6,20,right,female,Stranger,T.bmp,1,m,1213
SelfAssociate,6,20,right,female,Friend,S.bmp,1,b,1003
SelfAssociate,6,20,right,female,Self,C.bmp,1,n,862
SelfAssociate,6,20,right,female,Stranger,T.bmp,1,m,925
SelfAssociate,6,20,right,female,Friend,S.bmp,0,,0
SelfAssociate,6,20,right,female,Friend,S.bmp,1,n,1680
SelfAssociate,6,20,right,female,Stranger,T.bmp,1,b,1140
SelfAssociate,6,20,right,female,Self,C.bmp,0,n,1241
SelfAssociate,6,20,right,female,Self,C.bmp,1,b,880
SelfAssociate,6,20,right,female,Stranger,T.bmp,0,b,1492
SelfAssociate,6,20,right,female,Friend,S.bmp,1,m,1492
SelfAssociate,6,20,right,female,Friend,S.bmp,1,m,1940
SelfAssociate,6,20,right,female,Stranger,T.bmp,1,n,1641
SelfAssociate,6,20,right,female,Stranger,T.bmp,1,b,1441
SelfAssociate,6,20,right,female,Self,C.bmp,1,b,1040
SelfAssociate,6,20,right,female,Self,C.bmp,1,m,1663
SelfAssociate,6,20,right,female,Self,C.bmp,1,m,1342
SelfAssociate,6,20,right,female,Stranger,T.bmp,0,n,1451
SelfAssociate,6,20,right,female,Friend,S.bmp,1,n,1087
SelfAssociate,6,20,right,female,Self,C.bmp,1,n,1647
SelfAssociate,6,20,right,female,Stranger,T.bmp,1,b,970
SelfAssociate,6,20,right,female,Friend,S.bmp,1,b,1856
SelfAssociate,6,20,right,female,Stranger,T.bmp,0,m,1235
SelfAssociate,6,20,right,female,Self,C.bmp,1,m,1674
SelfAssociate,6,20,right,female,Friend,S.bmp,1,n,1230
SelfAssociate,6,20,right,female,Friend,S.bmp,0,b,1697
SelfAssociate,6,20,right,female,Self,C.bmp,1,b,2157
SelfAssociate,6,20,right,female,Stranger,T.bmp,1,b,1407
SelfAssociate,6,20,right,female,Self,C.bmp,1,m,1265
SelfAssociate,6,20,right,female,Friend,S.bmp,1,m,1712
SelfAssociate,6,20,right,female,Friend,S.bmp,1,m,1857
SelfAssociate,6,20,right,female,Stranger,T.bmp,1,n,1028
SelfAssociate,6,20,right,female,Stranger,T.bmp,1,m,1742
SelfAssociate,6,20,right,female,Self,C.bmp,1,m,1227
SelfAssociate,6,20,right,female,Stranger,T.bmp,1,m,1774
SelfAssociate,6,20,right,female,Stranger,T.bmp,0,m,2244
SelfAssociate,6,20,right,female,Self,C.bmp,1,m,1811
SelfAssociate,6,20,right,female,Friend,S.bmp,1,b,2122
SelfAssociate,6,20,right,female,Friend,S.bmp,1,n,1742
SelfAssociate,6,20,right,female,Self,C.bmp,1,m,1020
SelfAssociate,6,20,right,female,Self,C.bmp,1,m,1474
SelfAssociate,6,20,right,female,Self,C.bmp,1,n,1310
SelfAssociate,6,20,right,female,Stranger,T.bmp,1,b,1918
SelfAssociate,6,20,right,female,Friend,S.bmp,1,n,1035
SelfAssociate,6,20,right,female,Stranger,T.bmp,1,n,1594
SelfAssociate,6,20,right,female,Friend,S.bmp,0,n,1504
SelfAssociate,6,20,right,female,Self,C.bmp,1,n,1257
SelfAssociate,6,20,right,female,Friend,S.bmp,1,n,1236
SelfAssociate,6,20,right,female,Friend,S.bmp,1,n,1659
SelfAssociate,6,20,right,female,Stranger,T.bmp,1,b,1707
SelfAssociate,6,20,right,female,Self,C.bmp,1,m,1003
SelfAssociate,6,20,right,female,Stranger,T.bmp,1,n,1534
SelfAssociate,6,20,right,female,Stranger,T.bmp,1,n,1359
SelfAssociate,6,20,right,female,Friend,S.bmp,1,m,1984
SelfAssociate,6,20,right,female,Self,C.bmp,1,m,1922
SelfAssociate,6,20,right,female,Friend,S.bmp,1,b,1583
SelfAssociate,6,20,right,female,Stranger,T.bmp,0,n,1681
SelfAssociate,6,20,right,female,Self,C.bmp,1,n,1236
SelfAssociate,6,20,right,female,Self,C.bmp,1,m,2428
SelfAssociate,6,20,right,female,Stranger,T.bmp,0,m,1598
SelfAssociate,6,20,right,female,Friend,S.bmp,1,b,1301
SelfAssociate,6,20,right,female,Stranger,T.bmp,1,b,2081
SelfAssociate,6,20,right,female,Friend,S.bmp,1,b,1525
SelfAssociate,6,20,right,female,Self,C.bmp,0,b,1601
SelfAssociate,6,20,right,female,Self,C.bmp,0,n,1244
SelfAssociate,6,20,right,female,Self,C.bmp,1,m,2019
SelfAssociate,6,20,right,female,Stranger,T.bmp,1,m,1761
SelfAssociate,6,20,right,female,Stranger,T.bmp,1,n,2051
SelfAssociate,6,20,right,female,Self,C.bmp,1,b,1038
SelfAssociate,6,20,right,female,Stranger,T.bmp,1,m,2333
SelfAssociate,6,20,right,female,Stranger,T.bmp,1,b,2542
SelfAssociate,6,20,right,female,Self,C.bmp,1,n,1675
SelfAssociate,6,20,right,female,Self,C.bmp,1,m,1887
SelfAssociate,6,20,right,female,Stranger,T.bmp,1,m,1503
SelfAssociate,6,20,right,female,Stranger,T.bmp,1,b,1332
SelfAssociate,6,20,right,female,Self,C.bmp,1,b,1709
SelfAssociate,6,20,right,female,Self,C.bmp,1,m,1181
SelfAssociate,6,20,right,female,Self,C.bmp,1,n,1646
SelfAssociate,6,20,right,female,Self,C.bmp,1,m,1209
SelfAssociate,6,20,right,female,Self,C.bmp,1,m,900
SelfAssociate,6,20,right,female,Self,C.bmp,1,b,944
SelfAssociate,6,20,right,female,Self,C.bmp,1,b,717
SelfAssociate,7,20,right,female,Friend,S.bmp,1,m,1786
SelfAssociate,7,20,right,female,Friend,S.bmp,1,m,850
SelfAssociate,7,20,right,female,Stranger,C.bmp,1,b,1708
SelfAssociate,7,20,right,female,Self,T.bmp,1,b,1201
SelfAssociate,7,20,right,female,Stranger,C.bmp,1,b,1229
SelfAssociate,7,20,right,female,Self,T.bmp,1,b,650
SelfAssociate,7,20,right,female,Stranger,C.bmp,1,n,1381
SelfAssociate,7,20,right,female,Friend,S.bmp,1,n,1812
SelfAssociate,7,20,right,female,Stranger,C.bmp,1,n,1062
SelfAssociate,7,20,right,female,Self,T.bmp,1,b,669
SelfAssociate,7,20,right,female,Self,T.bmp,1,b,860
SelfAssociate,7,20,right,female,Friend,S.bmp,1,m,1541
SelfAssociate,7,20,right,female,Self,T.bmp,1,m,1013
SelfAssociate,7,20,right,female,Friend,S.bmp,1,m,1238
SelfAssociate,7,20,right,female,Stranger,C.bmp,1,b,825
SelfAssociate,7,20,right,female,Stranger,C.bmp,1,m,1346
SelfAssociate,7,20,right,female,Self,T.bmp,1,b,713
SelfAssociate,7,20,right,female,Friend,S.bmp,1,n,944
SelfAssociate,8,19,right,female,Self,T.bmp,0,,0
SelfAssociate,8,19,right,female,Self,T.bmp,0,b,1191
SelfAssociate,8,19,right,female,Stranger,S.bmp,0,,0
SelfAssociate,8,19,right,female,Friend,C.bmp,0,,0
