"","Subject","Trial","Matching","Face","Label","Response","Label_Identity","Origin_Identity","English_Identity","Standarlized_Identity","RT_ms","RT_sec","ACC"
"1",1,1,"Nonmatching","m35","Me","right","Me","User","Self","Self",1143,1.143,1
"2",1,2,"Nonmatching","f27","Me","left","Me","Other","Stranger","Stranger",588,0.588,1
"3",1,3,"Matching","m33","Me","left","Me","Other","Stranger","Stranger",966,0.966,1
"4",1,4,"Matching","f27","Stranger","left","Stranger","Other","Stranger","Stranger",558,0.558,0
"5",1,5,"Matching","m33","Me","left","Me","Other","Stranger","Stranger",1531,1.531,1
"6",1,6,"Matching","f15","Stranger","right","Stranger","User","Self","Self",791,0.791,0
"7",1,7,"Nonmatching","m33","Me","left","Me","Other","Stranger","Stranger",984,0.984,1
"8",1,8,"Matching","m35","Me","right","Me","User","Self","Self",848,0.848,1
"9",1,9,"Nonmatching","m34","Me","left","Me","User","Self","Self",804,0.804,0
"10",1,10,"Nonmatching","f27","Stranger","right","Stranger","Other","Stranger","Stranger",769,0.769,1
"11",1,11,"Matching","f18","Stranger","right","Stranger","User","Self","Self",1252,1.252,0
"12",1,12,"Nonmatching","m34","Stranger","left","Stranger","User","Self","Self",1105,1.105,1
"13",1,13,"Matching","f4","Me","left","Me","Other","Stranger","Stranger",1774,1.774,1
"14",1,14,"Matching","m34","Me","right","Me","User","Self","Self",770,0.77,1
"15",1,15,"Matching","m34","Stranger","left","Stranger","User","Self","Self",1629,1.629,1
"16",1,16,"Matching","f27","Stranger","left","Stranger","Other","Stranger","Stranger",1292,1.292,0
"17",1,17,"Matching","f18","Me","right","Me","User","Self","Self",596,0.596,1
"18",1,18,"Nonmatching","m33","Me","left","Me","Other","Stranger","Stranger",722,0.722,1
"19",1,19,"Nonmatching","m35","Stranger","left","Stranger","User","Self","Self",873,0.873,1
"20",1,20,"Matching","m38","Me","left","Me","Other","Stranger","Stranger",1342,1.342,1
"21",1,21,"Nonmatching","m38","Me","left","Me","Other","Stranger","Stranger",722,0.722,1
"22",1,22,"Nonmatching","f15","Stranger","left","Stranger","User","Self","Self",869,0.869,1
"23",1,23,"Matching","m33","Stranger","right","Stranger","Other","Stranger","Stranger",923,0.923,1
"24",1,24,"Nonmatching","m35","Stranger","left","Stranger","User","Self","Self",868,0.868,1
"25",1,25,"Matching","m35","Me","right","Me","User","Self","Self",823,0.823,1
"26",1,26,"Matching","f15","Stranger","right","Stranger","User","Self","Self",988,0.988,0
"27",1,27,"Nonmatching","m33","Stranger","right","Stranger","Other","Stranger","Stranger",710,0.71,1
"28",1,28,"Matching","f18","Me","right","Me","User","Self","Self",561,0.561,1
"29",1,29,"Nonmatching","f15","Me","left","Me","User","Self","Self",620,0.62,0
"30",1,30,"Nonmatching","f4","Me","left","Me","Other","Stranger","Stranger",762,0.762,1
"31",1,31,"Matching","m33","Stranger","right","Stranger","Other","Stranger","Stranger",815,0.815,1
"32",1,32,"Matching","f15","Me","right","Me","User","Self","Self",849,0.849,1
"33",1,33,"Matching","m38","Stranger","left","Stranger","Other","Stranger","Stranger",910,0.91,0
"34",1,34,"Nonmatching","f15","Stranger","left","Stranger","User","Self","Self",987,0.987,1
"35",1,35,"Nonmatching","m35","Me","right","Me","User","Self","Self",787,0.787,1
"36",1,36,"Nonmatching","f4","Me","left","Me","Other","Stranger","Stranger",607,0.607,1
"37",1,37,"Matching","f27","Me","right","Me","Other","Stranger","Stranger",565,0.565,0
"38",1,38,"Nonmatching","m34","Stranger","left","Stranger","User","Self","Self",857,0.857,1
"39",1,39,"Matching","m34","Me","left","Me","User","Self","Self",599,0.599,0
"40",1,40,"Matching","f4","Stranger","right","Stranger","Other","Stranger","Stranger",824,0.824,1
"41",1,41,"Nonmatching","f18","Stranger","left","Stranger","User","Self","Self",760,0.76,1
"42",1,42,"Nonmatching","f27","Stranger","right","Stranger","Other","Stranger","Stranger",1026,1.026,1
"43",1,43,"Matching","f15","Me","right","Me","User","Self","Self",579,0.579,1
"44",1,44,"Matching","m34","Stranger","left","Stranger","User","Self","Self",708,0.708,1
"45",1,45,"Nonmatching","f4","Stranger","right","Stranger","Other","Stranger","Stranger",842,0.842,1
"46",1,46,"Nonmatching","m34","Me","right","Me","User","Self","Self",655,0.655,1
"47",1,47,"Nonmatching","m38","Me","right","Me","Other","Stranger","Stranger",533,0.533,0
"48",1,48,"Matching","m38","Stranger","right","Stranger","Other","Stranger","Stranger",1099,1.099,1
"49",1,49,"Nonmatching","f18","Me","right","Me","User","Self","Self",1270,1.27,1
"50",1,50,"Matching","m35","Stranger","right","Stranger","User","Self","Self",748,0.748,0
"51",1,51,"Nonmatching","m33","Stranger","left","Stranger","Other","Stranger","Stranger",896,0.896,0
"52",1,52,"Matching","f4","Me","left","Me","Other","Stranger","Stranger",907,0.907,1
"53",1,53,"Matching","f18","Stranger","left","Stranger","User","Self","Self",808,0.808,1
"54",1,54,"Nonmatching","f18","Me","right","Me","User","Self","Self",410,0.41,1
"55",1,55,"Matching","m35","Stranger","left","Stranger","User","Self","Self",855,0.855,1
"56",1,56,"Nonmatching","m38","Stranger","left","Stranger","Other","Stranger","Stranger",943,0.943,0
"57",1,57,"Matching","f4","Stranger","right","Stranger","Other","Stranger","Stranger",878,0.878,1
"58",1,58,"Nonmatching","f15","Me","right","Me","User","Self","Self",704,0.704,1
"59",1,59,"Matching","f27","Me","right","Me","Other","Stranger","Stranger",1334,1.334,0
"60",1,60,"Nonmatching","f18","Stranger","left","Stranger","User","Self","Self",910,0.91,1
"61",1,61,"Matching","m38","Me","left","Me","Other","Stranger","Stranger",1336,1.336,1
"62",1,62,"Nonmatching","f27","Me","left","Me","Other","Stranger","Stranger",792,0.792,1
"63",1,63,"Nonmatching","m38","Stranger","right","Stranger","Other","Stranger","Stranger",512,0.512,1
"64",1,64,"Nonmatching","f4","Stranger","right","Stranger","Other","Stranger","Stranger",866,0.866,1
"65",2,1,"Matching","f27","Stranger","right","Stranger","User","Self","Self",5409.5,5.4095,0
"66",2,2,"Matching","f15","Stranger","right","Stranger","Other","Stranger","Stranger",653,0.653,1
"67",2,3,"Matching","m35","Me","left","Me","Other","Stranger","Stranger",2422.6,2.4226,1
"68",2,4,"Matching","f15","Me","left","Me","Other","Stranger","Stranger",2480.5,2.4805,1
"69",2,5,"Nonmatching","m35","Stranger","right","Stranger","Other","Stranger","Stranger",1225,1.225,1
"70",2,6,"Nonmatching","f15","Stranger","right","Stranger","Other","Stranger","Stranger",1454.8,1.4548,1
"71",2,7,"Nonmatching","f27","Stranger","left","Stranger","User","Self","Self",1329.1,1.3291,1
"72",2,8,"Matching","m34","Stranger","right","Stranger","Other","Stranger","Stranger",1247.4,1.2474,1
"73",2,9,"Matching","m38","Stranger","left","Stranger","User","Self","Self",1086.4,1.0864,1
"74",2,10,"Matching","m35","Stranger","right","Stranger","Other","Stranger","Stranger",879.6,0.8796,1
"75",2,11,"Matching","f18","Stranger","right","Stranger","Other","Stranger","Stranger",936.1,0.9361,1
"76",2,12,"Matching","f15","Stranger","right","Stranger","Other","Stranger","Stranger",2180.1,2.1801,1
"77",2,13,"Matching","f27","Stranger","left","Stranger","User","Self","Self",1049.3,1.0493,1
"78",2,14,"Nonmatching","f15","Me","left","Me","Other","Stranger","Stranger",1301.6,1.3016,1
"79",2,15,"Matching","m33","Stranger","left","Stranger","User","Self","Self",1065.8,1.0658,1
"80",2,16,"Nonmatching","m38","Me","right","Me","User","Self","Self",714,0.714,1
"81",2,17,"Matching","m33","Me","right","Me","User","Self","Self",1465.4,1.4654,1
"82",2,18,"Nonmatching","m38","Me","right","Me","User","Self","Self",707.5,0.7075,1
"83",2,19,"Nonmatching","m33","Stranger","left","Stranger","User","Self","Self",1018.9,1.0189,1
"84",2,20,"Matching","m33","Stranger","left","Stranger","User","Self","Self",2142.4,2.1424,1
"85",2,21,"Nonmatching","f27","Stranger","left","Stranger","User","Self","Self",2058.5,2.0585,1
"86",2,22,"Nonmatching","f4","Stranger","right","Stranger","User","Self","Self",947.8000001,0.9478000001,0
"87",2,23,"Nonmatching","m35","Me","left","Me","Other","Stranger","Stranger",1217.2,1.2172,1
"88",2,24,"Nonmatching","m35","Me","left","Me","Other","Stranger","Stranger",2230.3,2.2303,1
"89",2,25,"Nonmatching","f27","Me","right","Me","User","Self","Self",1587.4,1.5874,1
"90",2,26,"Nonmatching","m34","Stranger","right","Stranger","Other","Stranger","Stranger",2917.2,2.9172,1
"91",2,27,"Matching","f18","Me","left","Me","Other","Stranger","Stranger",1599.2,1.5992,1
"92",2,28,"Matching","f27","Me","right","Me","User","Self","Self",1311.5,1.3115,1
"93",2,29,"Nonmatching","m34","Me","left","Me","Other","Stranger","Stranger",3680,3.68,1
"94",2,30,"Nonmatching","f15","Stranger","left","Stranger","Other","Stranger","Stranger",1749.4,1.7494,0
"95",2,31,"Nonmatching","f15","Me","right","Me","Other","Stranger","Stranger",1281.4,1.2814,0
"96",2,32,"Matching","f15","Me","right","Me","Other","Stranger","Stranger",1867.2,1.8672,0
"97",2,33,"Nonmatching","m38","Stranger","left","Stranger","User","Self","Self",3321.5,3.3215,1
"98",2,34,"Matching","m38","Me","right","Me","User","Self","Self",2602.8,2.6028,1
"99",2,35,"Matching","f18","Me","right","Me","Other","Stranger","Stranger",2660.4,2.6604,0
"100",2,36,"Nonmatching","m38","Stranger","left","Stranger","User","Self","Self",7439.1,7.4391,1
"101",2,37,"Nonmatching","f18","Stranger","right","Stranger","Other","Stranger","Stranger",2548.7,2.5487,1
"102",2,38,"Matching","f4","Me","left","Me","User","Self","Self",2353.8,2.3538,0
"103",2,39,"Matching","f4","Stranger","left","Stranger","User","Self","Self",2769.7,2.7697,1
"104",2,40,"Matching","f27","Me","right","Me","User","Self","Self",2039.9,2.0399,1
"105",2,41,"Matching","m35","Stranger","right","Stranger","Other","Stranger","Stranger",1152,1.152,1
"106",2,42,"Matching","f4","Stranger","right","Stranger","User","Self","Self",1519.9,1.5199,0
"107",2,43,"Nonmatching","m35","Stranger","right","Stranger","Other","Stranger","Stranger",950.7,0.9507,1
"108",2,44,"Nonmatching","f18","Stranger","right","Stranger","Other","Stranger","Stranger",1869.5,1.8695,1
"109",2,45,"Nonmatching","f18","Me","left","Me","Other","Stranger","Stranger",914.6999999,0.9146999999,1
"110",2,46,"Nonmatching","f18","Me","left","Me","Other","Stranger","Stranger",1804.7,1.8047,1
"111",2,47,"Nonmatching","f4","Stranger","right","Stranger","User","Self","Self",864.8000001,0.8648000001,0
"112",2,48,"Nonmatching","f4","Me","left","Me","User","Self","Self",2792.1,2.7921,0
"113",2,49,"Nonmatching","m33","Me","right","Me","User","Self","Self",1363.4,1.3634,1
"114",2,50,"Nonmatching","m34","Stranger","right","Stranger","Other","Stranger","Stranger",1214.6,1.2146,1
"115",2,51,"Matching","m34","Stranger","right","Stranger","Other","Stranger","Stranger",842.3000001,0.8423000001,1
"116",2,52,"Matching","m33","Me","right","Me","User","Self","Self",604.6999999,0.6046999999,1
"117",2,53,"Matching","f4","Me","right","Me","User","Self","Self",1910.9,1.9109,1
"118",2,54,"Nonmatching","f27","Me","right","Me","User","Self","Self",664.6999999,0.6646999999,1
"119",2,55,"Nonmatching","m33","Stranger","left","Stranger","User","Self","Self",1666.6,1.6666,1
"120",2,56,"Matching","m34","Me","left","Me","Other","Stranger","Stranger",2251.4,2.2514,1
"121",2,57,"Matching","f18","Stranger","left","Stranger","Other","Stranger","Stranger",2284.9,2.2849,0
"122",2,58,"Nonmatching","m33","Me","right","Me","User","Self","Self",1300.1,1.3001,1
"123",2,59,"Matching","m38","Stranger","left","Stranger","User","Self","Self",1007.6,1.0076,1
"124",2,60,"Nonmatching","m34","Me","left","Me","Other","Stranger","Stranger",2421.7,2.4217,1
"125",2,61,"Nonmatching","f4","Me","right","Me","User","Self","Self",1503.9,1.5039,1
"126",2,62,"Matching","m35","Me","left","Me","Other","Stranger","Stranger",1659.6,1.6596,1
"127",2,63,"Matching","m34","Me","left","Me","Other","Stranger","Stranger",833.1,0.8331,1
"128",2,64,"Matching","m38","Me","right","Me","User","Self","Self",640.6,0.6406,1
"129",3,1,"Matching","f15","Stranger","right","Stranger","User","Self","Self",1211.5,1.2115,0
"130",3,2,"Nonmatching","f27","Stranger","right","Stranger","Other","Stranger","Stranger",1598.4,1.5984,1
"131",3,3,"Nonmatching","m35","Me","right","Me","User","Self","Self",2570,2.57,1
"132",3,4,"Nonmatching","f15","Me","right","Me","User","Self","Self",1603.9,1.6039,1
"133",3,5,"Nonmatching","m38","Stranger","right","Stranger","Other","Stranger","Stranger",1226.9,1.2269,1
"134",3,6,"Nonmatching","m33","Stranger","right","Stranger","Other","Stranger","Stranger",1930,1.93,1
"135",3,7,"Matching","m34","Stranger","right","Stranger","User","Self","Self",1415.4,1.4154,0
"136",3,8,"Matching","m34","Stranger","left","Stranger","User","Self","Self",1179,1.179,1
"137",3,9,"Matching","m38","Me","right","Me","Other","Stranger","Stranger",1367.1,1.3671,0
"138",3,10,"Nonmatching","f18","Stranger","left","Stranger","User","Self","Self",783.2,0.7832,1
"139",3,11,"Nonmatching","m33","Me","left","Me","Other","Stranger","Stranger",2294.6,2.2946,1
"140",3,12,"Matching","f27","Stranger","right","Stranger","Other","Stranger","Stranger",1685.8,1.6858,1
"141",3,13,"Nonmatching","f27","Me","left","Me","Other","Stranger","Stranger",1393.2,1.3932,1
"142",3,14,"Matching","m33","Stranger","left","Stranger","Other","Stranger","Stranger",1121.8,1.1218,0
"143",3,15,"Nonmatching","f15","Me","right","Me","User","Self","Self",1060.7,1.0607,1
"144",3,16,"Matching","f15","Me","right","Me","User","Self","Self",929.5,0.9295,1
"145",3,17,"Nonmatching","f27","Stranger","right","Stranger","Other","Stranger","Stranger",1074.2,1.0742,1
"146",3,18,"Matching","m35","Stranger","right","Stranger","User","Self","Self",1069.4,1.0694,0
"147",3,19,"Nonmatching","f15","Stranger","left","Stranger","User","Self","Self",1881.2,1.8812,1
"148",3,20,"Nonmatching","f27","Me","left","Me","Other","Stranger","Stranger",964.1,0.9641,1
"149",3,21,"Matching","f18","Me","left","Me","User","Self","Self",877.2,0.8772,0
"150",3,22,"Matching","m38","Stranger","left","Stranger","Other","Stranger","Stranger",885.6,0.8856,0
"151",3,23,"Nonmatching","f15","Stranger","left","Stranger","User","Self","Self",470.2,0.4702,1
"152",3,24,"Nonmatching","f18","Me","left","Me","User","Self","Self",451.4,0.4514,0
"153",3,25,"Nonmatching","m38","Stranger","left","Stranger","Other","Stranger","Stranger",1544.1,1.5441,0
"154",3,26,"Nonmatching","f18","Me","right","Me","User","Self","Self",871.8,0.8718,1
"155",3,27,"Matching","f15","Me","right","Me","User","Self","Self",1939.1,1.9391,1
"156",3,28,"Nonmatching","m38","Me","left","Me","Other","Stranger","Stranger",610.9,0.6109,1
"157",3,29,"Matching","m34","Me","left","Me","User","Self","Self",863,0.863,0
"158",3,30,"Matching","f4","Me","right","Me","Other","Stranger","Stranger",852.3,0.8523,0
"159",3,31,"Matching","f27","Me","left","Me","Other","Stranger","Stranger",1977.6,1.9776,1
"160",3,32,"Matching","m35","Stranger","left","Stranger","User","Self","Self",1301.9,1.3019,1
"161",3,33,"Matching","f18","Stranger","right","Stranger","User","Self","Self",1797.5,1.7975,0
"162",3,34,"Matching","m38","Stranger","left","Stranger","Other","Stranger","Stranger",684,0.684,0
"163",3,35,"Matching","m35","Me","left","Me","User","Self","Self",709.2,0.7092,0
"164",3,36,"Nonmatching","f18","Stranger","right","Stranger","User","Self","Self",864.9,0.8649,0
"165",3,37,"Matching","m34","Me","left","Me","User","Self","Self",1017.8,1.0178,0
"166",3,38,"Nonmatching","f4","Me","left","Me","Other","Stranger","Stranger",1062.2,1.0622,1
"167",3,39,"Nonmatching","f4","Me","left","Me","Other","Stranger","Stranger",1446.1,1.4461,1
"168",3,40,"Matching","f4","Me","left","Me","Other","Stranger","Stranger",853.8,0.8538,1
"169",3,41,"Nonmatching","m34","Me","left","Me","User","Self","Self",2261.3,2.2613,0
"170",3,42,"Matching","m33","Me","left","Me","Other","Stranger","Stranger",1223.3,1.2233,1
"171",3,43,"Nonmatching","m34","Stranger","left","Stranger","User","Self","Self",489.4,0.4894,1
"172",3,44,"Nonmatching","m35","Stranger","left","Stranger","User","Self","Self",7113.5,7.1135,1
"173",3,45,"Matching","m33","Me","left","Me","Other","Stranger","Stranger",1024.1,1.0241,1
"174",3,46,"Nonmatching","m34","Stranger","right","Stranger","User","Self","Self",1374.6,1.3746,0
"175",3,47,"Matching","f18","Stranger","right","Stranger","User","Self","Self",992.7,0.9927,0
"176",3,48,"Matching","f27","Me","left","Me","Other","Stranger","Stranger",1221.7,1.2217,1
"177",3,49,"Matching","m33","Stranger","right","Stranger","Other","Stranger","Stranger",1081.2,1.0812,1
"178",3,50,"Matching","f4","Stranger","left","Stranger","Other","Stranger","Stranger",2045.4,2.0454,0
"179",3,51,"Matching","f18","Me","right","Me","User","Self","Self",693.3,0.6933,1
"180",3,52,"Matching","f27","Stranger","right","Stranger","Other","Stranger","Stranger",480.2,0.4802,1
"181",3,53,"Nonmatching","f4","Stranger","right","Stranger","Other","Stranger","Stranger",1144,1.144,1
"182",3,54,"Nonmatching","f4","Stranger","right","Stranger","Other","Stranger","Stranger",502.3,0.5023,1
"183",3,55,"Matching","m38","Me","left","Me","Other","Stranger","Stranger",507.6,0.5076,1
"184",3,56,"Nonmatching","m38","Me","right","Me","Other","Stranger","Stranger",394.2,0.3942,0
"185",3,57,"Matching","m35","Me","left","Me","User","Self","Self",737.1,0.7371,0
"186",3,58,"Nonmatching","m33","Me","left","Me","Other","Stranger","Stranger",415.8,0.4158,1
"187",3,59,"Nonmatching","m35","Me","right","Me","User","Self","Self",466.5,0.4665,1
"188",3,60,"Nonmatching","m35","Stranger","left","Stranger","User","Self","Self",450,0.45,1
"189",3,61,"Nonmatching","m33","Stranger","right","Stranger","Other","Stranger","Stranger",411.5,0.4115,1
"190",3,62,"Matching","f4","Stranger","right","Stranger","Other","Stranger","Stranger",2022.6,2.0226,1
"191",3,63,"Matching","f15","Stranger","left","Stranger","User","Self","Self",805.4,0.8054,1
"192",3,64,"Nonmatching","m34","Me","left","Me","User","Self","Self",1447.7,1.4477,0
"193",4,1,"Matching","m33","Me","right","Me","Other","Stranger","Stranger",693,0.693,0
"194",4,2,"Matching","m38","Stranger","right","Stranger","Other","Stranger","Stranger",1754,1.754,1
"195",4,3,"Matching","m33","Me","right","Me","Other","Stranger","Stranger",282,0.282,0
"196",4,4,"Nonmatching","m38","Me","right","Me","Other","Stranger","Stranger",61,0.061,0
"197",4,5,"Matching","m38","Stranger","left","Stranger","Other","Stranger","Stranger",237,0.237,0
"198",4,6,"Nonmatching","f27","Stranger","left","Stranger","Other","Stranger","Stranger",2257,2.257,0
"199",4,7,"Nonmatching","f15","Stranger","right","Stranger","User","Self","Self",260,0.26,0
"200",4,8,"Matching","f18","Stranger","right","Stranger","User","Self","Self",269,0.269,0
"201",4,9,"Matching","f4","Stranger","left","Stranger","Other","Stranger","Stranger",368,0.368,0
"202",4,10,"Matching","m35","Me","right","Me","User","Self","Self",778,0.778,1
"203",4,11,"Matching","m35","Stranger","left","Stranger","User","Self","Self",352,0.352,1
"204",4,12,"Matching","f15","Me","right","Me","User","Self","Self",487,0.487,1
"205",4,13,"Matching","f15","Stranger","left","Stranger","User","Self","Self",348,0.348,1
"206",4,14,"Nonmatching","f27","Me","left","Me","Other","Stranger","Stranger",624,0.624,1
"207",4,15,"Matching","f18","Me","right","Me","User","Self","Self",569,0.569,1
"208",4,16,"Nonmatching","m35","Stranger","right","Stranger","User","Self","Self",624,0.624,0
"209",4,17,"Nonmatching","m35","Stranger","left","Stranger","User","Self","Self",503,0.503,1
"210",4,18,"Nonmatching","f27","Me","left","Me","Other","Stranger","Stranger",434,0.434,1
"211",4,19,"Matching","m33","Stranger","right","Stranger","Other","Stranger","Stranger",852,0.852,1
"212",4,20,"Nonmatching","f4","Stranger","left","Stranger","Other","Stranger","Stranger",804,0.804,0
"213",4,21,"Nonmatching","m34","Me","left","Me","User","Self","Self",559,0.559,0
"214",4,22,"Nonmatching","f18","Stranger","right","Stranger","User","Self","Self",453,0.453,0
"215",4,23,"Nonmatching","f18","Stranger","left","Stranger","User","Self","Self",591,0.591,1
"216",4,24,"Matching","m34","Stranger","right","Stranger","User","Self","Self",676,0.676,0
"217",4,25,"Nonmatching","m34","Me","right","Me","User","Self","Self",546,0.546,1
"218",4,26,"Matching","f15","Me","right","Me","User","Self","Self",565,0.565,1
"219",4,27,"Matching","m34","Me","right","Me","User","Self","Self",500,0.5,1
"220",4,28,"Matching","m38","Me","right","Me","Other","Stranger","Stranger",416,0.416,0
"221",4,29,"Nonmatching","m33","Me","left","Me","Other","Stranger","Stranger",570,0.57,1
"222",4,30,"Nonmatching","m38","Stranger","right","Stranger","Other","Stranger","Stranger",1726,1.726,1
"223",4,31,"Matching","f4","Stranger","right","Stranger","Other","Stranger","Stranger",470,0.47,1
"224",4,32,"Matching","m34","Me","right","Me","User","Self","Self",1659,1.659,1
"225",4,33,"Matching","f27","Stranger","left","Stranger","Other","Stranger","Stranger",688,0.688,0
"226",4,34,"Nonmatching","m34","Stranger","right","Stranger","User","Self","Self",2756,2.756,0
"227",4,35,"Nonmatching","f15","Me","right","Me","User","Self","Self",436,0.436,1
"228",4,36,"Nonmatching","m34","Stranger","left","Stranger","User","Self","Self",767,0.767,1
"229",4,37,"Nonmatching","f4","Me","right","Me","Other","Stranger","Stranger",518,0.518,0
"230",4,38,"Nonmatching","f4","Stranger","right","Stranger","Other","Stranger","Stranger",625,0.625,1
"231",4,39,"Matching","f27","Stranger","right","Stranger","Other","Stranger","Stranger",1842,1.842,1
"232",4,40,"Nonmatching","m33","Stranger","right","Stranger","Other","Stranger","Stranger",403,0.403,1
"233",4,41,"Nonmatching","f27","Stranger","right","Stranger","Other","Stranger","Stranger",384,0.384,1
"234",4,42,"Matching","f4","Me","right","Me","Other","Stranger","Stranger",1246,1.246,0
"235",4,43,"Matching","m34","Stranger","right","Stranger","User","Self","Self",707,0.707,0
"236",4,44,"Matching","m35","Stranger","right","Stranger","User","Self","Self",3772,3.772,0
"237",4,45,"Nonmatching","m38","Me","left","Me","Other","Stranger","Stranger",744,0.744,1
"238",4,46,"Nonmatching","f15","Stranger","left","Stranger","User","Self","Self",552,0.552,1
"239",4,47,"Matching","f15","Stranger","left","Stranger","User","Self","Self",1153,1.153,1
"240",4,48,"Nonmatching","m35","Me","right","Me","User","Self","Self",456,0.456,1
"241",4,49,"Nonmatching","f18","Me","right","Me","User","Self","Self",396,0.396,1
"242",4,50,"Nonmatching","m35","Me","right","Me","User","Self","Self",329,0.329,1
"243",4,51,"Matching","f27","Me","left","Me","Other","Stranger","Stranger",474,0.474,1
"244",4,52,"Matching","m35","Me","right","Me","User","Self","Self",291,0.291,1
"245",4,53,"Matching","f18","Me","right","Me","User","Self","Self",370,0.37,1
"246",4,54,"Nonmatching","f15","Me","right","Me","User","Self","Self",454,0.454,1
"247",4,55,"Matching","f4","Me","right","Me","Other","Stranger","Stranger",496,0.496,0
"248",4,56,"Nonmatching","m38","Stranger","right","Stranger","Other","Stranger","Stranger",382,0.382,1
"249",4,57,"Matching","m33","Stranger","right","Stranger","Other","Stranger","Stranger",426,0.426,1
"250",4,58,"Matching","f18","Stranger","left","Stranger","User","Self","Self",1008,1.008,1
"251",4,59,"Matching","m38","Me","left","Me","Other","Stranger","Stranger",347,0.347,1
"252",4,60,"Nonmatching","m33","Me","left","Me","Other","Stranger","Stranger",1189,1.189,1
"253",4,61,"Nonmatching","m33","Stranger","right","Stranger","Other","Stranger","Stranger",666,0.666,1
"254",4,62,"Nonmatching","f4","Me","right","Me","Other","Stranger","Stranger",400,0.4,0
"255",4,63,"Matching","f27","Me","left","Me","Other","Stranger","Stranger",898,0.898,1
"256",4,64,"Nonmatching","f18","Me","right","Me","User","Self","Self",435,0.435,1
"257",5,1,"Nonmatching","m33","Stranger","left","Stranger","Other","Stranger","Stranger",2148.8,2.1488,0
"258",5,2,"Nonmatching","m35","Me","right","Me","User","Self","Self",2531.6,2.5316,1
"259",5,3,"Nonmatching","m38","Me","right","Me","Other","Stranger","Stranger",1795.3,1.7953,0
"260",5,4,"Nonmatching","m34","Stranger","right","Stranger","User","Self","Self",447.6,0.4476,0
"261",5,5,"Nonmatching","f18","Me","left","Me","User","Self","Self",2803.6,2.8036,0
"262",5,6,"Nonmatching","f15","Me","right","Me","User","Self","Self",773,0.773,1
"263",5,7,"Matching","f27","Stranger","right","Stranger","Other","Stranger","Stranger",910.1,0.9101,1
"264",5,8,"Nonmatching","f18","Stranger","left","Stranger","User","Self","Self",1130.8,1.1308,1
"265",5,9,"Nonmatching","m34","Stranger","left","Stranger","User","Self","Self",1016.4,1.0164,1
"266",5,10,"Matching","f27","Me","left","Me","Other","Stranger","Stranger",863.7,0.8637,1
"267",5,11,"Nonmatching","f15","Me","right","Me","User","Self","Self",616.6,0.6166,1
"268",5,12,"Matching","f4","Me","left","Me","Other","Stranger","Stranger",1288.6,1.2886,1
"269",5,13,"Nonmatching","f4","Me","right","Me","Other","Stranger","Stranger",973.5,0.9735,0
"270",5,14,"Matching","m33","Stranger","right","Stranger","Other","Stranger","Stranger",1494.3,1.4943,1
"271",5,15,"Nonmatching","m35","Stranger","right","Stranger","User","Self","Self",1794.7,1.7947,0
"272",5,16,"Matching","m34","Stranger","right","Stranger","User","Self","Self",3864.5,3.8645,0
"273",5,17,"Nonmatching","f18","Stranger","right","Stranger","User","Self","Self",3485.2,3.4852,0
"274",5,18,"Matching","m35","Me","right","Me","User","Self","Self",602.6,0.6026,1
"275",5,19,"Nonmatching","f4","Me","left","Me","Other","Stranger","Stranger",572.1,0.5721,1
"276",5,20,"Nonmatching","m35","Me","right","Me","User","Self","Self",736.4,0.7364,1
"277",5,21,"Matching","f27","Me","left","Me","Other","Stranger","Stranger",1918.3,1.9183,1
"278",5,22,"Nonmatching","m38","Me","right","Me","Other","Stranger","Stranger",1258.3,1.2583,0
"279",5,23,"Nonmatching","m33","Me","right","Me","Other","Stranger","Stranger",1016.7,1.0167,0
"280",5,24,"Matching","f15","Me","right","Me","User","Self","Self",904.8,0.9048,1
"281",5,25,"Matching","m38","Me","left","Me","Other","Stranger","Stranger",2046.4,2.0464,1
"282",5,26,"Nonmatching","f27","Me","left","Me","Other","Stranger","Stranger",396,0.396,1
"283",5,27,"Matching","m35","Stranger","left","Stranger","User","Self","Self",647.7,0.6477,1
"284",5,28,"Matching","m33","Me","left","Me","Other","Stranger","Stranger",953.6,0.9536,1
"285",5,29,"Nonmatching","f4","Stranger","left","Stranger","Other","Stranger","Stranger",1216.8,1.2168,0
"286",5,30,"Matching","m33","Me","left","Me","Other","Stranger","Stranger",627.5,0.6275,1
"287",5,31,"Matching","f18","Me","right","Me","User","Self","Self",693.6,0.6936,1
"288",5,32,"Matching","f15","Stranger","left","Stranger","User","Self","Self",789,0.789,1
"289",5,33,"Nonmatching","m38","Stranger","right","Stranger","Other","Stranger","Stranger",1331.7,1.3317,1
"290",5,34,"Matching","m35","Me","right","Me","User","Self","Self",624.9,0.6249,1
"291",5,35,"Matching","m38","Me","right","Me","Other","Stranger","Stranger",619.9,0.6199,0
"292",5,36,"Nonmatching","m33","Stranger","right","Stranger","Other","Stranger","Stranger",1073.3,1.0733,1
"293",5,37,"Matching","f27","Stranger","left","Stranger","Other","Stranger","Stranger",896.4,0.8964,0
"294",5,38,"Matching","m34","Me","right","Me","User","Self","Self",961.9,0.9619,1
"295",5,39,"Matching","f4","Stranger","right","Stranger","Other","Stranger","Stranger",2160.1,2.1601,1
"296",5,40,"Nonmatching","f27","Stranger","left","Stranger","Other","Stranger","Stranger",749.6,0.7496,0
"297",5,41,"Nonmatching","f18","Me","right","Me","User","Self","Self",583.6,0.5836,1
"298",5,42,"Matching","m34","Me","right","Me","User","Self","Self",539.7,0.5397,1
"299",5,43,"Matching","f18","Me","right","Me","User","Self","Self",692,0.692,1
"300",5,44,"Matching","f4","Me","left","Me","Other","Stranger","Stranger",544.4,0.5444,1
"301",5,45,"Matching","f18","Stranger","left","Stranger","User","Self","Self",1085.5,1.0855,1
"302",5,46,"Matching","m33","Stranger","right","Stranger","Other","Stranger","Stranger",780.5,0.7805,1
"303",5,47,"Matching","m38","Stranger","right","Stranger","Other","Stranger","Stranger",1494.3,1.4943,1
"304",5,48,"Matching","m34","Stranger","right","Stranger","User","Self","Self",1417.1,1.4171,0
"305",5,49,"Matching","m35","Stranger","right","Stranger","User","Self","Self",886.3,0.8863,0
"306",5,50,"Matching","f4","Stranger","left","Stranger","Other","Stranger","Stranger",2873.1,2.8731,0
"307",5,51,"Nonmatching","f4","Stranger","right","Stranger","Other","Stranger","Stranger",1201.9,1.2019,1
"308",5,52,"Nonmatching","m35","Stranger","left","Stranger","User","Self","Self",967.8,0.9678,1
"309",5,53,"Nonmatching","f15","Stranger","left","Stranger","User","Self","Self",1052.9,1.0529,1
"310",5,54,"Nonmatching","m34","Me","right","Me","User","Self","Self",1204.3,1.2043,1
"311",5,55,"Nonmatching","m34","Me","right","Me","User","Self","Self",698.2,0.6982,1
"312",5,56,"Nonmatching","m33","Me","left","Me","Other","Stranger","Stranger",998.4,0.9984,1
"313",5,57,"Matching","m38","Stranger","right","Stranger","Other","Stranger","Stranger",1203.3,1.2033,1
"314",5,58,"Nonmatching","f27","Stranger","right","Stranger","Other","Stranger","Stranger",1307.2,1.3072,1
"315",5,59,"Matching","f18","Stranger","right","Stranger","User","Self","Self",1322.3,1.3223,0
"316",5,60,"Matching","f15","Me","right","Me","User","Self","Self",548.3,0.5483,1
"317",5,61,"Matching","f15","Stranger","left","Stranger","User","Self","Self",767.2,0.7672,1
"318",5,62,"Nonmatching","f15","Stranger","left","Stranger","User","Self","Self",897.1,0.8971,1
"319",5,63,"Nonmatching","f27","Me","right","Me","Other","Stranger","Stranger",715,0.715,0
"320",5,64,"Nonmatching","m38","Stranger","left","Stranger","Other","Stranger","Stranger",786.6,0.7866,0
"321",6,1,"Matching","f15","Stranger","left","Stranger","User","Self","Self",1838,1.838,1
"322",6,2,"Nonmatching","f18","Me","right","Me","User","Self","Self",992,0.992,1
"323",6,3,"Nonmatching","m38","Stranger","left","Stranger","Other","Stranger","Stranger",732,0.732,0
"324",6,4,"Matching","m34","Stranger","left","Stranger","User","Self","Self",1011,1.011,1
"325",6,5,"Nonmatching","f4","Stranger","right","Stranger","Other","Stranger","Stranger",979,0.979,1
"326",6,6,"Nonmatching","f27","Me","right","Me","Other","Stranger","Stranger",783,0.783,0
"327",6,7,"Matching","f27","Me","left","Me","Other","Stranger","Stranger",989,0.989,1
"328",6,8,"Nonmatching","m34","Stranger","left","Stranger","User","Self","Self",711,0.711,1
"329",6,9,"Matching","m38","Stranger","left","Stranger","Other","Stranger","Stranger",672,0.672,0
"330",6,10,"Matching","m33","Stranger","right","Stranger","Other","Stranger","Stranger",961,0.961,1
"331",6,11,"Matching","m35","Stranger","right","Stranger","User","Self","Self",696,0.696,0
"332",6,12,"Matching","m35","Stranger","right","Stranger","User","Self","Self",1349,1.349,0
"333",6,13,"Nonmatching","m34","Stranger","left","Stranger","User","Self","Self",743,0.743,1
"334",6,14,"Nonmatching","f15","Stranger","left","Stranger","User","Self","Self",922,0.922,1
"335",6,15,"Nonmatching","m38","Stranger","right","Stranger","Other","Stranger","Stranger",786,0.786,1
"336",6,16,"Nonmatching","m34","Me","right","Me","User","Self","Self",635,0.635,1
"337",6,17,"Nonmatching","m35","Stranger","right","Stranger","User","Self","Self",771,0.771,0
"338",6,18,"Matching","f18","Me","right","Me","User","Self","Self",669,0.669,1
"339",6,19,"Matching","m33","Me","left","Me","Other","Stranger","Stranger",843,0.843,1
"340",6,20,"Nonmatching","m38","Me","left","Me","Other","Stranger","Stranger",718,0.718,1
"341",6,21,"Nonmatching","f27","Stranger","left","Stranger","Other","Stranger","Stranger",1172,1.172,0
"342",6,22,"Matching","f27","Me","left","Me","Other","Stranger","Stranger",870,0.87,1
"343",6,23,"Nonmatching","f4","Stranger","right","Stranger","Other","Stranger","Stranger",727,0.727,1
"344",6,24,"Matching","m33","Stranger","right","Stranger","Other","Stranger","Stranger",783,0.783,1
"345",6,25,"Matching","f15","Me","right","Me","User","Self","Self",606,0.606,1
"346",6,26,"Matching","f15","Stranger","left","Stranger","User","Self","Self",559,0.559,1
"347",6,27,"Matching","f18","Stranger","right","Stranger","User","Self","Self",1430,1.43,0
"348",6,28,"Nonmatching","f15","Me","right","Me","User","Self","Self",569,0.569,1
"349",6,29,"Matching","f4","Me","left","Me","Other","Stranger","Stranger",618,0.618,1
"350",6,30,"Matching","m34","Me","right","Me","User","Self","Self",590,0.59,1
"351",6,31,"Matching","f18","Me","right","Me","User","Self","Self",715,0.715,1
"352",6,32,"Matching","f18","Stranger","left","Stranger","User","Self","Self",664,0.664,1
"353",6,33,"Matching","f4","Stranger","right","Stranger","Other","Stranger","Stranger",1574,1.574,1
"354",6,34,"Nonmatching","f4","Me","left","Me","Other","Stranger","Stranger",703,0.703,1
"355",6,35,"Nonmatching","f18","Me","right","Me","User","Self","Self",477,0.477,1
"356",6,36,"Matching","m34","Me","right","Me","User","Self","Self",457,0.457,1
"357",6,37,"Nonmatching","m35","Me","left","Me","User","Self","Self",792,0.792,0
"358",6,38,"Nonmatching","f18","Stranger","left","Stranger","User","Self","Self",514,0.514,1
"359",6,39,"Matching","f27","Stranger","left","Stranger","Other","Stranger","Stranger",682,0.682,0
"360",6,40,"Nonmatching","f15","Me","right","Me","User","Self","Self",408,0.408,1
"361",6,41,"Matching","m33","Me","left","Me","Other","Stranger","Stranger",544,0.544,1
"362",6,42,"Nonmatching","f15","Stranger","left","Stranger","User","Self","Self",515,0.515,1
"363",6,43,"Matching","f4","Stranger","left","Stranger","Other","Stranger","Stranger",1787,1.787,0
"364",6,44,"Matching","f27","Stranger","left","Stranger","Other","Stranger","Stranger",560,0.56,0
"365",6,45,"Nonmatching","m33","Me","left","Me","Other","Stranger","Stranger",628,0.628,1
"366",6,46,"Nonmatching","f27","Me","right","Me","Other","Stranger","Stranger",1522,1.522,0
"367",6,47,"Nonmatching","m34","Me","right","Me","User","Self","Self",371,0.371,1
"368",6,48,"Nonmatching","m33","Stranger","right","Stranger","Other","Stranger","Stranger",388,0.388,1
"369",6,49,"Nonmatching","m33","Stranger","right","Stranger","Other","Stranger","Stranger",515,0.515,1
"370",6,50,"Nonmatching","f27","Stranger","right","Stranger","Other","Stranger","Stranger",742,0.742,1
"371",6,51,"Matching","m38","Stranger","right","Stranger","Other","Stranger","Stranger",496,0.496,1
"372",6,52,"Matching","m38","Me","left","Me","Other","Stranger","Stranger",462,0.462,1
"373",6,53,"Matching","m35","Me","left","Me","User","Self","Self",1150,1.15,0
"374",6,54,"Nonmatching","m35","Stranger","right","Stranger","User","Self","Self",983,0.983,0
"375",6,55,"Matching","m35","Me","right","Me","User","Self","Self",624,0.624,1
"376",6,56,"Nonmatching","m33","Me","left","Me","Other","Stranger","Stranger",499,0.499,1
"377",6,57,"Nonmatching","m35","Me","right","Me","User","Self","Self",507,0.507,1
"378",6,58,"Nonmatching","f18","Stranger","left","Stranger","User","Self","Self",627,0.627,1
"379",6,59,"Nonmatching","m38","Me","left","Me","Other","Stranger","Stranger",932,0.932,1
"380",6,60,"Matching","f4","Me","left","Me","Other","Stranger","Stranger",606,0.606,1
"381",6,61,"Matching","m38","Me","left","Me","Other","Stranger","Stranger",633,0.633,1
"382",6,62,"Matching","m34","Stranger","left","Stranger","User","Self","Self",541,0.541,1
"383",6,63,"Matching","f15","Me","left","Me","User","Self","Self",770,0.77,0
"384",6,64,"Nonmatching","f4","Me","left","Me","Other","Stranger","Stranger",618,0.618,1
"385",7,1,"Matching","f27","Stranger","right","Stranger","Other","Stranger","Stranger",8111.7,8.1117,1
"386",7,2,"Matching","f4","Stranger","left","Stranger","Other","Stranger","Stranger",4764.1,4.7641,0
"387",7,3,"Matching","m34","Stranger","left","Stranger","User","Self","Self",4130.8,4.1308,1
"388",7,4,"Matching","m34","Me","right","Me","User","Self","Self",3353.4,3.3534,1
"389",7,5,"Nonmatching","m33","Me","right","Me","Other","Stranger","Stranger",1049.9,1.0499,0
"390",7,6,"Matching","m34","Me","right","Me","User","Self","Self",822.1,0.8221,1
"391",7,7,"Matching","m35","Me","right","Me","User","Self","Self",1188.6,1.1886,1
"392",7,8,"Nonmatching","f15","Me","right","Me","User","Self","Self",4058.1,4.0581,1
"393",7,9,"Nonmatching","f27","Me","left","Me","Other","Stranger","Stranger",2136.5,2.1365,1
"394",7,10,"Nonmatching","f4","Me","right","Me","Other","Stranger","Stranger",3234.3,3.2343,0
"395",7,11,"Matching","m38","Stranger","left","Stranger","Other","Stranger","Stranger",2171.9,2.1719,0
"396",7,12,"Nonmatching","f18","Me","left","Me","User","Self","Self",4289.2,4.2892,0
"397",7,13,"Matching","f4","Me","left","Me","Other","Stranger","Stranger",3305.6,3.3056,1
"398",7,14,"Nonmatching","f15","Stranger","right","Stranger","User","Self","Self",4958.1,4.9581,0
"399",7,15,"Matching","f18","Stranger","left","Stranger","User","Self","Self",5764.6,5.7646,1
"400",7,16,"Matching","m35","Me","right","Me","User","Self","Self",4591,4.591,1
"401",7,17,"Matching","m33","Stranger","right","Stranger","Other","Stranger","Stranger",3489.7,3.4897,1
"402",7,18,"Matching","f4","Stranger","right","Stranger","Other","Stranger","Stranger",5007,5.007,1
"403",7,19,"Nonmatching","f27","Stranger","right","Stranger","Other","Stranger","Stranger",4414.4,4.4144,1
"404",7,20,"Nonmatching","m33","Stranger","right","Stranger","Other","Stranger","Stranger",1031.3,1.0313,1
"405",7,21,"Matching","m35","Stranger","left","Stranger","User","Self","Self",3981.3,3.9813,1
"406",7,22,"Matching","f18","Me","right","Me","User","Self","Self",3141.7,3.1417,1
"407",7,23,"Matching","f4","Me","left","Me","Other","Stranger","Stranger",1621.8,1.6218,1
"408",7,24,"Nonmatching","f4","Me","left","Me","Other","Stranger","Stranger",5635.7,5.6357,1
"409",7,25,"Matching","m35","Stranger","left","Stranger","User","Self","Self",2818.7,2.8187,1
"410",7,26,"Nonmatching","m38","Me","left","Me","Other","Stranger","Stranger",3929.4,3.9294,1
"411",7,27,"Matching","f15","Stranger","right","Stranger","User","Self","Self",1383.5,1.3835,0
"412",7,28,"Nonmatching","m34","Me","right","Me","User","Self","Self",5288.9,5.2889,1
"413",7,29,"Nonmatching","m38","Me","left","Me","Other","Stranger","Stranger",1372.3,1.3723,1
"414",7,30,"Nonmatching","f27","Me","left","Me","Other","Stranger","Stranger",2287.6,2.2876,1
"415",7,31,"Nonmatching","m33","Stranger","right","Stranger","Other","Stranger","Stranger",3107.4,3.1074,1
"416",7,32,"Nonmatching","m35","Me","right","Me","User","Self","Self",1537.8,1.5378,1
"417",7,33,"Matching","f27","Me","left","Me","Other","Stranger","Stranger",1382.4,1.3824,1
"418",7,34,"Matching","m38","Stranger","right","Stranger","Other","Stranger","Stranger",3365.6,3.3656,1
"419",7,35,"Nonmatching","f18","Me","right","Me","User","Self","Self",2236.9,2.2369,1
"420",7,36,"Nonmatching","m34","Stranger","left","Stranger","User","Self","Self",1315.3,1.3153,1
"421",7,37,"Matching","f18","Me","right","Me","User","Self","Self",1501.4,1.5014,1
"422",7,38,"Nonmatching","m35","Me","right","Me","User","Self","Self",1420.8,1.4208,1
"423",7,39,"Nonmatching","f4","Stranger","right","Stranger","Other","Stranger","Stranger",987.9,0.9879,1
"424",7,40,"Matching","m38","Me","left","Me","Other","Stranger","Stranger",2105.3,2.1053,1
"425",7,41,"Nonmatching","m38","Stranger","left","Stranger","Other","Stranger","Stranger",3578,3.578,0
"426",7,42,"Matching","m33","Me","left","Me","Other","Stranger","Stranger",2729.6,2.7296,1
"427",7,43,"Nonmatching","m35","Stranger","right","Stranger","User","Self","Self",2295.1,2.2951,0
"428",7,44,"Nonmatching","m35","Stranger","left","Stranger","User","Self","Self",2544.3,2.5443,1
"429",7,45,"Nonmatching","f15","Stranger","right","Stranger","User","Self","Self",1200.6,1.2006,0
"430",7,46,"Matching","m33","Me","left","Me","Other","Stranger","Stranger",1004,1.004,1
"431",7,47,"Nonmatching","m38","Stranger","right","Stranger","Other","Stranger","Stranger",2439.3,2.4393,1
"432",7,48,"Nonmatching","m34","Stranger","left","Stranger","User","Self","Self",1214,1.214,1
"433",7,49,"Nonmatching","f27","Stranger","right","Stranger","Other","Stranger","Stranger",3421.8,3.4218,1
"434",7,50,"Matching","f27","Me","left","Me","Other","Stranger","Stranger",1175,1.175,1
"435",7,51,"Nonmatching","m34","Me","right","Me","User","Self","Self",1006.5,1.0065,1
"436",7,52,"Nonmatching","f4","Stranger","right","Stranger","Other","Stranger","Stranger",971.9,0.9719,1
"437",7,53,"Matching","m34","Stranger","left","Stranger","User","Self","Self",1090.8,1.0908,1
"438",7,54,"Nonmatching","m33","Me","left","Me","Other","Stranger","Stranger",2333.8,2.3338,1
"439",7,55,"Matching","f15","Stranger","right","Stranger","User","Self","Self",2614.6,2.6146,0
"440",7,56,"Matching","f15","Me","right","Me","User","Self","Self",1718.9,1.7189,1
"441",7,57,"Matching","f18","Stranger","left","Stranger","User","Self","Self",1135.7,1.1357,1
"442",7,58,"Nonmatching","f18","Stranger","left","Stranger","User","Self","Self",2963.3,2.9633,1
"443",7,59,"Matching","m33","Stranger","right","Stranger","Other","Stranger","Stranger",1205.2,1.2052,1
"444",7,60,"Nonmatching","f18","Stranger","left","Stranger","User","Self","Self",1863.1,1.8631,1
"445",7,61,"Matching","m38","Me","left","Me","Other","Stranger","Stranger",1150.1,1.1501,1
"446",7,62,"Matching","f15","Me","left","Me","User","Self","Self",3887.9,3.8879,0
"447",7,63,"Nonmatching","f15","Me","right","Me","User","Self","Self",1662.4,1.6624,1
"448",7,64,"Matching","f27","Stranger","right","Stranger","Other","Stranger","Stranger",1157.8,1.1578,1
"449",8,1,"Nonmatching","f18","Me","left","Me","Other","Stranger","Stranger",1165,1.165,1
"450",8,2,"Matching","m38","Stranger","left","Stranger","User","Self","Self",870,0.87,1
"451",8,3,"Nonmatching","m33","Stranger","left","Stranger","User","Self","Self",499,0.499,1
"452",8,4,"Matching","m34","Me","left","Me","Other","Stranger","Stranger",736,0.736,1
"453",8,5,"Matching","m33","Me","right","Me","User","Self","Self",450,0.45,1
"454",8,6,"Matching","f18","Stranger","right","Stranger","Other","Stranger","Stranger",720,0.72,1
"455",8,7,"Nonmatching","m35","Me","left","Me","Other","Stranger","Stranger",500,0.5,1
"456",8,8,"Nonmatching","f27","Me","right","Me","User","Self","Self",440,0.44,1
"457",8,9,"Nonmatching","f4","Me","right","Me","User","Self","Self",535,0.535,1
"458",8,10,"Nonmatching","f18","Stranger","left","Stranger","Other","Stranger","Stranger",1232,1.232,0
"459",8,11,"Nonmatching","m33","Stranger","left","Stranger","User","Self","Self",807,0.807,1
"460",8,12,"Matching","m34","Me","left","Me","Other","Stranger","Stranger",399,0.399,1
"461",8,13,"Matching","f4","Me","right","Me","User","Self","Self",422,0.422,1
"462",8,14,"Nonmatching","m35","Me","left","Me","Other","Stranger","Stranger",510,0.51,1
"463",8,15,"Matching","m33","Stranger","left","Stranger","User","Self","Self",632,0.632,1
"464",8,16,"Matching","m33","Me","right","Me","User","Self","Self",376,0.376,1
"465",8,17,"Nonmatching","m38","Stranger","left","Stranger","User","Self","Self",592,0.592,1
"466",8,18,"Nonmatching","f15","Stranger","right","Stranger","Other","Stranger","Stranger",401,0.401,1
"467",8,19,"Matching","m38","Me","right","Me","User","Self","Self",353,0.353,1
"468",8,20,"Nonmatching","m33","Me","right","Me","User","Self","Self",434,0.434,1
"469",8,21,"Nonmatching","m38","Me","right","Me","User","Self","Self",457,0.457,1
"470",8,22,"Nonmatching","f15","Me","left","Me","Other","Stranger","Stranger",486,0.486,1
"471",8,23,"Matching","f27","Stranger","left","Stranger","User","Self","Self",419,0.419,1
"472",8,24,"Nonmatching","m33","Me","right","Me","User","Self","Self",362,0.362,1
"473",8,25,"Nonmatching","m35","Stranger","right","Stranger","Other","Stranger","Stranger",484,0.484,1
"474",8,26,"Matching","f27","Me","right","Me","User","Self","Self",889,0.889,1
"475",8,27,"Matching","m35","Stranger","right","Stranger","Other","Stranger","Stranger",597,0.597,1
"476",8,28,"Matching","f15","Me","right","Me","Other","Stranger","Stranger",445,0.445,0
"477",8,29,"Nonmatching","f4","Stranger","left","Stranger","User","Self","Self",459,0.459,1
"478",8,30,"Nonmatching","f4","Stranger","left","Stranger","User","Self","Self",665,0.665,1
"479",8,31,"Nonmatching","m35","Stranger","right","Stranger","Other","Stranger","Stranger",429,0.429,1
"480",8,32,"Matching","f18","Stranger","left","Stranger","Other","Stranger","Stranger",486,0.486,0
"481",8,33,"Nonmatching","m34","Stranger","right","Stranger","Other","Stranger","Stranger",617,0.617,1
"482",8,34,"Matching","m35","Me","left","Me","Other","Stranger","Stranger",784,0.784,1
"483",8,35,"Matching","f18","Me","left","Me","Other","Stranger","Stranger",560,0.56,1
"484",8,36,"Matching","f27","Stranger","left","Stranger","User","Self","Self",1011,1.011,1
"485",8,37,"Matching","m38","Stranger","left","Stranger","User","Self","Self",906,0.906,1
"486",8,38,"Nonmatching","m34","Me","left","Me","Other","Stranger","Stranger",422,0.422,1
"487",8,39,"Matching","f4","Stranger","left","Stranger","User","Self","Self",564,0.564,1
"488",8,40,"Matching","f4","Me","right","Me","User","Self","Self",471,0.471,1
"489",8,41,"Nonmatching","f15","Stranger","right","Stranger","Other","Stranger","Stranger",1115,1.115,1
"490",8,42,"Nonmatching","m38","Stranger","left","Stranger","User","Self","Self",430,0.43,1
"491",8,43,"Nonmatching","f27","Stranger","left","Stranger","User","Self","Self",550,0.55,1
"492",8,44,"Nonmatching","m38","Me","right","Me","User","Self","Self",871,0.871,1
"493",8,45,"Matching","m35","Stranger","right","Stranger","Other","Stranger","Stranger",437,0.437,1
"494",8,46,"Matching","f18","Me","left","Me","Other","Stranger","Stranger",619,0.619,1
"495",8,47,"Nonmatching","f18","Stranger","right","Stranger","Other","Stranger","Stranger",724,0.724,1
"496",8,48,"Matching","m35","Me","left","Me","Other","Stranger","Stranger",814,0.814,1
"497",8,49,"Matching","f15","Stranger","right","Stranger","Other","Stranger","Stranger",397,0.397,1
"498",8,50,"Matching","f27","Me","right","Me","User","Self","Self",405,0.405,1
"499",8,51,"Nonmatching","f4","Me","right","Me","User","Self","Self",766,0.766,1
"500",8,52,"Matching","m33","Stranger","left","Stranger","User","Self","Self",446,0.446,1
"501",8,53,"Nonmatching","m34","Stranger","right","Stranger","Other","Stranger","Stranger",405,0.405,1
"502",8,54,"Matching","m34","Stranger","right","Stranger","Other","Stranger","Stranger",828,0.828,1
"503",8,55,"Nonmatching","f27","Stranger","left","Stranger","User","Self","Self",970,0.97,1
"504",8,56,"Nonmatching","m34","Me","left","Me","Other","Stranger","Stranger",604,0.604,1
"505",8,57,"Matching","f15","Stranger","right","Stranger","Other","Stranger","Stranger",540,0.54,1
"506",8,58,"Matching","f4","Stranger","left","Stranger","User","Self","Self",950,0.95,1
"507",8,59,"Nonmatching","f18","Me","left","Me","Other","Stranger","Stranger",1160,1.16,1
"508",8,60,"Nonmatching","f27","Me","right","Me","User","Self","Self",1066,1.066,1
"509",8,61,"Matching","m34","Stranger","right","Stranger","Other","Stranger","Stranger",1006,1.006,1
"510",8,62,"Matching","m38","Me","right","Me","User","Self","Self",430,0.43,1
"511",8,63,"Matching","f15","Me","left","Me","Other","Stranger","Stranger",573,0.573,1
"512",8,64,"Nonmatching","f15","Me","left","Me","Other","Stranger","Stranger",822,0.822,1
"513",9,1,"Matching","m34","Stranger","left","Stranger","User","Self","Self",2701.6,2.7016,1
"514",9,2,"Matching","f15","Stranger","right","Stranger","User","Self","Self",4165.6,4.1656,0
"515",9,3,"Matching","m35","Stranger","right","Stranger","User","Self","Self",2439.8,2.4398,0
"516",9,4,"Matching","f18","Me","left","Me","User","Self","Self",1755.5,1.7555,0
"517",9,5,"Matching","f18","Me","right","Me","User","Self","Self",1779.5,1.7795,1
"518",9,6,"Matching","m33","Me","right","Me","Other","Stranger","Stranger",1355.4,1.3554,0
"519",9,7,"Nonmatching","f27","Me","left","Me","Other","Stranger","Stranger",1389.7,1.3897,1
"520",9,8,"Nonmatching","m38","Stranger","right","Stranger","Other","Stranger","Stranger",3645.7,3.6457,1
"521",9,9,"Matching","m33","Stranger","left","Stranger","Other","Stranger","Stranger",1689.3,1.6893,0
"522",9,10,"Matching","f27","Stranger","left","Stranger","Other","Stranger","Stranger",1633.5,1.6335,0
"523",9,11,"Nonmatching","m35","Stranger","left","Stranger","User","Self","Self",1464.6,1.4646,1
"524",9,12,"Nonmatching","m38","Me","left","Me","Other","Stranger","Stranger",966.1000001,0.9661000001,1
"525",9,13,"Nonmatching","f15","Stranger","left","Stranger","User","Self","Self",1206.4,1.2064,1
"526",9,14,"Nonmatching","m33","Me","right","Me","Other","Stranger","Stranger",1113.9,1.1139,0
"527",9,15,"Nonmatching","f18","Stranger","left","Stranger","User","Self","Self",1554.3,1.5543,1
"528",9,16,"Matching","f4","Me","left","Me","Other","Stranger","Stranger",1109,1.109,1
"529",9,17,"Matching","f27","Me","right","Me","Other","Stranger","Stranger",779.2,0.7792,0
"530",9,18,"Nonmatching","m33","Stranger","right","Stranger","Other","Stranger","Stranger",1309.6,1.3096,1
"531",9,19,"Matching","m35","Me","left","Me","User","Self","Self",1503.4,1.5034,0
"532",9,20,"Matching","m38","Stranger","right","Stranger","Other","Stranger","Stranger",3568.5,3.5685,1
"533",9,21,"Matching","f27","Stranger","right","Stranger","Other","Stranger","Stranger",957.7,0.9577,1
"534",9,22,"Matching","m33","Me","left","Me","Other","Stranger","Stranger",1177.7,1.1777,1
"535",9,23,"Matching","f4","Me","left","Me","Other","Stranger","Stranger",1313.2,1.3132,1
"536",9,24,"Matching","m38","Me","left","Me","Other","Stranger","Stranger",791.0999999,0.7910999999,1
"537",9,25,"Matching","m33","Stranger","right","Stranger","Other","Stranger","Stranger",650.0999999,0.6500999999,1
"538",9,26,"Nonmatching","f4","Me","left","Me","Other","Stranger","Stranger",720.7,0.7207,1
"539",9,27,"Matching","m38","Me","left","Me","Other","Stranger","Stranger",958.1000001,0.9581000001,1
"540",9,28,"Nonmatching","f27","Stranger","right","Stranger","Other","Stranger","Stranger",661.6000001,0.6616000001,1
"541",9,29,"Nonmatching","m35","Me","left","Me","User","Self","Self",548.5,0.5485,0
"542",9,30,"Nonmatching","m34","Stranger","right","Stranger","User","Self","Self",766,0.766,0
"543",9,31,"Nonmatching","f15","Stranger","left","Stranger","User","Self","Self",1036.6,1.0366,1
"544",9,32,"Nonmatching","f18","Stranger","right","Stranger","User","Self","Self",767.5,0.7675,0
"545",9,33,"Nonmatching","m38","Me","right","Me","Other","Stranger","Stranger",1219.2,1.2192,0
"546",9,34,"Matching","m35","Me","right","Me","User","Self","Self",756.5,0.7565,1
"547",9,35,"Nonmatching","m34","Stranger","right","Stranger","User","Self","Self",895.1000001,0.8951000001,0
"548",9,36,"Matching","f4","Stranger","right","Stranger","Other","Stranger","Stranger",675.0999999,0.6750999999,1
"549",9,37,"Nonmatching","m34","Me","right","Me","User","Self","Self",763.5999999,0.7635999999,1
"550",9,38,"Matching","m34","Stranger","left","Stranger","User","Self","Self",815.4000001,0.8154000001,1
"551",9,39,"Matching","f4","Stranger","right","Stranger","Other","Stranger","Stranger",709.3999999,0.7093999999,1
"552",9,40,"Nonmatching","f4","Me","left","Me","Other","Stranger","Stranger",579.3,0.5793,1
"553",9,41,"Nonmatching","f15","Me","right","Me","User","Self","Self",701.2,0.7012,1
"554",9,42,"Matching","m38","Stranger","right","Stranger","Other","Stranger","Stranger",932.5999999,0.9325999999,1
"555",9,43,"Nonmatching","m33","Stranger","right","Stranger","Other","Stranger","Stranger",839.5,0.8395,1
"556",9,44,"Nonmatching","f15","Me","right","Me","User","Self","Self",632.3000002,0.6323000002,1
"557",9,45,"Nonmatching","m38","Stranger","right","Stranger","Other","Stranger","Stranger",1059.5,1.0595,1
"558",9,46,"Nonmatching","f27","Me","left","Me","Other","Stranger","Stranger",501,0.501,1
"559",9,47,"Nonmatching","f27","Stranger","right","Stranger","Other","Stranger","Stranger",682.6000001,0.6826000001,1
"560",9,48,"Matching","m35","Stranger","left","Stranger","User","Self","Self",746.9000001,0.7469000001,1
"561",9,49,"Matching","m34","Me","right","Me","User","Self","Self",1184.2,1.1842,1
"562",9,50,"Matching","f18","Stranger","right","Stranger","User","Self","Self",1034.4,1.0344,0
"563",9,51,"Nonmatching","m33","Me","left","Me","Other","Stranger","Stranger",1269.9,1.2699,1
"564",9,52,"Matching","m34","Me","right","Me","User","Self","Self",758.8,0.7588,1
"565",9,53,"Nonmatching","f18","Me","left","Me","User","Self","Self",969.8,0.9698,0
"566",9,54,"Matching","f15","Stranger","left","Stranger","User","Self","Self",1028.2,1.0282,1
"567",9,55,"Nonmatching","f4","Stranger","right","Stranger","Other","Stranger","Stranger",528.7,0.5287,1
"568",9,56,"Nonmatching","f18","Me","right","Me","User","Self","Self",586.6999998,0.5866999998,1
"569",9,57,"Matching","f15","Me","right","Me","User","Self","Self",516.9000001,0.5169000001,1
"570",9,58,"Matching","f27","Me","left","Me","Other","Stranger","Stranger",658.5,0.6585,1
"571",9,59,"Nonmatching","m35","Stranger","right","Stranger","User","Self","Self",1039.1,1.0391,0
"572",9,60,"Nonmatching","f4","Stranger","right","Stranger","Other","Stranger","Stranger",680.8999999,0.6808999999,1
"573",9,61,"Matching","f18","Stranger","left","Stranger","User","Self","Self",738.7,0.7387,1
"574",9,62,"Matching","f15","Me","right","Me","User","Self","Self",496.5,0.4965,1
"575",9,63,"Nonmatching","m35","Me","left","Me","User","Self","Self",1021.6,1.0216,0
"576",9,64,"Nonmatching","m34","Me","right","Me","User","Self","Self",1352.2,1.3522,1
"577",10,1,"Nonmatching","m35","Me","left","Me","User","Self","Self",2618.4,2.6184,0
"578",10,2,"Matching","f15","Me","right","Me","User","Self","Self",1411.1,1.4111,1
"579",10,3,"Matching","m33","Me","right","Me","Other","Stranger","Stranger",1093.2,1.0932,0
"580",10,4,"Nonmatching","f18","Me","right","Me","User","Self","Self",589.3,0.5893,1
"581",10,5,"Nonmatching","f18","Me","right","Me","User","Self","Self",821.6,0.8216,1
"582",10,6,"Matching","f4","Stranger","right","Stranger","Other","Stranger","Stranger",1112,1.112,1
"583",10,7,"Matching","f15","Stranger","left","Stranger","User","Self","Self",1659,1.659,1
"584",10,8,"Nonmatching","m38","Stranger","right","Stranger","Other","Stranger","Stranger",905.4,0.9054,1
"585",10,9,"Nonmatching","f4","Me","left","Me","Other","Stranger","Stranger",1977.7,1.9777,1
"586",10,10,"Nonmatching","m33","Me","left","Me","Other","Stranger","Stranger",608.2,0.6082,1
"587",10,11,"Nonmatching","m34","Stranger","left","Stranger","User","Self","Self",1893.6,1.8936,1
"588",10,12,"Nonmatching","f15","Me","right","Me","User","Self","Self",454,0.454,1
"589",10,13,"Matching","m35","Me","right","Me","User","Self","Self",1127.5,1.1275,1
"590",10,14,"Matching","m38","Me","left","Me","Other","Stranger","Stranger",876.2,0.8762,1
"591",10,15,"Nonmatching","f15","Me","right","Me","User","Self","Self",490.9,0.4909,1
"592",10,16,"Nonmatching","m34","Me","right","Me","User","Self","Self",642.9,0.6429,1
"593",10,17,"Matching","m38","Stranger","right","Stranger","Other","Stranger","Stranger",758.5,0.7585,1
"594",10,18,"Matching","m38","Stranger","right","Stranger","Other","Stranger","Stranger",567.6,0.5676,1
"595",10,19,"Nonmatching","m38","Me","left","Me","Other","Stranger","Stranger",529.2,0.5292,1
"596",10,20,"Matching","f4","Me","left","Me","Other","Stranger","Stranger",613.6,0.6136,1
"597",10,21,"Matching","f18","Stranger","left","Stranger","User","Self","Self",876.5,0.8765,1
"598",10,22,"Matching","f4","Stranger","right","Stranger","Other","Stranger","Stranger",836.1,0.8361,1
"599",10,23,"Matching","m38","Me","left","Me","Other","Stranger","Stranger",914.1,0.9141,1
"600",10,24,"Matching","m35","Stranger","left","Stranger","User","Self","Self",1375.6,1.3756,1
"601",10,25,"Nonmatching","f18","Stranger","left","Stranger","User","Self","Self",768.6,0.7686,1
"602",10,26,"Nonmatching","m35","Me","right","Me","User","Self","Self",1019.2,1.0192,1
"603",10,27,"Nonmatching","f4","Me","left","Me","Other","Stranger","Stranger",2092.3,2.0923,1
"604",10,28,"Matching","f15","Stranger","left","Stranger","User","Self","Self",581.8,0.5818,1
"605",10,29,"Nonmatching","f18","Stranger","left","Stranger","User","Self","Self",711.3,0.7113,1
"606",10,30,"Nonmatching","m34","Stranger","left","Stranger","User","Self","Self",401.3,0.4013,1
"607",10,31,"Matching","m34","Stranger","left","Stranger","User","Self","Self",395.4,0.3954,1
"608",10,32,"Matching","m33","Me","right","Me","Other","Stranger","Stranger",543,0.543,0
"609",10,33,"Matching","f27","Me","left","Me","Other","Stranger","Stranger",696,0.696,1
"610",10,34,"Nonmatching","f15","Stranger","left","Stranger","User","Self","Self",593.9,0.5939,1
"611",10,35,"Nonmatching","f27","Me","left","Me","Other","Stranger","Stranger",703.1,0.7031,1
"612",10,36,"Matching","m35","Stranger","left","Stranger","User","Self","Self",549.5,0.5495,1
"613",10,37,"Nonmatching","m34","Me","right","Me","User","Self","Self",1166.6,1.1666,1
"614",10,38,"Nonmatching","f4","Stranger","right","Stranger","Other","Stranger","Stranger",1544.6,1.5446,1
"615",10,39,"Nonmatching","m33","Stranger","right","Stranger","Other","Stranger","Stranger",1580.6,1.5806,1
"616",10,40,"Nonmatching","f27","Stranger","right","Stranger","Other","Stranger","Stranger",734,0.734,1
"617",10,41,"Nonmatching","f27","Me","left","Me","Other","Stranger","Stranger",914.9,0.9149,1
"618",10,42,"Matching","m33","Stranger","right","Stranger","Other","Stranger","Stranger",1361.6,1.3616,1
"619",10,43,"Nonmatching","m38","Me","left","Me","Other","Stranger","Stranger",1941.5,1.9415,1
"620",10,44,"Matching","m34","Me","right","Me","User","Self","Self",1171.6,1.1716,1
"621",10,45,"Nonmatching","m38","Stranger","right","Stranger","Other","Stranger","Stranger",1423.9,1.4239,1
"622",10,46,"Nonmatching","f4","Stranger","right","Stranger","Other","Stranger","Stranger",812.8,0.8128,1
"623",10,47,"Matching","m33","Stranger","right","Stranger","Other","Stranger","Stranger",698.1,0.6981,1
"624",10,48,"Matching","f18","Me","right","Me","User","Self","Self",730.4,0.7304,1
"625",10,49,"Matching","f18","Stranger","left","Stranger","User","Self","Self",2004.4,2.0044,1
"626",10,50,"Matching","f27","Me","left","Me","Other","Stranger","Stranger",1067.5,1.0675,1
"627",10,51,"Matching","f27","Stranger","right","Stranger","Other","Stranger","Stranger",1572.3,1.5723,1
"628",10,52,"Nonmatching","f27","Stranger","right","Stranger","Other","Stranger","Stranger",699.5,0.6995,1
"629",10,53,"Nonmatching","m35","Stranger","right","Stranger","User","Self","Self",2090.2,2.0902,0
"630",10,54,"Matching","f4","Me","left","Me","Other","Stranger","Stranger",2488.9,2.4889,1
"631",10,55,"Matching","m34","Me","right","Me","User","Self","Self",656.4,0.6564,1
"632",10,56,"Matching","m34","Stranger","left","Stranger","User","Self","Self",1160,1.16,1
"633",10,57,"Nonmatching","m33","Me","left","Me","Other","Stranger","Stranger",1645.7,1.6457,1
"634",10,58,"Nonmatching","m33","Stranger","right","Stranger","Other","Stranger","Stranger",852.9,0.8529,1
"635",10,59,"Nonmatching","m35","Stranger","left","Stranger","User","Self","Self",1818.7,1.8187,1
"636",10,60,"Matching","m35","Me","right","Me","User","Self","Self",2024.8,2.0248,1
"637",10,61,"Nonmatching","f15","Stranger","left","Stranger","User","Self","Self",1725.2,1.7252,1
"638",10,62,"Matching","f15","Me","right","Me","User","Self","Self",954.6,0.9546,1
"639",10,63,"Matching","f18","Me","right","Me","User","Self","Self",1479.1,1.4791,1
"640",10,64,"Matching","f27","Stranger","right","Stranger","Other","Stranger","Stranger",737.9,0.7379,1
"641",11,1,"Matching","f27","Me","right","Me","Other","Stranger","Stranger",1769.6,1.7696,0
"642",11,2,"Nonmatching","m33","Stranger","right","Stranger","Other","Stranger","Stranger",1809.9,1.8099,1
"643",11,3,"Matching","m35","Stranger","left","Stranger","User","Self","Self",2402.9,2.4029,1
"644",11,4,"Matching","f18","Stranger","left","Stranger","User","Self","Self",2338.7,2.3387,1
"645",11,5,"Nonmatching","m38","Stranger","left","Stranger","Other","Stranger","Stranger",1749.1,1.7491,0
"646",11,6,"Nonmatching","f15","Stranger","right","Stranger","User","Self","Self",1598.6,1.5986,0
"647",11,7,"Nonmatching","m35","Stranger","right","Stranger","User","Self","Self",3583.3,3.5833,0
"648",11,8,"Matching","m34","Stranger","left","Stranger","User","Self","Self",2983.8,2.9838,1
"649",11,9,"Matching","m38","Stranger","left","Stranger","Other","Stranger","Stranger",1752.3,1.7523,0
"650",11,10,"Nonmatching","m33","Me","left","Me","Other","Stranger","Stranger",3522.4,3.5224,1
"651",11,11,"Matching","m33","Me","left","Me","Other","Stranger","Stranger",1725.5,1.7255,1
"652",11,12,"Nonmatching","f27","Stranger","left","Stranger","Other","Stranger","Stranger",3632.1,3.6321,0
"653",11,13,"Nonmatching","f4","Me","left","Me","Other","Stranger","Stranger",1887.2,1.8872,1
"654",11,14,"Nonmatching","m34","Me","right","Me","User","Self","Self",1756.2,1.7562,1
"655",11,15,"Nonmatching","f27","Me","left","Me","Other","Stranger","Stranger",2485,2.485,1
"656",11,16,"Matching","f27","Stranger","right","Stranger","Other","Stranger","Stranger",2090.4,2.0904,1
"657",11,17,"Matching","m35","Me","right","Me","User","Self","Self",1703.3,1.7033,1
"658",11,18,"Matching","f4","Stranger","right","Stranger","Other","Stranger","Stranger",1466.9,1.4669,1
"659",11,19,"Nonmatching","f15","Stranger","left","Stranger","User","Self","Self",1896.7,1.8967,1
"660",11,20,"Matching","m33","Me","left","Me","Other","Stranger","Stranger",2373,2.373,1
"661",11,21,"Nonmatching","f18","Me","right","Me","User","Self","Self",965.7,0.9657,1
"662",11,22,"Matching","f15","Stranger","left","Stranger","User","Self","Self",719.2,0.7192,1
"663",11,23,"Nonmatching","m34","Stranger","left","Stranger","User","Self","Self",1418.6,1.4186,1
"664",11,24,"Matching","m38","Stranger","left","Stranger","Other","Stranger","Stranger",930.1,0.9301,0
"665",11,25,"Matching","m34","Me","right","Me","User","Self","Self",788.6,0.7886,1
"666",11,26,"Nonmatching","m38","Me","right","Me","Other","Stranger","Stranger",701.9,0.7019,0
"667",11,27,"Matching","f15","Me","right","Me","User","Self","Self",738,0.738,1
"668",11,28,"Nonmatching","f4","Me","left","Me","Other","Stranger","Stranger",1331.5,1.3315,1
"669",11,29,"Matching","f4","Me","left","Me","Other","Stranger","Stranger",967,0.967,1
"670",11,30,"Nonmatching","m34","Stranger","left","Stranger","User","Self","Self",1415.1,1.4151,1
"671",11,31,"Nonmatching","f18","Stranger","left","Stranger","User","Self","Self",1295.5,1.2955,1
"672",11,32,"Nonmatching","m38","Me","left","Me","Other","Stranger","Stranger",1331.7,1.3317,1
"673",11,33,"Nonmatching","f18","Stranger","left","Stranger","User","Self","Self",1758.9,1.7589,1
"674",11,34,"Matching","f27","Me","right","Me","Other","Stranger","Stranger",1529,1.529,0
"675",11,35,"Matching","m33","Stranger","right","Stranger","Other","Stranger","Stranger",1244,1.244,1
"676",11,36,"Nonmatching","f4","Stranger","right","Stranger","Other","Stranger","Stranger",882.5,0.8825,1
"677",11,37,"Matching","m38","Me","left","Me","Other","Stranger","Stranger",1487.1,1.4871,1
"678",11,38,"Matching","f4","Me","left","Me","Other","Stranger","Stranger",1739.6,1.7396,1
"679",11,39,"Nonmatching","f4","Stranger","right","Stranger","Other","Stranger","Stranger",950.5,0.9505,1
"680",11,40,"Nonmatching","m35","Me","right","Me","User","Self","Self",1232.2,1.2322,1
"681",11,41,"Matching","f4","Stranger","right","Stranger","Other","Stranger","Stranger",1679.1,1.6791,1
"682",11,42,"Matching","f15","Me","right","Me","User","Self","Self",1219.9,1.2199,1
"683",11,43,"Nonmatching","f15","Me","right","Me","User","Self","Self",931.2,0.9312,1
"684",11,44,"Matching","m34","Me","right","Me","User","Self","Self",637.8,0.6378,1
"685",11,45,"Nonmatching","f18","Me","right","Me","User","Self","Self",700.1,0.7001,1
"686",11,46,"Matching","m35","Me","right","Me","User","Self","Self",816.2,0.8162,1
"687",11,47,"Nonmatching","m33","Me","left","Me","Other","Stranger","Stranger",814.3,0.8143,1
"688",11,48,"Matching","f18","Stranger","left","Stranger","User","Self","Self",1439.2,1.4392,1
"689",11,49,"Matching","f18","Me","right","Me","User","Self","Self",694.1,0.6941,1
"690",11,50,"Nonmatching","f15","Me","right","Me","User","Self","Self",721.9,0.7219,1
"691",11,51,"Nonmatching","m35","Me","right","Me","User","Self","Self",605,0.605,1
"692",11,52,"Nonmatching","m35","Stranger","left","Stranger","User","Self","Self",1285.4,1.2854,1
"693",11,53,"Matching","f15","Stranger","left","Stranger","User","Self","Self",1274.2,1.2742,1
"694",11,54,"Matching","f27","Stranger","right","Stranger","Other","Stranger","Stranger",3063.3,3.0633,1
"695",11,55,"Matching","m34","Stranger","left","Stranger","User","Self","Self",973.2,0.9732,1
"696",11,56,"Matching","f18","Me","right","Me","User","Self","Self",886.6,0.8866,1
"697",11,57,"Matching","m33","Stranger","right","Stranger","Other","Stranger","Stranger",1034.7,1.0347,1
"698",11,58,"Matching","m38","Me","left","Me","Other","Stranger","Stranger",1209.2,1.2092,1
"699",11,59,"Nonmatching","f27","Me","left","Me","Other","Stranger","Stranger",1545.5,1.5455,1
"700",11,60,"Nonmatching","m33","Stranger","right","Stranger","Other","Stranger","Stranger",859.4,0.8594,1
"701",11,61,"Matching","m35","Stranger","left","Stranger","User","Self","Self",1361.8,1.3618,1
"702",11,62,"Nonmatching","m38","Stranger","right","Stranger","Other","Stranger","Stranger",891.7,0.8917,1
"703",11,63,"Nonmatching","f27","Stranger","right","Stranger","Other","Stranger","Stranger",816.9,0.8169,1
"704",11,64,"Nonmatching","m34","Me","right","Me","User","Self","Self",847.1,0.8471,1
"705",12,1,"Matching","m34","Me","right","Me","Other","Stranger","Stranger",1826.9,1.8269,0
"706",12,2,"Matching","f18","Me","left","Me","Other","Stranger","Stranger",564,0.564,1
"707",12,3,"Nonmatching","f18","Me","left","Me","Other","Stranger","Stranger",713.8,0.7138,1
"708",12,4,"Matching","f4","Me","right","Me","User","Self","Self",759,0.759,1
"709",12,5,"Nonmatching","f4","Stranger","left","Stranger","User","Self","Self",517.3999999,0.5173999999,1
"710",12,6,"Matching","m33","Me","left","Me","User","Self","Self",587.4000001,0.5874000001,0
"711",12,7,"Matching","m38","Stranger","right","Stranger","User","Self","Self",562.3,0.5623,0
"712",12,8,"Matching","m33","Stranger","left","Stranger","User","Self","Self",1608.3,1.6083,1
"713",12,9,"Matching","f4","Stranger","left","Stranger","User","Self","Self",712.7,0.7127,1
"714",12,10,"Nonmatching","f15","Me","left","Me","Other","Stranger","Stranger",697.2,0.6972,1
"715",12,11,"Nonmatching","m33","Me","right","Me","User","Self","Self",531.8,0.5318,1
"716",12,12,"Matching","m35","Stranger","left","Stranger","Other","Stranger","Stranger",753.8,0.7538,0
"717",12,13,"Matching","f27","Me","left","Me","User","Self","Self",791,0.791,0
"718",12,14,"Nonmatching","m34","Stranger","left","Stranger","Other","Stranger","Stranger",767.1999998,0.7671999998,0
"719",12,15,"Nonmatching","f18","Stranger","right","Stranger","Other","Stranger","Stranger",1368.6,1.3686,1
"720",12,16,"Nonmatching","m35","Me","right","Me","Other","Stranger","Stranger",1536.7,1.5367,0
"721",12,17,"Matching","f18","Me","left","Me","Other","Stranger","Stranger",922.5,0.9225,1
"722",12,18,"Matching","m38","Stranger","left","Stranger","User","Self","Self",1128,1.128,1
"723",12,19,"Matching","m34","Stranger","right","Stranger","Other","Stranger","Stranger",1142.5,1.1425,1
"724",12,20,"Matching","f4","Me","right","Me","User","Self","Self",674.7,0.6747,1
"725",12,21,"Matching","m38","Me","right","Me","User","Self","Self",601.3,0.6013,1
"726",12,22,"Nonmatching","f18","Stranger","right","Stranger","Other","Stranger","Stranger",945.5999999,0.9455999999,1
"727",12,23,"Matching","f18","Stranger","right","Stranger","Other","Stranger","Stranger",784.6999998,0.7846999998,1
"728",12,24,"Matching","m35","Me","left","Me","Other","Stranger","Stranger",1254.3,1.2543,1
"729",12,25,"Matching","f15","Me","right","Me","Other","Stranger","Stranger",793.5999999,0.7935999999,0
"730",12,26,"Matching","f27","Stranger","right","Stranger","User","Self","Self",1348.7,1.3487,0
"731",12,27,"Nonmatching","m35","Me","left","Me","Other","Stranger","Stranger",796.8,0.7968,1
"732",12,28,"Matching","m33","Me","right","Me","User","Self","Self",790.5,0.7905,1
"733",12,29,"Matching","f27","Stranger","left","Stranger","User","Self","Self",1645.9,1.6459,1
"734",12,30,"Nonmatching","f18","Me","left","Me","Other","Stranger","Stranger",906.9000001,0.9069000001,1
"735",12,31,"Nonmatching","m38","Stranger","left","Stranger","User","Self","Self",873.1999998,0.8731999998,1
"736",12,32,"Matching","m35","Stranger","right","Stranger","Other","Stranger","Stranger",1038.6,1.0386,1
"737",12,33,"Nonmatching","f27","Me","right","Me","User","Self","Self",669,0.669,1
"738",12,34,"Matching","f18","Stranger","right","Stranger","Other","Stranger","Stranger",2084.2,2.0842,1
"739",12,35,"Nonmatching","f4","Me","left","Me","User","Self","Self",1071.5,1.0715,0
"740",12,36,"Nonmatching","m34","Me","left","Me","Other","Stranger","Stranger",735.6999998,0.7356999998,1
"741",12,37,"Nonmatching","f15","Me","left","Me","Other","Stranger","Stranger",989.3,0.9893,1
"742",12,38,"Matching","m35","Me","left","Me","Other","Stranger","Stranger",790.8,0.7908,1
"743",12,39,"Nonmatching","m33","Me","right","Me","User","Self","Self",550.6999998,0.5506999998,1
"744",12,40,"Nonmatching","m35","Stranger","right","Stranger","Other","Stranger","Stranger",498.5,0.4985,1
"745",12,41,"Nonmatching","f27","Stranger","left","Stranger","User","Self","Self",744.3999999,0.7443999999,1
"746",12,42,"Matching","f27","Me","right","Me","User","Self","Self",467.6999998,0.4676999998,1
"747",12,43,"Nonmatching","m33","Stranger","left","Stranger","User","Self","Self",883.7,0.8837,1
"748",12,44,"Nonmatching","f27","Me","right","Me","User","Self","Self",726.1000001,0.7261000001,1
"749",12,45,"Nonmatching","m38","Me","right","Me","User","Self","Self",709.5999999,0.7095999999,1
"750",12,46,"Matching","f15","Me","left","Me","Other","Stranger","Stranger",681.3999999,0.6813999999,1
"751",12,47,"Matching","m34","Me","left","Me","Other","Stranger","Stranger",1327.4,1.3274,1
"752",12,48,"Nonmatching","m35","Stranger","right","Stranger","Other","Stranger","Stranger",698.9000001,0.6989000001,1
"753",12,49,"Matching","f15","Stranger","right","Stranger","Other","Stranger","Stranger",707.2,0.7072,1
"754",12,50,"Matching","m34","Stranger","right","Stranger","Other","Stranger","Stranger",826.4000001,0.8264000001,1
"755",12,51,"Nonmatching","m38","Stranger","left","Stranger","User","Self","Self",724.1000001,0.7241000001,1
"756",12,52,"Nonmatching","f4","Me","right","Me","User","Self","Self",790.6999998,0.7906999998,1
"757",12,53,"Matching","f4","Stranger","left","Stranger","User","Self","Self",1057.6,1.0576,1
"758",12,54,"Matching","f15","Stranger","right","Stranger","Other","Stranger","Stranger",1267.7,1.2677,1
"759",12,55,"Nonmatching","m34","Stranger","right","Stranger","Other","Stranger","Stranger",480.3,0.4803,1
"760",12,56,"Nonmatching","m34","Me","left","Me","Other","Stranger","Stranger",633.6000001,0.6336000001,1
"761",12,57,"Nonmatching","f15","Stranger","right","Stranger","Other","Stranger","Stranger",821.2,0.8212,1
"762",12,58,"Matching","m38","Me","right","Me","User","Self","Self",421.9000001,0.4219000001,1
"763",12,59,"Nonmatching","f15","Stranger","left","Stranger","Other","Stranger","Stranger",639.3999999,0.6393999999,0
"764",12,60,"Nonmatching","m33","Stranger","left","Stranger","User","Self","Self",634.8,0.6348,1
"765",12,61,"Nonmatching","m38","Me","right","Me","User","Self","Self",520.7,0.5207,1
"766",12,62,"Nonmatching","f27","Stranger","left","Stranger","User","Self","Self",663.7,0.6637,1
"767",12,63,"Nonmatching","f4","Stranger","left","Stranger","User","Self","Self",874.7,0.8747,1
"768",12,64,"Matching","m33","Stranger","left","Stranger","User","Self","Self",756.4000001,0.7564000001,1
"769",13,1,"Matching","m38","Stranger","right","Stranger","User","Self","Self",4416.7,4.4167,0
"770",13,2,"Matching","m38","Me","right","Me","User","Self","Self",2043.5,2.0435,1
"771",13,3,"Nonmatching","m38","Stranger","left","Stranger","User","Self","Self",1034.1,1.0341,1
"772",13,4,"Matching","f15","Me","left","Me","Other","Stranger","Stranger",1367.7,1.3677,1
"773",13,5,"Matching","f27","Stranger","left","Stranger","User","Self","Self",768.2,0.7682,1
"774",13,6,"Nonmatching","f18","Me","right","Me","Other","Stranger","Stranger",1957.9,1.9579,0
"775",13,7,"Matching","f27","Me","right","Me","User","Self","Self",784,0.784,1
"776",13,8,"Nonmatching","f18","Me","left","Me","Other","Stranger","Stranger",1239.1,1.2391,1
"777",13,9,"Matching","f18","Me","left","Me","Other","Stranger","Stranger",919.5,0.9195,1
"778",13,10,"Matching","m34","Stranger","right","Stranger","Other","Stranger","Stranger",2163.1,2.1631,1
"779",13,11,"Matching","m33","Me","right","Me","User","Self","Self",798.2,0.7982,1
"780",13,12,"Matching","f27","Me","right","Me","User","Self","Self",652.6,0.6526,1
"781",13,13,"Nonmatching","f15","Me","left","Me","Other","Stranger","Stranger",1544.7,1.5447,1
"782",13,14,"Nonmatching","m33","Stranger","left","Stranger","User","Self","Self",900.2,0.9002,1
"783",13,15,"Nonmatching","m38","Me","right","Me","User","Self","Self",914,0.914,1
"784",13,16,"Nonmatching","f18","Stranger","left","Stranger","Other","Stranger","Stranger",639.1,0.6391,0
"785",13,17,"Matching","f27","Stranger","left","Stranger","User","Self","Self",1083.4,1.0834,1
"786",13,18,"Nonmatching","m34","Me","right","Me","Other","Stranger","Stranger",494.6,0.4946,0
"787",13,19,"Matching","m34","Stranger","right","Stranger","Other","Stranger","Stranger",906.7,0.9067,1
"788",13,20,"Matching","m34","Me","left","Me","Other","Stranger","Stranger",799.4,0.7994,1
"789",13,21,"Nonmatching","f27","Me","right","Me","User","Self","Self",653.8,0.6538,1
"790",13,22,"Matching","m35","Me","left","Me","Other","Stranger","Stranger",1071.6,1.0716,1
"791",13,23,"Matching","m38","Me","right","Me","User","Self","Self",716.8,0.7168,1
"792",13,24,"Matching","f18","Stranger","right","Stranger","Other","Stranger","Stranger",931.1,0.9311,1
"793",13,25,"Nonmatching","f27","Me","right","Me","User","Self","Self",687.5,0.6875,1
"794",13,26,"Nonmatching","m33","Me","right","Me","User","Self","Self",2307.7,2.3077,1
"795",13,27,"Nonmatching","m33","Me","right","Me","User","Self","Self",679.9,0.6799,1
"796",13,28,"Nonmatching","f4","Stranger","left","Stranger","User","Self","Self",877.4,0.8774,1
"797",13,29,"Matching","m34","Me","left","Me","Other","Stranger","Stranger",961,0.961,1
"798",13,30,"Matching","m35","Me","left","Me","Other","Stranger","Stranger",1692.4,1.6924,1
"799",13,31,"Nonmatching","m34","Me","left","Me","Other","Stranger","Stranger",890.2,0.8902,1
"800",13,32,"Matching","f15","Stranger","right","Stranger","Other","Stranger","Stranger",805.9,0.8059,1
"801",13,33,"Nonmatching","m34","Stranger","left","Stranger","Other","Stranger","Stranger",791.8,0.7918,0
"802",13,34,"Nonmatching","m38","Stranger","left","Stranger","User","Self","Self",926.6,0.9266,1
"803",13,35,"Matching","f18","Me","left","Me","Other","Stranger","Stranger",933.5,0.9335,1
"804",13,36,"Nonmatching","f4","Me","right","Me","User","Self","Self",864.7,0.8647,1
"805",13,37,"Matching","f15","Me","left","Me","Other","Stranger","Stranger",815.5,0.8155,1
"806",13,38,"Matching","m33","Stranger","left","Stranger","User","Self","Self",557.6,0.5576,1
"807",13,39,"Nonmatching","m35","Stranger","right","Stranger","Other","Stranger","Stranger",828.4,0.8284,1
"808",13,40,"Nonmatching","f4","Me","right","Me","User","Self","Self",522,0.522,1
"809",13,41,"Matching","f15","Stranger","right","Stranger","Other","Stranger","Stranger",632.1,0.6321,1
"810",13,42,"Nonmatching","m35","Me","left","Me","Other","Stranger","Stranger",653.4,0.6534,1
"811",13,43,"Nonmatching","f15","Stranger","right","Stranger","Other","Stranger","Stranger",836.9,0.8369,1
"812",13,44,"Matching","f18","Stranger","right","Stranger","Other","Stranger","Stranger",837.6,0.8376,1
"813",13,45,"Matching","m35","Stranger","right","Stranger","Other","Stranger","Stranger",725,0.725,1
"814",13,46,"Nonmatching","f27","Stranger","left","Stranger","User","Self","Self",756.5,0.7565,1
"815",13,47,"Nonmatching","m35","Stranger","right","Stranger","Other","Stranger","Stranger",865.4,0.8654,1
"816",13,48,"Nonmatching","m38","Me","right","Me","User","Self","Self",680,0.68,1
"817",13,49,"Matching","m33","Stranger","left","Stranger","User","Self","Self",745.6,0.7456,1
"818",13,50,"Nonmatching","m35","Me","left","Me","Other","Stranger","Stranger",800.2,0.8002,1
"819",13,51,"Matching","f4","Me","right","Me","User","Self","Self",542,0.542,1
"820",13,52,"Nonmatching","f15","Stranger","right","Stranger","Other","Stranger","Stranger",814.7,0.8147,1
"821",13,53,"Matching","f4","Stranger","left","Stranger","User","Self","Self",752.6,0.7526,1
"822",13,54,"Matching","f4","Me","right","Me","User","Self","Self",516.3,0.5163,1
"823",13,55,"Matching","f4","Stranger","left","Stranger","User","Self","Self",709.1,0.7091,1
"824",13,56,"Nonmatching","m34","Stranger","right","Stranger","Other","Stranger","Stranger",1993.6,1.9936,1
"825",13,57,"Matching","m33","Me","right","Me","User","Self","Self",497.8,0.4978,1
"826",13,58,"Nonmatching","f4","Stranger","left","Stranger","User","Self","Self",1195.6,1.1956,1
"827",13,59,"Nonmatching","f15","Me","left","Me","Other","Stranger","Stranger",790.5,0.7905,1
"828",13,60,"Matching","m38","Stranger","left","Stranger","User","Self","Self",594.4,0.5944,1
"829",13,61,"Matching","m35","Stranger","left","Stranger","Other","Stranger","Stranger",624.7,0.6247,0
"830",13,62,"Nonmatching","f18","Stranger","right","Stranger","Other","Stranger","Stranger",1256.8,1.2568,1
"831",13,63,"Nonmatching","m33","Stranger","left","Stranger","User","Self","Self",1157.6,1.1576,1
"832",13,64,"Nonmatching","f27","Stranger","left","Stranger","User","Self","Self",605.8,0.6058,1
"833",14,1,"Matching","f18","Me","right","Me","User","Self","Self",3004,3.004,1
"834",14,2,"Matching","f27","Stranger","left","Stranger","Other","Stranger","Stranger",2371,2.371,0
"835",14,3,"Matching","f18","Stranger","left","Stranger","User","Self","Self",3351,3.351,1
"836",14,4,"Matching","m34","Stranger","left","Stranger","User","Self","Self",1560,1.56,1
"837",14,5,"Matching","m38","Stranger","right","Stranger","Other","Stranger","Stranger",1861,1.861,1
"838",14,6,"Nonmatching","f4","Me","left","Me","Other","Stranger","Stranger",1550,1.55,1
"839",14,7,"Nonmatching","f27","Me","right","Me","Other","Stranger","Stranger",1397,1.397,0
"840",14,8,"Matching","f18","Stranger","left","Stranger","User","Self","Self",5302,5.302,1
"841",14,9,"Nonmatching","m35","Stranger","right","Stranger","User","Self","Self",1651,1.651,0
"842",14,10,"Nonmatching","f15","Me","right","Me","User","Self","Self",1522,1.522,1
"843",14,11,"Matching","m33","Me","left","Me","Other","Stranger","Stranger",1929,1.929,1
"844",14,12,"Nonmatching","f27","Me","right","Me","Other","Stranger","Stranger",1476,1.476,0
"845",14,13,"Matching","m35","Me","left","Me","User","Self","Self",1816,1.816,0
"846",14,14,"Matching","m34","Stranger","right","Stranger","User","Self","Self",2944,2.944,0
"847",14,15,"Nonmatching","m34","Me","right","Me","User","Self","Self",1883,1.883,1
"848",14,16,"Nonmatching","f18","Me","right","Me","User","Self","Self",1438,1.438,1
"849",14,17,"Nonmatching","f4","Stranger","right","Stranger","Other","Stranger","Stranger",1122,1.122,1
"850",14,18,"Nonmatching","m35","Stranger","right","Stranger","User","Self","Self",3715,3.715,0
"851",14,19,"Matching","m34","Me","left","Me","User","Self","Self",1090,1.09,0
"852",14,20,"Matching","m38","Stranger","right","Stranger","Other","Stranger","Stranger",948,0.948,1
"853",14,21,"Nonmatching","f27","Stranger","right","Stranger","Other","Stranger","Stranger",1680,1.68,1
"854",14,22,"Nonmatching","m38","Me","left","Me","Other","Stranger","Stranger",1076,1.076,1
"855",14,23,"Matching","f4","Me","left","Me","Other","Stranger","Stranger",2036,2.036,1
"856",14,24,"Nonmatching","f27","Stranger","right","Stranger","Other","Stranger","Stranger",1166,1.166,1
"857",14,25,"Nonmatching","f18","Me","right","Me","User","Self","Self",1091,1.091,1
"858",14,26,"Nonmatching","f15","Stranger","left","Stranger","User","Self","Self",1586,1.586,1
"859",14,27,"Nonmatching","m33","Me","left","Me","Other","Stranger","Stranger",1324,1.324,1
"860",14,28,"Nonmatching","f18","Stranger","left","Stranger","User","Self","Self",1037,1.037,1
"861",14,29,"Matching","f27","Me","left","Me","Other","Stranger","Stranger",2161,2.161,1
"862",14,30,"Matching","f4","Me","left","Me","Other","Stranger","Stranger",2142,2.142,1
"863",14,31,"Nonmatching","f15","Me","right","Me","User","Self","Self",1158,1.158,1
"864",14,32,"Matching","f27","Me","left","Me","Other","Stranger","Stranger",1065,1.065,1
"865",14,33,"Nonmatching","m33","Stranger","right","Stranger","Other","Stranger","Stranger",1419,1.419,1
"866",14,34,"Nonmatching","m35","Me","right","Me","User","Self","Self",3763,3.763,1
"867",14,35,"Matching","f15","Stranger","left","Stranger","User","Self","Self",905,0.905,1
"868",14,36,"Nonmatching","m34","Me","left","Me","User","Self","Self",975,0.975,0
"869",14,37,"Nonmatching","f15","Stranger","left","Stranger","User","Self","Self",1117,1.117,1
"870",14,38,"Matching","m35","Stranger","left","Stranger","User","Self","Self",1107,1.107,1
"871",14,39,"Matching","f4","Stranger","right","Stranger","Other","Stranger","Stranger",1210,1.21,1
"872",14,40,"Matching","f4","Stranger","right","Stranger","Other","Stranger","Stranger",1294,1.294,1
"873",14,41,"Matching","m34","Me","right","Me","User","Self","Self",1828,1.828,1
"874",14,42,"Matching","m33","Stranger","right","Stranger","Other","Stranger","Stranger",1147,1.147,1
"875",14,43,"Matching","m33","Stranger","right","Stranger","Other","Stranger","Stranger",1665,1.665,1
"876",14,44,"Matching","f27","Stranger","right","Stranger","Other","Stranger","Stranger",1334,1.334,1
"877",14,45,"Nonmatching","m35","Me","right","Me","User","Self","Self",1194,1.194,1
"878",14,46,"Nonmatching","m33","Me","left","Me","Other","Stranger","Stranger",927,0.927,1
"879",14,47,"Nonmatching","m38","Stranger","right","Stranger","Other","Stranger","Stranger",1228,1.228,1
"880",14,48,"Matching","m38","Me","left","Me","Other","Stranger","Stranger",1022,1.022,1
"881",14,49,"Nonmatching","m34","Stranger","left","Stranger","User","Self","Self",2326,2.326,1
"882",14,50,"Nonmatching","f4","Me","left","Me","Other","Stranger","Stranger",989,0.989,1
"883",14,51,"Nonmatching","f4","Stranger","right","Stranger","Other","Stranger","Stranger",1201,1.201,1
"884",14,52,"Nonmatching","m38","Me","left","Me","Other","Stranger","Stranger",1089,1.089,1
"885",14,53,"Matching","m38","Me","left","Me","Other","Stranger","Stranger",863,0.863,1
"886",14,54,"Matching","m35","Me","right","Me","User","Self","Self",2755,2.755,1
"887",14,55,"Matching","m33","Me","left","Me","Other","Stranger","Stranger",1144,1.144,1
"888",14,56,"Nonmatching","m38","Stranger","right","Stranger","Other","Stranger","Stranger",1808,1.808,1
"889",14,57,"Nonmatching","m33","Stranger","right","Stranger","Other","Stranger","Stranger",1410,1.41,1
"890",14,58,"Matching","f15","Me","right","Me","User","Self","Self",1107,1.107,1
"891",14,59,"Nonmatching","m34","Stranger","right","Stranger","User","Self","Self",1954,1.954,0
"892",14,60,"Matching","m35","Stranger","left","Stranger","User","Self","Self",1528,1.528,1
"893",14,61,"Matching","f15","Stranger","left","Stranger","User","Self","Self",979,0.979,1
"894",14,62,"Matching","f18","Me","right","Me","User","Self","Self",1219,1.219,1
"895",14,63,"Nonmatching","f18","Stranger","left","Stranger","User","Self","Self",850,0.85,1
"896",14,64,"Matching","f15","Me","right","Me","User","Self","Self",880,0.88,1
"897",15,1,"Matching","m34","Me","right","Me","User","Self","Self",3275.2,3.2752,1
"898",15,2,"Nonmatching","m34","Stranger","left","Stranger","User","Self","Self",1530.1,1.5301,1
"899",15,3,"Nonmatching","f15","Stranger","right","Stranger","User","Self","Self",2229,2.229,0
"900",15,4,"Nonmatching","f15","Me","left","Me","User","Self","Self",611.4000001,0.6114000001,0
"901",15,5,"Nonmatching","m38","Me","right","Me","Other","Stranger","Stranger",2531.6,2.5316,0
"902",15,6,"Matching","m38","Stranger","right","Stranger","Other","Stranger","Stranger",1417.7,1.4177,1
"903",15,7,"Matching","f4","Stranger","right","Stranger","Other","Stranger","Stranger",2991.5,2.9915,1
"904",15,8,"Nonmatching","f4","Stranger","right","Stranger","Other","Stranger","Stranger",2364.4,2.3644,1
"905",15,9,"Matching","f4","Me","left","Me","Other","Stranger","Stranger",1567.6,1.5676,1
"906",15,10,"Nonmatching","m33","Stranger","right","Stranger","Other","Stranger","Stranger",2216.7,2.2167,1
"907",15,11,"Nonmatching","f15","Stranger","left","Stranger","User","Self","Self",1096.2,1.0962,1
"908",15,12,"Nonmatching","f4","Me","left","Me","Other","Stranger","Stranger",2279.5,2.2795,1
"909",15,13,"Matching","f27","Me","left","Me","Other","Stranger","Stranger",1924.6,1.9246,1
"910",15,14,"Matching","f15","Me","right","Me","User","Self","Self",783.1000001,0.7831000001,1
"911",15,15,"Nonmatching","f18","Me","right","Me","User","Self","Self",3488.4,3.4884,1
"912",15,16,"Matching","f4","Stranger","left","Stranger","Other","Stranger","Stranger",1446.2,1.4462,0
"913",15,17,"Nonmatching","m38","Me","left","Me","Other","Stranger","Stranger",2579.6,2.5796,1
"914",15,18,"Matching","m33","Stranger","right","Stranger","Other","Stranger","Stranger",2687.1,2.6871,1
"915",15,19,"Nonmatching","f27","Me","left","Me","Other","Stranger","Stranger",1117.5,1.1175,1
"916",15,20,"Matching","m34","Stranger","right","Stranger","User","Self","Self",1860.3,1.8603,0
"917",15,21,"Nonmatching","f18","Me","left","Me","User","Self","Self",1326.5,1.3265,0
"918",15,22,"Nonmatching","m35","Stranger","right","Stranger","User","Self","Self",952,0.952,0
"919",15,23,"Nonmatching","f27","Me","right","Me","Other","Stranger","Stranger",486,0.486,0
"920",15,24,"Nonmatching","f4","Stranger","left","Stranger","Other","Stranger","Stranger",1603.7,1.6037,0
"921",15,25,"Matching","m33","Me","left","Me","Other","Stranger","Stranger",1679.3,1.6793,1
"922",15,26,"Matching","m38","Me","left","Me","Other","Stranger","Stranger",2343.3,2.3433,1
"923",15,27,"Nonmatching","m35","Me","left","Me","User","Self","Self",2408.5,2.4085,0
"924",15,28,"Matching","f4","Me","left","Me","Other","Stranger","Stranger",3411.1,3.4111,1
"925",15,29,"Matching","f15","Stranger","right","Stranger","User","Self","Self",910.7,0.9107,0
"926",15,30,"Nonmatching","f15","Me","right","Me","User","Self","Self",811,0.811,1
"927",15,31,"Matching","m35","Stranger","right","Stranger","User","Self","Self",1425,1.425,0
"928",15,32,"Matching","f15","Me","right","Me","User","Self","Self",996.7,0.9967,1
"929",15,33,"Matching","m35","Stranger","right","Stranger","User","Self","Self",629.3,0.6293,0
"930",15,34,"Nonmatching","m33","Stranger","left","Stranger","Other","Stranger","Stranger",2718.9,2.7189,0
"931",15,35,"Matching","f18","Me","left","Me","User","Self","Self",2758.3,2.7583,0
"932",15,36,"Matching","m34","Stranger","right","Stranger","User","Self","Self",1188.9,1.1889,0
"933",15,37,"Matching","f15","Stranger","left","Stranger","User","Self","Self",3230,3.23,1
"934",15,38,"Nonmatching","m35","Stranger","left","Stranger","User","Self","Self",5045.4,5.0454,1
"935",15,39,"Nonmatching","f18","Stranger","left","Stranger","User","Self","Self",2713.8,2.7138,1
"936",15,40,"Matching","m34","Me","right","Me","User","Self","Self",648.3,0.6483,1
"937",15,41,"Matching","f27","Me","right","Me","Other","Stranger","Stranger",1011.5,1.0115,0
"938",15,42,"Matching","f18","Stranger","left","Stranger","User","Self","Self",1316.3,1.3163,1
"939",15,43,"Nonmatching","m38","Stranger","left","Stranger","Other","Stranger","Stranger",1580.8,1.5808,0
"940",15,44,"Nonmatching","m33","Me","right","Me","Other","Stranger","Stranger",1171.5,1.1715,0
"941",15,45,"Nonmatching","m34","Me","right","Me","User","Self","Self",904.7,0.9047,1
"942",15,46,"Matching","f18","Stranger","right","Stranger","User","Self","Self",1761.7,1.7617,0
"943",15,47,"Matching","m35","Me","right","Me","User","Self","Self",2609.7,2.6097,1
"944",15,48,"Matching","m35","Me","right","Me","User","Self","Self",862.9000001,0.8629000001,1
"945",15,49,"Nonmatching","f4","Me","left","Me","Other","Stranger","Stranger",2787.3,2.7873,1
"946",15,50,"Nonmatching","m34","Stranger","left","Stranger","User","Self","Self",2423.6,2.4236,1
"947",15,51,"Nonmatching","m38","Stranger","left","Stranger","Other","Stranger","Stranger",1437.6,1.4376,0
"948",15,52,"Matching","f27","Stranger","left","Stranger","Other","Stranger","Stranger",2514.5,2.5145,0
"949",15,53,"Matching","m38","Me","right","Me","Other","Stranger","Stranger",2395.4,2.3954,0
"950",15,54,"Nonmatching","m34","Me","right","Me","User","Self","Self",1658.1,1.6581,1
"951",15,55,"Nonmatching","m33","Me","right","Me","Other","Stranger","Stranger",4202.2,4.2022,0
"952",15,56,"Matching","m38","Stranger","left","Stranger","Other","Stranger","Stranger",1129.2,1.1292,0
"953",15,57,"Nonmatching","f27","Stranger","right","Stranger","Other","Stranger","Stranger",849.2,0.8492,1
"954",15,58,"Matching","m33","Me","right","Me","Other","Stranger","Stranger",873,0.873,0
"955",15,59,"Matching","m33","Stranger","right","Stranger","Other","Stranger","Stranger",1367.6,1.3676,1
"956",15,60,"Matching","f18","Me","right","Me","User","Self","Self",2672.1,2.6721,1
"957",15,61,"Matching","f27","Stranger","right","Stranger","Other","Stranger","Stranger",3286.6,3.2866,1
"958",15,62,"Nonmatching","f27","Stranger","right","Stranger","Other","Stranger","Stranger",1641.9,1.6419,1
"959",15,63,"Nonmatching","f18","Stranger","left","Stranger","User","Self","Self",1196.8,1.1968,1
"960",15,64,"Nonmatching","m35","Me","right","Me","User","Self","Self",825,0.825,1
"961",16,1,"Nonmatching","f4","Stranger","left","Stranger","Other","Stranger","Stranger",2029.4,2.0294,0
"962",16,2,"Nonmatching","m35","Me","right","Me","User","Self","Self",2330.7,2.3307,1
"963",16,3,"Matching","f27","Stranger","left","Stranger","Other","Stranger","Stranger",2288.8,2.2888,0
"964",16,4,"Matching","f18","Stranger","right","Stranger","User","Self","Self",1610.7,1.6107,0
"965",16,5,"Nonmatching","f27","Stranger","left","Stranger","Other","Stranger","Stranger",4565.1,4.5651,0
"966",16,6,"Nonmatching","f15","Me","right","Me","User","Self","Self",1310.4,1.3104,1
"967",16,7,"Nonmatching","m35","Stranger","left","Stranger","User","Self","Self",1685.5,1.6855,1
"968",16,8,"Nonmatching","f18","Stranger","left","Stranger","User","Self","Self",2974.4,2.9744,1
"969",16,9,"Matching","f15","Stranger","right","Stranger","User","Self","Self",1828.1,1.8281,0
"970",16,10,"Matching","m38","Stranger","left","Stranger","Other","Stranger","Stranger",2564.9,2.5649,0
"971",16,11,"Matching","m38","Stranger","right","Stranger","Other","Stranger","Stranger",1031.1,1.0311,1
"972",16,12,"Nonmatching","m35","Me","right","Me","User","Self","Self",1282.8,1.2828,1
"973",16,13,"Matching","m33","Stranger","right","Stranger","Other","Stranger","Stranger",856.1,0.8561,1
"974",16,14,"Nonmatching","f27","Me","right","Me","Other","Stranger","Stranger",2140.6,2.1406,0
"975",16,15,"Nonmatching","f15","Stranger","right","Stranger","User","Self","Self",4383.1,4.3831,0
"976",16,16,"Nonmatching","f18","Me","right","Me","User","Self","Self",756.3,0.7563,1
"977",16,17,"Matching","m34","Me","left","Me","User","Self","Self",1282.5,1.2825,0
"978",16,18,"Nonmatching","f27","Stranger","right","Stranger","Other","Stranger","Stranger",1747.4,1.7474,1
"979",16,19,"Matching","m33","Me","left","Me","Other","Stranger","Stranger",965,0.965,1
"980",16,20,"Nonmatching","m38","Stranger","right","Stranger","Other","Stranger","Stranger",1780.9,1.7809,1
"981",16,21,"Nonmatching","m38","Me","left","Me","Other","Stranger","Stranger",1864.8,1.8648,1
"982",16,22,"Matching","m33","Stranger","right","Stranger","Other","Stranger","Stranger",979.1,0.9791,1
"983",16,23,"Matching","f4","Stranger","left","Stranger","Other","Stranger","Stranger",2414.7,2.4147,0
"984",16,24,"Nonmatching","f4","Me","right","Me","Other","Stranger","Stranger",774.7,0.7747,0
"985",16,25,"Matching","m38","Me","left","Me","Other","Stranger","Stranger",1234.4,1.2344,1
"986",16,26,"Matching","m34","Me","right","Me","User","Self","Self",770.9,0.7709,1
"987",16,27,"Matching","m33","Me","left","Me","Other","Stranger","Stranger",990.8,0.9908,1
"988",16,28,"Nonmatching","m34","Stranger","left","Stranger","User","Self","Self",1362.9,1.3629,1
"989",16,29,"Matching","m38","Me","left","Me","Other","Stranger","Stranger",1262.2,1.2622,1
"990",16,30,"Nonmatching","m33","Me","left","Me","Other","Stranger","Stranger",986.6,0.9866,1
"991",16,31,"Nonmatching","f18","Me","left","Me","User","Self","Self",1038.5,1.0385,0
"992",16,32,"Nonmatching","f4","Stranger","right","Stranger","Other","Stranger","Stranger",1373.9,1.3739,1
"993",16,33,"Matching","f15","Me","left","Me","User","Self","Self",1584.2,1.5842,0
"994",16,34,"Nonmatching","m38","Me","left","Me","Other","Stranger","Stranger",989.5,0.9895,1
"995",16,35,"Nonmatching","m34","Me","right","Me","User","Self","Self",1036.6,1.0366,1
"996",16,36,"Matching","f4","Me","right","Me","Other","Stranger","Stranger",1570.9,1.5709,0
"997",16,37,"Nonmatching","f18","Stranger","left","Stranger","User","Self","Self",2509.2,2.5092,1
"998",16,38,"Matching","f18","Stranger","right","Stranger","User","Self","Self",1900,1.9,0
"999",16,39,"Matching","f18","Me","right","Me","User","Self","Self",796.6,0.7966,1
"1000",16,40,"Nonmatching","f15","Stranger","right","Stranger","User","Self","Self",2129.1,2.1291,0
"1001",16,41,"Matching","f15","Me","right","Me","User","Self","Self",620.9,0.6209,1
"1002",16,42,"Nonmatching","m34","Me","right","Me","User","Self","Self",857.3,0.8573,1
"1003",16,43,"Matching","f27","Me","left","Me","Other","Stranger","Stranger",1077.7,1.0777,1
"1004",16,44,"Matching","f27","Me","left","Me","Other","Stranger","Stranger",1514.8,1.5148,1
"1005",16,45,"Matching","m35","Me","right","Me","User","Self","Self",793.2,0.7932,1
"1006",16,46,"Matching","f4","Stranger","left","Stranger","Other","Stranger","Stranger",1438.7,1.4387,0
"1007",16,47,"Matching","m34","Stranger","left","Stranger","User","Self","Self",1792.8,1.7928,1
"1008",16,48,"Matching","f15","Stranger","left","Stranger","User","Self","Self",1319.6,1.3196,1
"1009",16,49,"Matching","f27","Stranger","right","Stranger","Other","Stranger","Stranger",816,0.816,1
"1010",16,50,"Matching","f18","Me","right","Me","User","Self","Self",789.7,0.7897,1
"1011",16,51,"Nonmatching","m34","Stranger","left","Stranger","User","Self","Self",900.7,0.9007,1
"1012",16,52,"Nonmatching","m38","Stranger","right","Stranger","Other","Stranger","Stranger",1023.1,1.0231,1
"1013",16,53,"Nonmatching","f4","Me","right","Me","Other","Stranger","Stranger",898.3,0.8983,0
"1014",16,54,"Nonmatching","m35","Stranger","left","Stranger","User","Self","Self",871.3,0.8713,1
"1015",16,55,"Nonmatching","f27","Me","right","Me","Other","Stranger","Stranger",969.3,0.9693,0
"1016",16,56,"Matching","f4","Me","right","Me","Other","Stranger","Stranger",746.3,0.7463,0
"1017",16,57,"Nonmatching","f15","Me","right","Me","User","Self","Self",692.4,0.6924,1
"1018",16,58,"Nonmatching","m33","Stranger","right","Stranger","Other","Stranger","Stranger",1178.3,1.1783,1
"1019",16,59,"Matching","m34","Stranger","left","Stranger","User","Self","Self",1539.1,1.5391,1
"1020",16,60,"Matching","m35","Me","right","Me","User","Self","Self",960.9,0.9609,1
"1021",16,61,"Nonmatching","m33","Stranger","right","Stranger","Other","Stranger","Stranger",956,0.956,1
"1022",16,62,"Nonmatching","m33","Me","left","Me","Other","Stranger","Stranger",576.6,0.5766,1
"1023",16,63,"Matching","m35","Stranger","left","Stranger","User","Self","Self",1103,1.103,1
"1024",16,64,"Matching","m35","Stranger","left","Stranger","User","Self","Self",846.6,0.8466,1
"1025",17,1,"Nonmatching","m34","Stranger","left","Stranger","User","Self","Self",3297,3.297,1
"1026",17,2,"Matching","m35","Me","left","Me","User","Self","Self",1125,1.125,0
"1027",17,3,"Nonmatching","m34","Me","left","Me","User","Self","Self",2548,2.548,0
"1028",17,4,"Matching","m35","Stranger","left","Stranger","User","Self","Self",1590,1.59,1
"1029",17,5,"Matching","f4","Stranger","right","Stranger","Other","Stranger","Stranger",1177,1.177,1
"1030",17,6,"Nonmatching","f4","Stranger","left","Stranger","Other","Stranger","Stranger",1481,1.481,0
"1031",17,7,"Nonmatching","m34","Me","right","Me","User","Self","Self",1430,1.43,1
"1032",17,8,"Matching","f15","Stranger","left","Stranger","User","Self","Self",956,0.956,1
"1033",17,9,"Matching","m33","Stranger","right","Stranger","Other","Stranger","Stranger",1115,1.115,1
"1034",17,10,"Nonmatching","m33","Stranger","right","Stranger","Other","Stranger","Stranger",802,0.802,1
"1035",17,11,"Nonmatching","f27","Me","left","Me","Other","Stranger","Stranger",552,0.552,1
"1036",17,12,"Matching","f4","Stranger","left","Stranger","Other","Stranger","Stranger",839,0.839,0
"1037",17,13,"Matching","f15","Me","right","Me","User","Self","Self",688,0.688,1
"1038",17,14,"Matching","f27","Me","left","Me","Other","Stranger","Stranger",742,0.742,1
"1039",17,15,"Nonmatching","m33","Me","left","Me","Other","Stranger","Stranger",819,0.819,1
"1040",17,16,"Nonmatching","f27","Stranger","right","Stranger","Other","Stranger","Stranger",787,0.787,1
"1041",17,17,"Matching","f4","Me","right","Me","Other","Stranger","Stranger",749,0.749,0
"1042",17,18,"Nonmatching","f15","Me","right","Me","User","Self","Self",660,0.66,1
"1043",17,19,"Matching","m33","Stranger","right","Stranger","Other","Stranger","Stranger",749,0.749,1
"1044",17,20,"Nonmatching","m33","Me","left","Me","Other","Stranger","Stranger",650,0.65,1
"1045",17,21,"Nonmatching","m35","Me","right","Me","User","Self","Self",1013,1.013,1
"1046",17,22,"Matching","m34","Me","left","Me","User","Self","Self",650,0.65,0
"1047",17,23,"Matching","f27","Me","left","Me","Other","Stranger","Stranger",1245,1.245,1
"1048",17,24,"Nonmatching","m35","Stranger","left","Stranger","User","Self","Self",968,0.968,1
"1049",17,25,"Nonmatching","f15","Stranger","left","Stranger","User","Self","Self",786,0.786,1
"1050",17,26,"Matching","m33","Me","left","Me","Other","Stranger","Stranger",651,0.651,1
"1051",17,27,"Nonmatching","f27","Me","left","Me","Other","Stranger","Stranger",834,0.834,1
"1052",17,28,"Nonmatching","f18","Me","left","Me","User","Self","Self",919,0.919,0
"1053",17,29,"Nonmatching","m38","Stranger","right","Stranger","Other","Stranger","Stranger",586,0.586,1
"1054",17,30,"Matching","f15","Stranger","right","Stranger","User","Self","Self",1062,1.062,0
"1055",17,31,"Nonmatching","f4","Stranger","right","Stranger","Other","Stranger","Stranger",645,0.645,1
"1056",17,32,"Matching","m34","Stranger","left","Stranger","User","Self","Self",938,0.938,1
"1057",17,33,"Nonmatching","m33","Stranger","right","Stranger","Other","Stranger","Stranger",1238,1.238,1
"1058",17,34,"Matching","m38","Stranger","right","Stranger","Other","Stranger","Stranger",1477,1.477,1
"1059",17,35,"Matching","m35","Stranger","right","Stranger","User","Self","Self",756,0.756,0
"1060",17,36,"Matching","f18","Me","right","Me","User","Self","Self",513,0.513,1
"1061",17,37,"Matching","m38","Me","right","Me","Other","Stranger","Stranger",963,0.963,0
"1062",17,38,"Matching","f4","Me","right","Me","Other","Stranger","Stranger",674,0.674,0
"1063",17,39,"Nonmatching","f18","Stranger","left","Stranger","User","Self","Self",748,0.748,1
"1064",17,40,"Nonmatching","m35","Stranger","right","Stranger","User","Self","Self",713,0.713,0
"1065",17,41,"Nonmatching","m35","Me","left","Me","User","Self","Self",943,0.943,0
"1066",17,42,"Nonmatching","f15","Me","right","Me","User","Self","Self",1151,1.151,1
"1067",17,43,"Matching","m35","Me","left","Me","User","Self","Self",840,0.84,0
"1068",17,44,"Matching","m34","Stranger","right","Stranger","User","Self","Self",826,0.826,0
