"Subject","Trial","Matching","Face","Label","Response","Label_Identity","Origin_Identity","English_Identity","Standarlized_Identity","RT_ms","RT_sec","ACC"
1,1,"Nonmatching","m35","Me","right","Me","User","Self","Self",1143,1.143,1
1,2,"Nonmatching","f27","Me","left","Me","Other","Stranger","Stranger",588,0.588,1
1,3,"Matching","m33","Me","left","Me","Other","Stranger","Stranger",966,0.966,1
1,4,"Matching","f27","Stranger","left","Stranger","Other","Stranger","Stranger",558,0.558,0
1,5,"Matching","m33","Me","left","Me","Other","Stranger","Stranger",1531,1.531,1
1,6,"Matching","f15","Stranger","right","Stranger","User","Self","Self",791,0.791,0
1,7,"Nonmatching","m33","Me","left","Me","Other","Stranger","Stranger",984,0.984,1
1,8,"Matching","m35","Me","right","Me","User","Self","Self",848,0.848,1
1,9,"Nonmatching","m34","Me","left","Me","User","Self","Self",804,0.804,0
1,10,"Nonmatching","f27","Stranger","right","Stranger","Other","Stranger","Stranger",769,0.769,1
1,11,"Matching","f18","Stranger","right","Stranger","User","Self","Self",1252,1.252,0
1,12,"Nonmatching","m34","Stranger","left","Stranger","User","Self","Self",1105,1.105,1
1,13,"Matching","f4","Me","left","Me","Other","Stranger","Stranger",1774,1.774,1
1,14,"Matching","m34","Me","right","Me","User","Self","Self",770,0.77,1
1,15,"Matching","m34","Stranger","left","Stranger","User","Self","Self",1629,1.629,1
1,16,"Matching","f27","Stranger","left","Stranger","Other","Stranger","Stranger",1292,1.292,0
1,17,"Matching","f18","Me","right","Me","User","Self","Self",596,0.596,1
1,18,"Nonmatching","m33","Me","left","Me","Other","Stranger","Stranger",722,0.722,1
1,19,"Nonmatching","m35","Stranger","left","Stranger","User","Self","Self",873,0.873,1
1,20,"Matching","m38","Me","left","Me","Other","Stranger","Stranger",1342,1.342,1
1,21,"Nonmatching","m38","Me","left","Me","Other","Stranger","Stranger",722,0.722,1
1,22,"Nonmatching","f15","Stranger","left","Stranger","User","Self","Self",869,0.869,1
1,23,"Matching","m33","Stranger","right","Stranger","Other","Stranger","Stranger",923,0.923,1
1,24,"Nonmatching","m35","Stranger","left","Stranger","User","Self","Self",868,0.868,1
1,25,"Matching","m35","Me","right","Me","User","Self","Self",823,0.823,1
1,26,"Matching","f15","Stranger","right","Stranger","User","Self","Self",988,0.988,0
1,27,"Nonmatching","m33","Stranger","right","Stranger","Other","Stranger","Stranger",710,0.71,1
1,28,"Matching","f18","Me","right","Me","User","Self","Self",561,0.561,1
1,29,"Nonmatching","f15","Me","left","Me","User","Self","Self",620,0.62,0
1,30,"Nonmatching","f4","Me","left","Me","Other","Stranger","Stranger",762,0.762,1
1,31,"Matching","m33","Stranger","right","Stranger","Other","Stranger","Stranger",815,0.815,1
1,32,"Matching","f15","Me","right","Me","User","Self","Self",849,0.849,1
1,33,"Matching","m38","Stranger","left","Stranger","Other","Stranger","Stranger",910,0.91,0
1,34,"Nonmatching","f15","Stranger","left","Stranger","User","Self","Self",987,0.987,1
1,35,"Nonmatching","m35","Me","right","Me","User","Self","Self",787,0.787,1
1,36,"Nonmatching","f4","Me","left","Me","Other","Stranger","Stranger",607,0.607,1
1,37,"Matching","f27","Me","right","Me","Other","Stranger","Stranger",565,0.565,0
1,38,"Nonmatching","m34","Stranger","left","Stranger","User","Self","Self",857,0.857,1
1,39,"Matching","m34","Me","left","Me","User","Self","Self",599,0.599,0
1,40,"Matching","f4","Stranger","right","Stranger","Other","Stranger","Stranger",824,0.824,1
1,41,"Nonmatching","f18","Stranger","left","Stranger","User","Self","Self",760,0.76,1
1,42,"Nonmatching","f27","Stranger","right","Stranger","Other","Stranger","Stranger",1026,1.026,1
1,43,"Matching","f15","Me","right","Me","User","Self","Self",579,0.579,1
1,44,"Matching","m34","Stranger","left","Stranger","User","Self","Self",708,0.708,1
1,45,"Nonmatching","f4","Stranger","right","Stranger","Other","Stranger","Stranger",842,0.842,1
1,46,"Nonmatching","m34","Me","right","Me","User","Self","Self",655,0.655,1
1,47,"Nonmatching","m38","Me","right","Me","Other","Stranger","Stranger",533,0.533,0
1,48,"Matching","m38","Stranger","right","Stranger","Other","Stranger","Stranger",1099,1.099,1
1,49,"Nonmatching","f18","Me","right","Me","User","Self","Self",1270,1.27,1
1,50,"Matching","m35","Stranger","right","Stranger","User","Self","Self",748,0.748,0
1,51,"Nonmatching","m33","Stranger","left","Stranger","Other","Stranger","Stranger",896,0.896,0
1,52,"Matching","f4","Me","left","Me","Other","Stranger","Stranger",907,0.907,1
1,53,"Matching","f18","Stranger","left","Stranger","User","Self","Self",808,0.808,1
1,54,"Nonmatching","f18","Me","right","Me","User","Self","Self",410,0.41,1
1,55,"Matching","m35","Stranger","left","Stranger","User","Self","Self",855,0.855,1
1,56,"Nonmatching","m38","Stranger","left","Stranger","Other","Stranger","Stranger",943,0.943,0
1,57,"Matching","f4","Stranger","right","Stranger","Other","Stranger","Stranger",878,0.878,1
1,58,"Nonmatching","f15","Me","right","Me","User","Self","Self",704,0.704,1
1,59,"Matching","f27","Me","right","Me","Other","Stranger","Stranger",1334,1.334,0
1,60,"Nonmatching","f18","Stranger","left","Stranger","User","Self","Self",910,0.91,1
1,61,"Matching","m38","Me","left","Me","Other","Stranger","Stranger",1336,1.336,1
1,62,"Nonmatching","f27","Me","left","Me","Other","Stranger","Stranger",792,0.792,1
1,63,"Nonmatching","m38","Stranger","right","Stranger","Other","Stranger","Stranger",512,0.512,1
1,64,"Nonmatching","f4","Stranger","right","Stranger","Other","Stranger","Stranger",866,0.866,1
2,1,"Matching","f27","Stranger","right","Stranger","User","Self","Self",5409.5,5.4095,0
2,2,"Matching","f15","Stranger","right","Stranger","Other","Stranger","Stranger",653,0.653,1
2,3,"Matching","m35","Me","left","Me","Other","Stranger","Stranger",2422.6,2.4226,1
2,4,"Matching","f15","Me","left","Me","Other","Stranger","Stranger",2480.5,2.4805,1
2,5,"Nonmatching","m35","Stranger","right","Stranger","Other","Stranger","Stranger",1225,1.225,1
2,6,"Nonmatching","f15","Stranger","right","Stranger","Other","Stranger","Stranger",1454.8,1.4548,1
2,7,"Nonmatching","f27","Stranger","left","Stranger","User","Self","Self",1329.1,1.3291,1
2,8,"Matching","m34","Stranger","right","Stranger","Other","Stranger","Stranger",1247.4,1.2474,1
2,9,"Matching","m38","Stranger","left","Stranger","User","Self","Self",1086.4,1.0864,1
2,10,"Matching","m35","Stranger","right","Stranger","Other","Stranger","Stranger",879.6,0.8796,1
2,11,"Matching","f18","Stranger","right","Stranger","Other","Stranger","Stranger",936.1,0.9361,1
2,12,"Matching","f15","Stranger","right","Stranger","Other","Stranger","Stranger",2180.1,2.1801,1
2,13,"Matching","f27","Stranger","left","Stranger","User","Self","Self",1049.3,1.0493,1
2,14,"Nonmatching","f15","Me","left","Me","Other","Stranger","Stranger",1301.6,1.3016,1
2,15,"Matching","m33","Stranger","left","Stranger","User","Self","Self",1065.8,1.0658,1
2,16,"Nonmatching","m38","Me","right","Me","User","Self","Self",714,0.714,1
2,17,"Matching","m33","Me","right","Me","User","Self","Self",1465.4,1.4654,1
2,18,"Nonmatching","m38","Me","right","Me","User","Self","Self",707.5,0.7075,1
2,19,"Nonmatching","m33","Stranger","left","Stranger","User","Self","Self",1018.9,1.0189,1
2,20,"Matching","m33","Stranger","left","Stranger","User","Self","Self",2142.4,2.1424,1
2,21,"Nonmatching","f27","Stranger","left","Stranger","User","Self","Self",2058.5,2.0585,1
2,22,"Nonmatching","f4","Stranger","right","Stranger","User","Self","Self",947.8000001,0.9478000001,0
2,23,"Nonmatching","m35","Me","left","Me","Other","Stranger","Stranger",1217.2,1.2172,1
2,24,"Nonmatching","m35","Me","left","Me","Other","Stranger","Stranger",2230.3,2.2303,1
2,25,"Nonmatching","f27","Me","right","Me","User","Self","Self",1587.4,1.5874,1
2,26,"Nonmatching","m34","Stranger","right","Stranger","Other","Stranger","Stranger",2917.2,2.9172,1
2,27,"Matching","f18","Me","left","Me","Other","Stranger","Stranger",1599.2,1.5992,1
2,28,"Matching","f27","Me","right","Me","User","Self","Self",1311.5,1.3115,1
2,29,"Nonmatching","m34","Me","left","Me","Other","Stranger","Stranger",3680,3.68,1
2,30,"Nonmatching","f15","Stranger","left","Stranger","Other","Stranger","Stranger",1749.4,1.7494,0
2,31,"Nonmatching","f15","Me","right","Me","Other","Stranger","Stranger",1281.4,1.2814,0
2,32,"Matching","f15","Me","right","Me","Other","Stranger","Stranger",1867.2,1.8672,0
2,33,"Nonmatching","m38","Stranger","left","Stranger","User","Self","Self",3321.5,3.3215,1
2,34,"Matching","m38","Me","right","Me","User","Self","Self",2602.8,2.6028,1
2,35,"Matching","f18","Me","right","Me","Other","Stranger","Stranger",2660.4,2.6604,0
2,36,"Nonmatching","m38","Stranger","left","Stranger","User","Self","Self",7439.1,7.4391,1
2,37,"Nonmatching","f18","Stranger","right","Stranger","Other","Stranger","Stranger",2548.7,2.5487,1
2,38,"Matching","f4","Me","left","Me","User","Self","Self",2353.8,2.3538,0
2,39,"Matching","f4","Stranger","left","Stranger","User","Self","Self",2769.7,2.7697,1
2,40,"Matching","f27","Me","right","Me","User","Self","Self",2039.9,2.0399,1
2,41,"Matching","m35","Stranger","right","Stranger","Other","Stranger","Stranger",1152,1.152,1
2,42,"Matching","f4","Stranger","right","Stranger","User","Self","Self",1519.9,1.5199,0
2,43,"Nonmatching","m35","Stranger","right","Stranger","Other","Stranger","Stranger",950.7,0.9507,1
2,44,"Nonmatching","f18","Stranger","right","Stranger","Other","Stranger","Stranger",1869.5,1.8695,1
2,45,"Nonmatching","f18","Me","left","Me","Other","Stranger","Stranger",914.6999999,0.9146999999,1
2,46,"Nonmatching","f18","Me","left","Me","Other","Stranger","Stranger",1804.7,1.8047,1
2,47,"Nonmatching","f4","Stranger","right","Stranger","User","Self","Self",864.8000001,0.8648000001,0
2,48,"Nonmatching","f4","Me","left","Me","User","Self","Self",2792.1,2.7921,0
2,49,"Nonmatching","m33","Me","right","Me","User","Self","Self",1363.4,1.3634,1
2,50,"Nonmatching","m34","Stranger","right","Stranger","Other","Stranger","Stranger",1214.6,1.2146,1
2,51,"Matching","m34","Stranger","right","Stranger","Other","Stranger","Stranger",842.3000001,0.8423000001,1
2,52,"Matching","m33","Me","right","Me","User","Self","Self",604.6999999,0.6046999999,1
2,53,"Matching","f4","Me","right","Me","User","Self","Self",1910.9,1.9109,1
2,54,"Nonmatching","f27","Me","right","Me","User","Self","Self",664.6999999,0.6646999999,1
2,55,"Nonmatching","m33","Stranger","left","Stranger","User","Self","Self",1666.6,1.6666,1
2,56,"Matching","m34","Me","left","Me","Other","Stranger","Stranger",2251.4,2.2514,1
2,57,"Matching","f18","Stranger","left","Stranger","Other","Stranger","Stranger",2284.9,2.2849,0
2,58,"Nonmatching","m33","Me","right","Me","User","Self","Self",1300.1,1.3001,1
2,59,"Matching","m38","Stranger","left","Stranger","User","Self","Self",1007.6,1.0076,1
2,60,"Nonmatching","m34","Me","left","Me","Other","Stranger","Stranger",2421.7,2.4217,1
2,61,"Nonmatching","f4","Me","right","Me","User","Self","Self",1503.9,1.5039,1
2,62,"Matching","m35","Me","left","Me","Other","Stranger","Stranger",1659.6,1.6596,1
2,63,"Matching","m34","Me","left","Me","Other","Stranger","Stranger",833.1,0.8331,1
2,64,"Matching","m38","Me","right","Me","User","Self","Self",640.6,0.6406,1
3,1,"Matching","f15","Stranger","right","Stranger","User","Self","Self",1211.5,1.2115,0
3,2,"Nonmatching","f27","Stranger","right","Stranger","Other","Stranger","Stranger",1598.4,1.5984,1
3,3,"Nonmatching","m35","Me","right","Me","User","Self","Self",2570,2.57,1
3,4,"Nonmatching","f15","Me","right","Me","User","Self","Self",1603.9,1.6039,1
3,5,"Nonmatching","m38","Stranger","right","Stranger","Other","Stranger","Stranger",1226.9,1.2269,1
3,6,"Nonmatching","m33","Stranger","right","Stranger","Other","Stranger","Stranger",1930,1.93,1
3,7,"Matching","m34","Stranger","right","Stranger","User","Self","Self",1415.4,1.4154,0
3,8,"Matching","m34","Stranger","left","Stranger","User","Self","Self",1179,1.179,1
3,9,"Matching","m38","Me","right","Me","Other","Stranger","Stranger",1367.1,1.3671,0
3,10,"Nonmatching","f18","Stranger","left","Stranger","User","Self","Self",783.2,0.7832,1
3,11,"Nonmatching","m33","Me","left","Me","Other","Stranger","Stranger",2294.6,2.2946,1
3,12,"Matching","f27","Stranger","right","Stranger","Other","Stranger","Stranger",1685.8,1.6858,1
3,13,"Nonmatching","f27","Me","left","Me","Other","Stranger","Stranger",1393.2,1.3932,1
3,14,"Matching","m33","Stranger","left","Stranger","Other","Stranger","Stranger",1121.8,1.1218,0
3,15,"Nonmatching","f15","Me","right","Me","User","Self","Self",1060.7,1.0607,1
3,16,"Matching","f15","Me","right","Me","User","Self","Self",929.5,0.9295,1
3,17,"Nonmatching","f27","Stranger","right","Stranger","Other","Stranger","Stranger",1074.2,1.0742,1
3,18,"Matching","m35","Stranger","right","Stranger","User","Self","Self",1069.4,1.0694,0
3,19,"Nonmatching","f15","Stranger","left","Stranger","User","Self","Self",1881.2,1.8812,1
3,20,"Nonmatching","f27","Me","left","Me","Other","Stranger","Stranger",964.1,0.9641,1
3,21,"Matching","f18","Me","left","Me","User","Self","Self",877.2,0.8772,0
3,22,"Matching","m38","Stranger","left","Stranger","Other","Stranger","Stranger",885.6,0.8856,0
3,23,"Nonmatching","f15","Stranger","left","Stranger","User","Self","Self",470.2,0.4702,1
3,24,"Nonmatching","f18","Me","left","Me","User","Self","Self",451.4,0.4514,0
3,25,"Nonmatching","m38","Stranger","left","Stranger","Other","Stranger","Stranger",1544.1,1.5441,0
3,26,"Nonmatching","f18","Me","right","Me","User","Self","Self",871.8,0.8718,1
3,27,"Matching","f15","Me","right","Me","User","Self","Self",1939.1,1.9391,1
3,28,"Nonmatching","m38","Me","left","Me","Other","Stranger","Stranger",610.9,0.6109,1
3,29,"Matching","m34","Me","left","Me","User","Self","Self",863,0.863,0
3,30,"Matching","f4","Me","right","Me","Other","Stranger","Stranger",852.3,0.8523,0
3,31,"Matching","f27","Me","left","Me","Other","Stranger","Stranger",1977.6,1.9776,1
3,32,"Matching","m35","Stranger","left","Stranger","User","Self","Self",1301.9,1.3019,1
3,33,"Matching","f18","Stranger","right","Stranger","User","Self","Self",1797.5,1.7975,0
3,34,"Matching","m38","Stranger","left","Stranger","Other","Stranger","Stranger",684,0.684,0
3,35,"Matching","m35","Me","left","Me","User","Self","Self",709.2,0.7092,0
3,36,"Nonmatching","f18","Stranger","right","Stranger","User","Self","Self",864.9,0.8649,0
3,37,"Matching","m34","Me","left","Me","User","Self","Self",1017.8,1.0178,0
3,38,"Nonmatching","f4","Me","left","Me","Other","Stranger","Stranger",1062.2,1.0622,1
3,39,"Nonmatching","f4","Me","left","Me","Other","Stranger","Stranger",1446.1,1.4461,1
3,40,"Matching","f4","Me","left","Me","Other","Stranger","Stranger",853.8,0.8538,1
3,41,"Nonmatching","m34","Me","left","Me","User","Self","Self",2261.3,2.2613,0
3,42,"Matching","m33","Me","left","Me","Other","Stranger","Stranger",1223.3,1.2233,1
3,43,"Nonmatching","m34","Stranger","left","Stranger","User","Self","Self",489.4,0.4894,1
3,44,"Nonmatching","m35","Stranger","left","Stranger","User","Self","Self",7113.5,7.1135,1
3,45,"Matching","m33","Me","left","Me","Other","Stranger","Stranger",1024.1,1.0241,1
3,46,"Nonmatching","m34","Stranger","right","Stranger","User","Self","Self",1374.6,1.3746,0
3,47,"Matching","f18","Stranger","right","Stranger","User","Self","Self",992.7,0.9927,0
3,48,"Matching","f27","Me","left","Me","Other","Stranger","Stranger",1221.7,1.2217,1
3,49,"Matching","m33","Stranger","right","Stranger","Other","Stranger","Stranger",1081.2,1.0812,1
3,50,"Matching","f4","Stranger","left","Stranger","Other","Stranger","Stranger",2045.4,2.0454,0
3,51,"Matching","f18","Me","right","Me","User","Self","Self",693.3,0.6933,1
3,52,"Matching","f27","Stranger","right","Stranger","Other","Stranger","Stranger",480.2,0.4802,1
3,53,"Nonmatching","f4","Stranger","right","Stranger","Other","Stranger","Stranger",1144,1.144,1
3,54,"Nonmatching","f4","Stranger","right","Stranger","Other","Stranger","Stranger",502.3,0.5023,1
3,55,"Matching","m38","Me","left","Me","Other","Stranger","Stranger",507.6,0.5076,1
3,56,"Nonmatching","m38","Me","right","Me","Other","Stranger","Stranger",394.2,0.3942,0
3,57,"Matching","m35","Me","left","Me","User","Self","Self",737.1,0.7371,0
3,58,"Nonmatching","m33","Me","left","Me","Other","Stranger","Stranger",415.8,0.4158,1
3,59,"Nonmatching","m35","Me","right","Me","User","Self","Self",466.5,0.4665,1
3,60,"Nonmatching","m35","Stranger","left","Stranger","User","Self","Self",450,0.45,1
3,61,"Nonmatching","m33","Stranger","right","Stranger","Other","Stranger","Stranger",411.5,0.4115,1
3,62,"Matching","f4","Stranger","right","Stranger","Other","Stranger","Stranger",2022.6,2.0226,1
3,63,"Matching","f15","Stranger","left","Stranger","User","Self","Self",805.4,0.8054,1
3,64,"Nonmatching","m34","Me","left","Me","User","Self","Self",1447.7,1.4477,0
4,1,"Matching","m33","Me","right","Me","Other","Stranger","Stranger",693,0.693,0
4,2,"Matching","m38","Stranger","right","Stranger","Other","Stranger","Stranger",1754,1.754,1
4,3,"Matching","m33","Me","right","Me","Other","Stranger","Stranger",282,0.282,0
4,4,"Nonmatching","m38","Me","right","Me","Other","Stranger","Stranger",61,0.061,0
4,5,"Matching","m38","Stranger","left","Stranger","Other","Stranger","Stranger",237,0.237,0
4,6,"Nonmatching","f27","Stranger","left","Stranger","Other","Stranger","Stranger",2257,2.257,0
4,7,"Nonmatching","f15","Stranger","right","Stranger","User","Self","Self",260,0.26,0
4,8,"Matching","f18","Stranger","right","Stranger","User","Self","Self",269,0.269,0
4,9,"Matching","f4","Stranger","left","Stranger","Other","Stranger","Stranger",368,0.368,0
4,10,"Matching","m35","Me","right","Me","User","Self","Self",778,0.778,1
4,11,"Matching","m35","Stranger","left","Stranger","User","Self","Self",352,0.352,1
4,12,"Matching","f15","Me","right","Me","User","Self","Self",487,0.487,1
4,13,"Matching","f15","Stranger","left","Stranger","User","Self","Self",348,0.348,1
4,14,"Nonmatching","f27","Me","left","Me","Other","Stranger","Stranger",624,0.624,1
4,15,"Matching","f18","Me","right","Me","User","Self","Self",569,0.569,1
4,16,"Nonmatching","m35","Stranger","right","Stranger","User","Self","Self",624,0.624,0
4,17,"Nonmatching","m35","Stranger","left","Stranger","User","Self","Self",503,0.503,1
4,18,"Nonmatching","f27","Me","left","Me","Other","Stranger","Stranger",434,0.434,1
4,19,"Matching","m33","Stranger","right","Stranger","Other","Stranger","Stranger",852,0.852,1
4,20,"Nonmatching","f4","Stranger","left","Stranger","Other","Stranger","Stranger",804,0.804,0
4,21,"Nonmatching","m34","Me","left","Me","User","Self","Self",559,0.559,0
4,22,"Nonmatching","f18","Stranger","right","Stranger","User","Self","Self",453,0.453,0
4,23,"Nonmatching","f18","Stranger","left","Stranger","User","Self","Self",591,0.591,1
4,24,"Matching","m34","Stranger","right","Stranger","User","Self","Self",676,0.676,0
4,25,"Nonmatching","m34","Me","right","Me","User","Self","Self",546,0.546,1
4,26,"Matching","f15","Me","right","Me","User","Self","Self",565,0.565,1
4,27,"Matching","m34","Me","right","Me","User","Self","Self",500,0.5,1
4,28,"Matching","m38","Me","right","Me","Other","Stranger","Stranger",416,0.416,0
4,29,"Nonmatching","m33","Me","left","Me","Other","Stranger","Stranger",570,0.57,1
4,30,"Nonmatching","m38","Stranger","right","Stranger","Other","Stranger","Stranger",1726,1.726,1
4,31,"Matching","f4","Stranger","right","Stranger","Other","Stranger","Stranger",470,0.47,1
4,32,"Matching","m34","Me","right","Me","User","Self","Self",1659,1.659,1
4,33,"Matching","f27","Stranger","left","Stranger","Other","Stranger","Stranger",688,0.688,0
4,34,"Nonmatching","m34","Stranger","right","Stranger","User","Self","Self",2756,2.756,0
4,35,"Nonmatching","f15","Me","right","Me","User","Self","Self",436,0.436,1
4,36,"Nonmatching","m34","Stranger","left","Stranger","User","Self","Self",767,0.767,1
4,37,"Nonmatching","f4","Me","right","Me","Other","Stranger","Stranger",518,0.518,0
4,38,"Nonmatching","f4","Stranger","right","Stranger","Other","Stranger","Stranger",625,0.625,1
4,39,"Matching","f27","Stranger","right","Stranger","Other","Stranger","Stranger",1842,1.842,1
4,40,"Nonmatching","m33","Stranger","right","Stranger","Other","Stranger","Stranger",403,0.403,1
4,41,"Nonmatching","f27","Stranger","right","Stranger","Other","Stranger","Stranger",384,0.384,1
4,42,"Matching","f4","Me","right","Me","Other","Stranger","Stranger",1246,1.246,0
4,43,"Matching","m34","Stranger","right","Stranger","User","Self","Self",707,0.707,0
4,44,"Matching","m35","Stranger","right","Stranger","User","Self","Self",3772,3.772,0
4,45,"Nonmatching","m38","Me","left","Me","Other","Stranger","Stranger",744,0.744,1
4,46,"Nonmatching","f15","Stranger","left","Stranger","User","Self","Self",552,0.552,1
4,47,"Matching","f15","Stranger","left","Stranger","User","Self","Self",1153,1.153,1
4,48,"Nonmatching","m35","Me","right","Me","User","Self","Self",456,0.456,1
4,49,"Nonmatching","f18","Me","right","Me","User","Self","Self",396,0.396,1
4,50,"Nonmatching","m35","Me","right","Me","User","Self","Self",329,0.329,1
4,51,"Matching","f27","Me","left","Me","Other","Stranger","Stranger",474,0.474,1
4,52,"Matching","m35","Me","right","Me","User","Self","Self",291,0.291,1
4,53,"Matching","f18","Me","right","Me","User","Self","Self",370,0.37,1
4,54,"Nonmatching","f15","Me","right","Me","User","Self","Self",454,0.454,1
4,55,"Matching","f4","Me","right","Me","Other","Stranger","Stranger",496,0.496,0
4,56,"Nonmatching","m38","Stranger","right","Stranger","Other","Stranger","Stranger",382,0.382,1
4,57,"Matching","m33","Stranger","right","Stranger","Other","Stranger","Stranger",426,0.426,1
4,58,"Matching","f18","Stranger","left","Stranger","User","Self","Self",1008,1.008,1
4,59,"Matching","m38","Me","left","Me","Other","Stranger","Stranger",347,0.347,1
4,60,"Nonmatching","m33","Me","left","Me","Other","Stranger","Stranger",1189,1.189,1
4,61,"Nonmatching","m33","Stranger","right","Stranger","Other","Stranger","Stranger",666,0.666,1
4,62,"Nonmatching","f4","Me","right","Me","Other","Stranger","Stranger",400,0.4,0
4,63,"Matching","f27","Me","left","Me","Other","Stranger","Stranger",898,0.898,1
4,64,"Nonmatching","f18","Me","right","Me","User","Self","Self",435,0.435,1
5,1,"Nonmatching","m33","Stranger","left","Stranger","Other","Stranger","Stranger",2148.8,2.1488,0
5,2,"Nonmatching","m35","Me","right","Me","User","Self","Self",2531.6,2.5316,1
5,3,"Nonmatching","m38","Me","right","Me","Other","Stranger","Stranger",1795.3,1.7953,0
5,4,"Nonmatching","m34","Stranger","right","Stranger","User","Self","Self",447.6,0.4476,0
5,5,"Nonmatching","f18","Me","left","Me","User","Self","Self",2803.6,2.8036,0
5,6,"Nonmatching","f15","Me","right","Me","User","Self","Self",773,0.773,1
5,7,"Matching","f27","Stranger","right","Stranger","Other","Stranger","Stranger",910.1,0.9101,1
5,8,"Nonmatching","f18","Stranger","left","Stranger","User","Self","Self",1130.8,1.1308,1
5,9,"Nonmatching","m34","Stranger","left","Stranger","User","Self","Self",1016.4,1.0164,1
5,10,"Matching","f27","Me","left","Me","Other","Stranger","Stranger",863.7,0.8637,1
5,11,"Nonmatching","f15","Me","right","Me","User","Self","Self",616.6,0.6166,1
5,12,"Matching","f4","Me","left","Me","Other","Stranger","Stranger",1288.6,1.2886,1
5,13,"Nonmatching","f4","Me","right","Me","Other","Stranger","Stranger",973.5,0.9735,0
5,14,"Matching","m33","Stranger","right","Stranger","Other","Stranger","Stranger",1494.3,1.4943,1
5,15,"Nonmatching","m35","Stranger","right","Stranger","User","Self","Self",1794.7,1.7947,0
5,16,"Matching","m34","Stranger","right","Stranger","User","Self","Self",3864.5,3.8645,0
5,17,"Nonmatching","f18","Stranger","right","Stranger","User","Self","Self",3485.2,3.4852,0
5,18,"Matching","m35","Me","right","Me","User","Self","Self",602.6,0.6026,1
5,19,"Nonmatching","f4","Me","left","Me","Other","Stranger","Stranger",572.1,0.5721,1
5,20,"Nonmatching","m35","Me","right","Me","User","Self","Self",736.4,0.7364,1
5,21,"Matching","f27","Me","left","Me","Other","Stranger","Stranger",1918.3,1.9183,1
5,22,"Nonmatching","m38","Me","right","Me","Other","Stranger","Stranger",1258.3,1.2583,0
5,23,"Nonmatching","m33","Me","right","Me","Other","Stranger","Stranger",1016.7,1.0167,0
5,24,"Matching","f15","Me","right","Me","User","Self","Self",904.8,0.9048,1
5,25,"Matching","m38","Me","left","Me","Other","Stranger","Stranger",2046.4,2.0464,1
5,26,"Nonmatching","f27","Me","left","Me","Other","Stranger","Stranger",396,0.396,1
5,27,"Matching","m35","Stranger","left","Stranger","User","Self","Self",647.7,0.6477,1
5,28,"Matching","m33","Me","left","Me","Other","Stranger","Stranger",953.6,0.9536,1
5,29,"Nonmatching","f4","Stranger","left","Stranger","Other","Stranger","Stranger",1216.8,1.2168,0
5,30,"Matching","m33","Me","left","Me","Other","Stranger","Stranger",627.5,0.6275,1
5,31,"Matching","f18","Me","right","Me","User","Self","Self",693.6,0.6936,1
5,32,"Matching","f15","Stranger","left","Stranger","User","Self","Self",789,0.789,1
5,33,"Nonmatching","m38","Stranger","right","Stranger","Other","Stranger","Stranger",1331.7,1.3317,1
5,34,"Matching","m35","Me","right","Me","User","Self","Self",624.9,0.6249,1
5,35,"Matching","m38","Me","right","Me","Other","Stranger","Stranger",619.9,0.6199,0
5,36,"Nonmatching","m33","Stranger","right","Stranger","Other","Stranger","Stranger",1073.3,1.0733,1
5,37,"Matching","f27","Stranger","left","Stranger","Other","Stranger","Stranger",896.4,0.8964,0
5,38,"Matching","m34","Me","right","Me","User","Self","Self",961.9,0.9619,1
5,39,"Matching","f4","Stranger","right","Stranger","Other","Stranger","Stranger",2160.1,2.1601,1
5,40,"Nonmatching","f27","Stranger","left","Stranger","Other","Stranger","Stranger",749.6,0.7496,0
5,41,"Nonmatching","f18","Me","right","Me","User","Self","Self",583.6,0.5836,1
5,42,"Matching","m34","Me","right","Me","User","Self","Self",539.7,0.5397,1
5,43,"Matching","f18","Me","right","Me","User","Self","Self",692,0.692,1
5,44,"Matching","f4","Me","left","Me","Other","Stranger","Stranger",544.4,0.5444,1
5,45,"Matching","f18","Stranger","left","Stranger","User","Self","Self",1085.5,1.0855,1
5,46,"Matching","m33","Stranger","right","Stranger","Other","Stranger","Stranger",780.5,0.7805,1
5,47,"Matching","m38","Stranger","right","Stranger","Other","Stranger","Stranger",1494.3,1.4943,1
5,48,"Matching","m34","Stranger","right","Stranger","User","Self","Self",1417.1,1.4171,0
5,49,"Matching","m35","Stranger","right","Stranger","User","Self","Self",886.3,0.8863,0
5,50,"Matching","f4","Stranger","left","Stranger","Other","Stranger","Stranger",2873.1,2.8731,0
5,51,"Nonmatching","f4","Stranger","right","Stranger","Other","Stranger","Stranger",1201.9,1.2019,1
5,52,"Nonmatching","m35","Stranger","left","Stranger","User","Self","Self",967.8,0.9678,1
5,53,"Nonmatching","f15","Stranger","left","Stranger","User","Self","Self",1052.9,1.0529,1
5,54,"Nonmatching","m34","Me","right","Me","User","Self","Self",1204.3,1.2043,1
5,55,"Nonmatching","m34","Me","right","Me","User","Self","Self",698.2,0.6982,1
5,56,"Nonmatching","m33","Me","left","Me","Other","Stranger","Stranger",998.4,0.9984,1
5,57,"Matching","m38","Stranger","right","Stranger","Other","Stranger","Stranger",1203.3,1.2033,1
5,58,"Nonmatching","f27","Stranger","right","Stranger","Other","Stranger","Stranger",1307.2,1.3072,1
5,59,"Matching","f18","Stranger","right","Stranger","User","Self","Self",1322.3,1.3223,0
5,60,"Matching","f15","Me","right","Me","User","Self","Self",548.3,0.5483,1
5,61,"Matching","f15","Stranger","left","Stranger","User","Self","Self",767.2,0.7672,1
5,62,"Nonmatching","f15","Stranger","left","Stranger","User","Self","Self",897.1,0.8971,1
5,63,"Nonmatching","f27","Me","right","Me","Other","Stranger","Stranger",715,0.715,0
5,64,"Nonmatching","m38","Stranger","left","Stranger","Other","Stranger","Stranger",786.6,0.7866,0
6,1,"Matching","f15","Stranger","left","Stranger","User","Self","Self",1838,1.838,1
6,2,"Nonmatching","f18","Me","right","Me","User","Self","Self",992,0.992,1
6,3,"Nonmatching","m38","Stranger","left","Stranger","Other","Stranger","Stranger",732,0.732,0
6,4,"Matching","m34","Stranger","left","Stranger","User","Self","Self",1011,1.011,1
6,5,"Nonmatching","f4","Stranger","right","Stranger","Other","Stranger","Stranger",979,0.979,1
6,6,"Nonmatching","f27","Me","right","Me","Other","Stranger","Stranger",783,0.783,0
6,7,"Matching","f27","Me","left","Me","Other","Stranger","Stranger",989,0.989,1
6,8,"Nonmatching","m34","Stranger","left","Stranger","User","Self","Self",711,0.711,1
6,9,"Matching","m38","Stranger","left","Stranger","Other","Stranger","Stranger",672,0.672,0
6,10,"Matching","m33","Stranger","right","Stranger","Other","Stranger","Stranger",961,0.961,1
6,11,"Matching","m35","Stranger","right","Stranger","User","Self","Self",696,0.696,0
6,12,"Matching","m35","Stranger","right","Stranger","User","Self","Self",1349,1.349,0
6,13,"Nonmatching","m34","Stranger","left","Stranger","User","Self","Self",743,0.743,1
6,14,"Nonmatching","f15","Stranger","left","Stranger","User","Self","Self",922,0.922,1
6,15,"Nonmatching","m38","Stranger","right","Stranger","Other","Stranger","Stranger",786,0.786,1
6,16,"Nonmatching","m34","Me","right","Me","User","Self","Self",635,0.635,1
6,17,"Nonmatching","m35","Stranger","right","Stranger","User","Self","Self",771,0.771,0
6,18,"Matching","f18","Me","right","Me","User","Self","Self",669,0.669,1
6,19,"Matching","m33","Me","left","Me","Other","Stranger","Stranger",843,0.843,1
6,20,"Nonmatching","m38","Me","left","Me","Other","Stranger","Stranger",718,0.718,1
6,21,"Nonmatching","f27","Stranger","left","Stranger","Other","Stranger","Stranger",1172,1.172,0
6,22,"Matching","f27","Me","left","Me","Other","Stranger","Stranger",870,0.87,1
6,23,"Nonmatching","f4","Stranger","right","Stranger","Other","Stranger","Stranger",727,0.727,1
6,24,"Matching","m33","Stranger","right","Stranger","Other","Stranger","Stranger",783,0.783,1
6,25,"Matching","f15","Me","right","Me","User","Self","Self",606,0.606,1
6,26,"Matching","f15","Stranger","left","Stranger","User","Self","Self",559,0.559,1
6,27,"Matching","f18","Stranger","right","Stranger","User","Self","Self",1430,1.43,0
6,28,"Nonmatching","f15","Me","right","Me","User","Self","Self",569,0.569,1
6,29,"Matching","f4","Me","left","Me","Other","Stranger","Stranger",618,0.618,1
6,30,"Matching","m34","Me","right","Me","User","Self","Self",590,0.59,1
6,31,"Matching","f18","Me","right","Me","User","Self","Self",715,0.715,1
6,32,"Matching","f18","Stranger","left","Stranger","User","Self","Self",664,0.664,1
6,33,"Matching","f4","Stranger","right","Stranger","Other","Stranger","Stranger",1574,1.574,1
6,34,"Nonmatching","f4","Me","left","Me","Other","Stranger","Stranger",703,0.703,1
6,35,"Nonmatching","f18","Me","right","Me","User","Self","Self",477,0.477,1
6,36,"Matching","m34","Me","right","Me","User","Self","Self",457,0.457,1
6,37,"Nonmatching","m35","Me","left","Me","User","Self","Self",792,0.792,0
6,38,"Nonmatching","f18","Stranger","left","Stranger","User","Self","Self",514,0.514,1
6,39,"Matching","f27","Stranger","left","Stranger","Other","Stranger","Stranger",682,0.682,0
6,40,"Nonmatching","f15","Me","right","Me","User","Self","Self",408,0.408,1
6,41,"Matching","m33","Me","left","Me","Other","Stranger","Stranger",544,0.544,1
6,42,"Nonmatching","f15","Stranger","left","Stranger","User","Self","Self",515,0.515,1
6,43,"Matching","f4","Stranger","left","Stranger","Other","Stranger","Stranger",1787,1.787,0
6,44,"Matching","f27","Stranger","left","Stranger","Other","Stranger","Stranger",560,0.56,0
6,45,"Nonmatching","m33","Me","left","Me","Other","Stranger","Stranger",628,0.628,1
6,46,"Nonmatching","f27","Me","right","Me","Other","Stranger","Stranger",1522,1.522,0
6,47,"Nonmatching","m34","Me","right","Me","User","Self","Self",371,0.371,1
6,48,"Nonmatching","m33","Stranger","right","Stranger","Other","Stranger","Stranger",388,0.388,1
6,49,"Nonmatching","m33","Stranger","right","Stranger","Other","Stranger","Stranger",515,0.515,1
6,50,"Nonmatching","f27","Stranger","right","Stranger","Other","Stranger","Stranger",742,0.742,1
6,51,"Matching","m38","Stranger","right","Stranger","Other","Stranger","Stranger",496,0.496,1
6,52,"Matching","m38","Me","left","Me","Other","Stranger","Stranger",462,0.462,1
6,53,"Matching","m35","Me","left","Me","User","Self","Self",1150,1.15,0
6,54,"Nonmatching","m35","Stranger","right","Stranger","User","Self","Self",983,0.983,0
6,55,"Matching","m35","Me","right","Me","User","Self","Self",624,0.624,1
6,56,"Nonmatching","m33","Me","left","Me","Other","Stranger","Stranger",499,0.499,1
6,57,"Nonmatching","m35","Me","right","Me","User","Self","Self",507,0.507,1
6,58,"Nonmatching","f18","Stranger","left","Stranger","User","Self","Self",627,0.627,1
6,59,"Nonmatching","m38","Me","left","Me","Other","Stranger","Stranger",932,0.932,1
6,60,"Matching","f4","Me","left","Me","Other","Stranger","Stranger",606,0.606,1
6,61,"Matching","m38","Me","left","Me","Other","Stranger","Stranger",633,0.633,1
6,62,"Matching","m34","Stranger","left","Stranger","User","Self","Self",541,0.541,1
6,63,"Matching","f15","Me","left","Me","User","Self","Self",770,0.77,0
6,64,"Nonmatching","f4","Me","left","Me","Other","Stranger","Stranger",618,0.618,1
7,1,"Matching","f27","Stranger","right","Stranger","Other","Stranger","Stranger",8111.7,8.1117,1
7,2,"Matching","f4","Stranger","left","Stranger","Other","Stranger","Stranger",4764.1,4.7641,0
7,3,"Matching","m34","Stranger","left","Stranger","User","Self","Self",4130.8,4.1308,1
7,4,"Matching","m34","Me","right","Me","User","Self","Self",3353.4,3.3534,1
7,5,"Nonmatching","m33","Me","right","Me","Other","Stranger","Stranger",1049.9,1.0499,0
7,6,"Matching","m34","Me","right","Me","User","Self","Self",822.1,0.8221,1
7,7,"Matching","m35","Me","right","Me","User","Self","Self",1188.6,1.1886,1
7,8,"Nonmatching","f15","Me","right","Me","User","Self","Self",4058.1,4.0581,1
7,9,"Nonmatching","f27","Me","left","Me","Other","Stranger","Stranger",2136.5,2.1365,1
7,10,"Nonmatching","f4","Me","right","Me","Other","Stranger","Stranger",3234.3,3.2343,0
7,11,"Matching","m38","Stranger","left","Stranger","Other","Stranger","Stranger",2171.9,2.1719,0
7,12,"Nonmatching","f18","Me","left","Me","User","Self","Self",4289.2,4.2892,0
7,13,"Matching","f4","Me","left","Me","Other","Stranger","Stranger",3305.6,3.3056,1
7,14,"Nonmatching","f15","Stranger","right","Stranger","User","Self","Self",4958.1,4.9581,0
7,15,"Matching","f18","Stranger","left","Stranger","User","Self","Self",5764.6,5.7646,1
7,16,"Matching","m35","Me","right","Me","User","Self","Self",4591,4.591,1
7,17,"Matching","m33","Stranger","right","Stranger","Other","Stranger","Stranger",3489.7,3.4897,1
7,18,"Matching","f4","Stranger","right","Stranger","Other","Stranger","Stranger",5007,5.007,1
7,19,"Nonmatching","f27","Stranger","right","Stranger","Other","Stranger","Stranger",4414.4,4.4144,1
7,20,"Nonmatching","m33","Stranger","right","Stranger","Other","Stranger","Stranger",1031.3,1.0313,1
7,21,"Matching","m35","Stranger","left","Stranger","User","Self","Self",3981.3,3.9813,1
7,22,"Matching","f18","Me","right","Me","User","Self","Self",3141.7,3.1417,1
7,23,"Matching","f4","Me","left","Me","Other","Stranger","Stranger",1621.8,1.6218,1
7,24,"Nonmatching","f4","Me","left","Me","Other","Stranger","Stranger",5635.7,5.6357,1
7,25,"Matching","m35","Stranger","left","Stranger","User","Self","Self",2818.7,2.8187,1
7,26,"Nonmatching","m38","Me","left","Me","Other","Stranger","Stranger",3929.4,3.9294,1
7,27,"Matching","f15","Stranger","right","Stranger","User","Self","Self",1383.5,1.3835,0
7,28,"Nonmatching","m34","Me","right","Me","User","Self","Self",5288.9,5.2889,1
7,29,"Nonmatching","m38","Me","left","Me","Other","Stranger","Stranger",1372.3,1.3723,1
7,30,"Nonmatching","f27","Me","left","Me","Other","Stranger","Stranger",2287.6,2.2876,1
7,31,"Nonmatching","m33","Stranger","right","Stranger","Other","Stranger","Stranger",3107.4,3.1074,1
7,32,"Nonmatching","m35","Me","right","Me","User","Self","Self",1537.8,1.5378,1
7,33,"Matching","f27","Me","left","Me","Other","Stranger","Stranger",1382.4,1.3824,1
7,34,"Matching","m38","Stranger","right","Stranger","Other","Stranger","Stranger",3365.6,3.3656,1
7,35,"Nonmatching","f18","Me","right","Me","User","Self","Self",2236.9,2.2369,1
7,36,"Nonmatching","m34","Stranger","left","Stranger","User","Self","Self",1315.3,1.3153,1
7,37,"Matching","f18","Me","right","Me","User","Self","Self",1501.4,1.5014,1
7,38,"Nonmatching","m35","Me","right","Me","User","Self","Self",1420.8,1.4208,1
7,39,"Nonmatching","f4","Stranger","right","Stranger","Other","Stranger","Stranger",987.9,0.9879,1
7,40,"Matching","m38","Me","left","Me","Other","Stranger","Stranger",2105.3,2.1053,1
7,41,"Nonmatching","m38","Stranger","left","Stranger","Other","Stranger","Stranger",3578,3.578,0
7,42,"Matching","m33","Me","left","Me","Other","Stranger","Stranger",2729.6,2.7296,1
7,43,"Nonmatching","m35","Stranger","right","Stranger","User","Self","Self",2295.1,2.2951,0
7,44,"Nonmatching","m35","Stranger","left","Stranger","User","Self","Self",2544.3,2.5443,1
7,45,"Nonmatching","f15","Stranger","right","Stranger","User","Self","Self",1200.6,1.2006,0
7,46,"Matching","m33","Me","left","Me","Other","Stranger","Stranger",1004,1.004,1
7,47,"Nonmatching","m38","Stranger","right","Stranger","Other","Stranger","Stranger",2439.3,2.4393,1
7,48,"Nonmatching","m34","Stranger","left","Stranger","User","Self","Self",1214,1.214,1
7,49,"Nonmatching","f27","Stranger","right","Stranger","Other","Stranger","Stranger",3421.8,3.4218,1
7,50,"Matching","f27","Me","left","Me","Other","Stranger","Stranger",1175,1.175,1
7,51,"Nonmatching","m34","Me","right","Me","User","Self","Self",1006.5,1.0065,1
7,52,"Nonmatching","f4","Stranger","right","Stranger","Other","Stranger","Stranger",971.9,0.9719,1
7,53,"Matching","m34","Stranger","left","Stranger","User","Self","Self",1090.8,1.0908,1
7,54,"Nonmatching","m33","Me","left","Me","Other","Stranger","Stranger",2333.8,2.3338,1
7,55,"Matching","f15","Stranger","right","Stranger","User","Self","Self",2614.6,2.6146,0
7,56,"Matching","f15","Me","right","Me","User","Self","Self",1718.9,1.7189,1
7,57,"Matching","f18","Stranger","left","Stranger","User","Self","Self",1135.7,1.1357,1
7,58,"Nonmatching","f18","Stranger","left","Stranger","User","Self","Self",2963.3,2.9633,1
7,59,"Matching","m33","Stranger","right","Stranger","Other","Stranger","Stranger",1205.2,1.2052,1
7,60,"Nonmatching","f18","Stranger","left","Stranger","User","Self","Self",1863.1,1.8631,1
7,61,"Matching","m38","Me","left","Me","Other","Stranger","Stranger",1150.1,1.1501,1
7,62,"Matching","f15","Me","left","Me","User","Self","Self",3887.9,3.8879,0
7,63,"Nonmatching","f15","Me","right","Me","User","Self","Self",1662.4,1.6624,1
7,64,"Matching","f27","Stranger","right","Stranger","Other","Stranger","Stranger",1157.8,1.1578,1
8,1,"Nonmatching","f18","Me","left","Me","Other","Stranger","Stranger",1165,1.165,1
8,2,"Matching","m38","Stranger","left","Stranger","User","Self","Self",870,0.87,1
8,3,"Nonmatching","m33","Stranger","left","Stranger","User","Self","Self",499,0.499,1
8,4,"Matching","m34","Me","left","Me","Other","Stranger","Stranger",736,0.736,1
8,5,"Matching","m33","Me","right","Me","User","Self","Self",450,0.45,1
8,6,"Matching","f18","Stranger","right","Stranger","Other","Stranger","Stranger",720,0.72,1
8,7,"Nonmatching","m35","Me","left","Me","Other","Stranger","Stranger",500,0.5,1
8,8,"Nonmatching","f27","Me","right","Me","User","Self","Self",440,0.44,1
8,9,"Nonmatching","f4","Me","right","Me","User","Self","Self",535,0.535,1
8,10,"Nonmatching","f18","Stranger","left","Stranger","Other","Stranger","Stranger",1232,1.232,0
8,11,"Nonmatching","m33","Stranger","left","Stranger","User","Self","Self",807,0.807,1
8,12,"Matching","m34","Me","left","Me","Other","Stranger","Stranger",399,0.399,1
8,13,"Matching","f4","Me","right","Me","User","Self","Self",422,0.422,1
8,14,"Nonmatching","m35","Me","left","Me","Other","Stranger","Stranger",510,0.51,1
8,15,"Matching","m33","Stranger","left","Stranger","User","Self","Self",632,0.632,1
8,16,"Matching","m33","Me","right","Me","User","Self","Self",376,0.376,1
8,17,"Nonmatching","m38","Stranger","left","Stranger","User","Self","Self",592,0.592,1
8,18,"Nonmatching","f15","Stranger","right","Stranger","Other","Stranger","Stranger",401,0.401,1
8,19,"Matching","m38","Me","right","Me","User","Self","Self",353,0.353,1
8,20,"Nonmatching","m33","Me","right","Me","User","Self","Self",434,0.434,1
8,21,"Nonmatching","m38","Me","right","Me","User","Self","Self",457,0.457,1
8,22,"Nonmatching","f15","Me","left","Me","Other","Stranger","Stranger",486,0.486,1
8,23,"Matching","f27","Stranger","left","Stranger","User","Self","Self",419,0.419,1
8,24,"Nonmatching","m33","Me","right","Me","User","Self","Self",362,0.362,1
8,25,"Nonmatching","m35","Stranger","right","Stranger","Other","Stranger","Stranger",484,0.484,1
8,26,"Matching","f27","Me","right","Me","User","Self","Self",889,0.889,1
8,27,"Matching","m35","Stranger","right","Stranger","Other","Stranger","Stranger",597,0.597,1
8,28,"Matching","f15","Me","right","Me","Other","Stranger","Stranger",445,0.445,0
8,29,"Nonmatching","f4","Stranger","left","Stranger","User","Self","Self",459,0.459,1
8,30,"Nonmatching","f4","Stranger","left","Stranger","User","Self","Self",665,0.665,1
8,31,"Nonmatching","m35","Stranger","right","Stranger","Other","Stranger","Stranger",429,0.429,1
8,32,"Matching","f18","Stranger","left","Stranger","Other","Stranger","Stranger",486,0.486,0
8,33,"Nonmatching","m34","Stranger","right","Stranger","Other","Stranger","Stranger",617,0.617,1
8,34,"Matching","m35","Me","left","Me","Other","Stranger","Stranger",784,0.784,1
8,35,"Matching","f18","Me","left","Me","Other","Stranger","Stranger",560,0.56,1
8,36,"Matching","f27","Stranger","left","Stranger","User","Self","Self",1011,1.011,1
8,37,"Matching","m38","Stranger","left","Stranger","User","Self","Self",906,0.906,1
8,38,"Nonmatching","m34","Me","left","Me","Other","Stranger","Stranger",422,0.422,1
8,39,"Matching","f4","Stranger","left","Stranger","User","Self","Self",564,0.564,1
8,40,"Matching","f4","Me","right","Me","User","Self","Self",471,0.471,1
8,41,"Nonmatching","f15","Stranger","right","Stranger","Other","Stranger","Stranger",1115,1.115,1
8,42,"Nonmatching","m38","Stranger","left","Stranger","User","Self","Self",430,0.43,1
8,43,"Nonmatching","f27","Stranger","left","Stranger","User","Self","Self",550,0.55,1
8,44,"Nonmatching","m38","Me","right","Me","User","Self","Self",871,0.871,1
8,45,"Matching","m35","Stranger","right","Stranger","Other","Stranger","Stranger",437,0.437,1
8,46,"Matching","f18","Me","left","Me","Other","Stranger","Stranger",619,0.619,1
8,47,"Nonmatching","f18","Stranger","right","Stranger","Other","Stranger","Stranger",724,0.724,1
8,48,"Matching","m35","Me","left","Me","Other","Stranger","Stranger",814,0.814,1
8,49,"Matching","f15","Stranger","right","Stranger","Other","Stranger","Stranger",397,0.397,1
8,50,"Matching","f27","Me","right","Me","User","Self","Self",405,0.405,1
8,51,"Nonmatching","f4","Me","right","Me","User","Self","Self",766,0.766,1
8,52,"Matching","m33","Stranger","left","Stranger","User","Self","Self",446,0.446,1
8,53,"Nonmatching","m34","Stranger","right","Stranger","Other","Stranger","Stranger",405,0.405,1
8,54,"Matching","m34","Stranger","right","Stranger","Other","Stranger","Stranger",828,0.828,1
8,55,"Nonmatching","f27","Stranger","left","Stranger","User","Self","Self",970,0.97,1
8,56,"Nonmatching","m34","Me","left","Me","Other","Stranger","Stranger",604,0.604,1
8,57,"Matching","f15","Stranger","right","Stranger","Other","Stranger","Stranger",540,0.54,1
8,58,"Matching","f4","Stranger","left","Stranger","User","Self","Self",950,0.95,1
8,59,"Nonmatching","f18","Me","left","Me","Other","Stranger","Stranger",1160,1.16,1
8,60,"Nonmatching","f27","Me","right","Me","User","Self","Self",1066,1.066,1
8,61,"Matching","m34","Stranger","right","Stranger","Other","Stranger","Stranger",1006,1.006,1
8,62,"Matching","m38","Me","right","Me","User","Self","Self",430,0.43,1
8,63,"Matching","f15","Me","left","Me","Other","Stranger","Stranger",573,0.573,1
8,64,"Nonmatching","f15","Me","left","Me","Other","Stranger","Stranger",822,0.822,1
9,1,"Matching","m34","Stranger","left","Stranger","User","Self","Self",2701.6,2.7016,1
9,2,"Matching","f15","Stranger","right","Stranger","User","Self","Self",4165.6,4.1656,0
9,3,"Matching","m35","Stranger","right","Stranger","User","Self","Self",2439.8,2.4398,0
9,4,"Matching","f18","Me","left","Me","User","Self","Self",1755.5,1.7555,0
9,5,"Matching","f18","Me","right","Me","User","Self","Self",1779.5,1.7795,1
9,6,"Matching","m33","Me","right","Me","Other","Stranger","Stranger",1355.4,1.3554,0
9,7,"Nonmatching","f27","Me","left","Me","Other","Stranger","Stranger",1389.7,1.3897,1
9,8,"Nonmatching","m38","Stranger","right","Stranger","Other","Stranger","Stranger",3645.7,3.6457,1
9,9,"Matching","m33","Stranger","left","Stranger","Other","Stranger","Stranger",1689.3,1.6893,0
9,10,"Matching","f27","Stranger","left","Stranger","Other","Stranger","Stranger",1633.5,1.6335,0
9,11,"Nonmatching","m35","Stranger","left","Stranger","User","Self","Self",1464.6,1.4646,1
9,12,"Nonmatching","m38","Me","left","Me","Other","Stranger","Stranger",966.1000001,0.9661000001,1
9,13,"Nonmatching","f15","Stranger","left","Stranger","User","Self","Self",1206.4,1.2064,1
9,14,"Nonmatching","m33","Me","right","Me","Other","Stranger","Stranger",1113.9,1.1139,0
9,15,"Nonmatching","f18","Stranger","left","Stranger","User","Self","Self",1554.3,1.5543,1
9,16,"Matching","f4","Me","left","Me","Other","Stranger","Stranger",1109,1.109,1
9,17,"Matching","f27","Me","right","Me","Other","Stranger","Stranger",779.2,0.7792,0
9,18,"Nonmatching","m33","Stranger","right","Stranger","Other","Stranger","Stranger",1309.6,1.3096,1
9,19,"Matching","m35","Me","left","Me","User","Self","Self",1503.4,1.5034,0
9,20,"Matching","m38","Stranger","right","Stranger","Other","Stranger","Stranger",3568.5,3.5685,1
9,21,"Matching","f27","Stranger","right","Stranger","Other","Stranger","Stranger",957.7,0.9577,1
9,22,"Matching","m33","Me","left","Me","Other","Stranger","Stranger",1177.7,1.1777,1
9,23,"Matching","f4","Me","left","Me","Other","Stranger","Stranger",1313.2,1.3132,1
9,24,"Matching","m38","Me","left","Me","Other","Stranger","Stranger",791.0999999,0.7910999999,1
9,25,"Matching","m33","Stranger","right","Stranger","Other","Stranger","Stranger",650.0999999,0.6500999999,1
9,26,"Nonmatching","f4","Me","left","Me","Other","Stranger","Stranger",720.7,0.7207,1
9,27,"Matching","m38","Me","left","Me","Other","Stranger","Stranger",958.1000001,0.9581000001,1
9,28,"Nonmatching","f27","Stranger","right","Stranger","Other","Stranger","Stranger",661.6000001,0.6616000001,1
9,29,"Nonmatching","m35","Me","left","Me","User","Self","Self",548.5,0.5485,0
9,30,"Nonmatching","m34","Stranger","right","Stranger","User","Self","Self",766,0.766,0
9,31,"Nonmatching","f15","Stranger","left","Stranger","User","Self","Self",1036.6,1.0366,1
9,32,"Nonmatching","f18","Stranger","right","Stranger","User","Self","Self",767.5,0.7675,0
9,33,"Nonmatching","m38","Me","right","Me","Other","Stranger","Stranger",1219.2,1.2192,0
9,34,"Matching","m35","Me","right","Me","User","Self","Self",756.5,0.7565,1
9,35,"Nonmatching","m34","Stranger","right","Stranger","User","Self","Self",895.1000001,0.8951000001,0
9,36,"Matching","f4","Stranger","right","Stranger","Other","Stranger","Stranger",675.0999999,0.6750999999,1
9,37,"Nonmatching","m34","Me","right","Me","User","Self","Self",763.5999999,0.7635999999,1
9,38,"Matching","m34","Stranger","left","Stranger","User","Self","Self",815.4000001,0.8154000001,1
9,39,"Matching","f4","Stranger","right","Stranger","Other","Stranger","Stranger",709.3999999,0.7093999999,1
9,40,"Nonmatching","f4","Me","left","Me","Other","Stranger","Stranger",579.3,0.5793,1
9,41,"Nonmatching","f15","Me","right","Me","User","Self","Self",701.2,0.7012,1
9,42,"Matching","m38","Stranger","right","Stranger","Other","Stranger","Stranger",932.5999999,0.9325999999,1
9,43,"Nonmatching","m33","Stranger","right","Stranger","Other","Stranger","Stranger",839.5,0.8395,1
9,44,"Nonmatching","f15","Me","right","Me","User","Self","Self",632.3000002,0.6323000002,1
9,45,"Nonmatching","m38","Stranger","right","Stranger","Other","Stranger","Stranger",1059.5,1.0595,1
9,46,"Nonmatching","f27","Me","left","Me","Other","Stranger","Stranger",501,0.501,1
9,47,"Nonmatching","f27","Stranger","right","Stranger","Other","Stranger","Stranger",682.6000001,0.6826000001,1
9,48,"Matching","m35","Stranger","left","Stranger","User","Self","Self",746.9000001,0.7469000001,1
9,49,"Matching","m34","Me","right","Me","User","Self","Self",1184.2,1.1842,1
9,50,"Matching","f18","Stranger","right","Stranger","User","Self","Self",1034.4,1.0344,0
9,51,"Nonmatching","m33","Me","left","Me","Other","Stranger","Stranger",1269.9,1.2699,1
9,52,"Matching","m34","Me","right","Me","User","Self","Self",758.8,0.7588,1
9,53,"Nonmatching","f18","Me","left","Me","User","Self","Self",969.8,0.9698,0
9,54,"Matching","f15","Stranger","left","Stranger","User","Self","Self",1028.2,1.0282,1
9,55,"Nonmatching","f4","Stranger","right","Stranger","Other","Stranger","Stranger",528.7,0.5287,1
9,56,"Nonmatching","f18","Me","right","Me","User","Self","Self",586.6999998,0.5866999998,1
9,57,"Matching","f15","Me","right","Me","User","Self","Self",516.9000001,0.5169000001,1
9,58,"Matching","f27","Me","left","Me","Other","Stranger","Stranger",658.5,0.6585,1
9,59,"Nonmatching","m35","Stranger","right","Stranger","User","Self","Self",1039.1,1.0391,0
9,60,"Nonmatching","f4","Stranger","right","Stranger","Other","Stranger","Stranger",680.8999999,0.6808999999,1
9,61,"Matching","f18","Stranger","left","Stranger","User","Self","Self",738.7,0.7387,1
9,62,"Matching","f15","Me","right","Me","User","Self","Self",496.5,0.4965,1
9,63,"Nonmatching","m35","Me","left","Me","User","Self","Self",1021.6,1.0216,0
9,64,"Nonmatching","m34","Me","right","Me","User","Self","Self",1352.2,1.3522,1
10,1,"Nonmatching","m35","Me","left","Me","User","Self","Self",2618.4,2.6184,0
10,2,"Matching","f15","Me","right","Me","User","Self","Self",1411.1,1.4111,1
10,3,"Matching","m33","Me","right","Me","Other","Stranger","Stranger",1093.2,1.0932,0
10,4,"Nonmatching","f18","Me","right","Me","User","Self","Self",589.3,0.5893,1
10,5,"Nonmatching","f18","Me","right","Me","User","Self","Self",821.6,0.8216,1
10,6,"Matching","f4","Stranger","right","Stranger","Other","Stranger","Stranger",1112,1.112,1
10,7,"Matching","f15","Stranger","left","Stranger","User","Self","Self",1659,1.659,1
10,8,"Nonmatching","m38","Stranger","right","Stranger","Other","Stranger","Stranger",905.4,0.9054,1
10,9,"Nonmatching","f4","Me","left","Me","Other","Stranger","Stranger",1977.7,1.9777,1
10,10,"Nonmatching","m33","Me","left","Me","Other","Stranger","Stranger",608.2,0.6082,1
10,11,"Nonmatching","m34","Stranger","left","Stranger","User","Self","Self",1893.6,1.8936,1
10,12,"Nonmatching","f15","Me","right","Me","User","Self","Self",454,0.454,1
10,13,"Matching","m35","Me","right","Me","User","Self","Self",1127.5,1.1275,1
10,14,"Matching","m38","Me","left","Me","Other","Stranger","Stranger",876.2,0.8762,1
10,15,"Nonmatching","f15","Me","right","Me","User","Self","Self",490.9,0.4909,1
10,16,"Nonmatching","m34","Me","right","Me","User","Self","Self",642.9,0.6429,1
10,17,"Matching","m38","Stranger","right","Stranger","Other","Stranger","Stranger",758.5,0.7585,1
10,18,"Matching","m38","Stranger","right","Stranger","Other","Stranger","Stranger",567.6,0.5676,1
10,19,"Nonmatching","m38","Me","left","Me","Other","Stranger","Stranger",529.2,0.5292,1
10,20,"Matching","f4","Me","left","Me","Other","Stranger","Stranger",613.6,0.6136,1
10,21,"Matching","f18","Stranger","left","Stranger","User","Self","Self",876.5,0.8765,1
10,22,"Matching","f4","Stranger","right","Stranger","Other","Stranger","Stranger",836.1,0.8361,1
10,23,"Matching","m38","Me","left","Me","Other","Stranger","Stranger",914.1,0.9141,1
10,24,"Matching","m35","Stranger","left","Stranger","User","Self","Self",1375.6,1.3756,1
10,25,"Nonmatching","f18","Stranger","left","Stranger","User","Self","Self",768.6,0.7686,1
10,26,"Nonmatching","m35","Me","right","Me","User","Self","Self",1019.2,1.0192,1
10,27,"Nonmatching","f4","Me","left","Me","Other","Stranger","Stranger",2092.3,2.0923,1
10,28,"Matching","f15","Stranger","left","Stranger","User","Self","Self",581.8,0.5818,1
10,29,"Nonmatching","f18","Stranger","left","Stranger","User","Self","Self",711.3,0.7113,1
10,30,"Nonmatching","m34","Stranger","left","Stranger","User","Self","Self",401.3,0.4013,1
10,31,"Matching","m34","Stranger","left","Stranger","User","Self","Self",395.4,0.3954,1
10,32,"Matching","m33","Me","right","Me","Other","Stranger","Stranger",543,0.543,0
10,33,"Matching","f27","Me","left","Me","Other","Stranger","Stranger",696,0.696,1
10,34,"Nonmatching","f15","Stranger","left","Stranger","User","Self","Self",593.9,0.5939,1
10,35,"Nonmatching","f27","Me","left","Me","Other","Stranger","Stranger",703.1,0.7031,1
10,36,"Matching","m35","Stranger","left","Stranger","User","Self","Self",549.5,0.5495,1
10,37,"Nonmatching","m34","Me","right","Me","User","Self","Self",1166.6,1.1666,1
10,38,"Nonmatching","f4","Stranger","right","Stranger","Other","Stranger","Stranger",1544.6,1.5446,1
10,39,"Nonmatching","m33","Stranger","right","Stranger","Other","Stranger","Stranger",1580.6,1.5806,1
10,40,"Nonmatching","f27","Stranger","right","Stranger","Other","Stranger","Stranger",734,0.734,1
10,41,"Nonmatching","f27","Me","left","Me","Other","Stranger","Stranger",914.9,0.9149,1
10,42,"Matching","m33","Stranger","right","Stranger","Other","Stranger","Stranger",1361.6,1.3616,1
10,43,"Nonmatching","m38","Me","left","Me","Other","Stranger","Stranger",1941.5,1.9415,1
10,44,"Matching","m34","Me","right","Me","User","Self","Self",1171.6,1.1716,1
10,45,"Nonmatching","m38","Stranger","right","Stranger","Other","Stranger","Stranger",1423.9,1.4239,1
10,46,"Nonmatching","f4","Stranger","right","Stranger","Other","Stranger","Stranger",812.8,0.8128,1
10,47,"Matching","m33","Stranger","right","Stranger","Other","Stranger","Stranger",698.1,0.6981,1
10,48,"Matching","f18","Me","right","Me","User","Self","Self",730.4,0.7304,1
10,49,"Matching","f18","Stranger","left","Stranger","User","Self","Self",2004.4,2.0044,1
10,50,"Matching","f27","Me","left","Me","Other","Stranger","Stranger",1067.5,1.0675,1
10,51,"Matching","f27","Stranger","right","Stranger","Other","Stranger","Stranger",1572.3,1.5723,1
10,52,"Nonmatching","f27","Stranger","right","Stranger","Other","Stranger","Stranger",699.5,0.6995,1
10,53,"Nonmatching","m35","Stranger","right","Stranger","User","Self","Self",2090.2,2.0902,0
10,54,"Matching","f4","Me","left","Me","Other","Stranger","Stranger",2488.9,2.4889,1
10,55,"Matching","m34","Me","right","Me","User","Self","Self",656.4,0.6564,1
10,56,"Matching","m34","Stranger","left","Stranger","User","Self","Self",1160,1.16,1
10,57,"Nonmatching","m33","Me","left","Me","Other","Stranger","Stranger",1645.7,1.6457,1
10,58,"Nonmatching","m33","Stranger","right","Stranger","Other","Stranger","Stranger",852.9,0.8529,1
10,59,"Nonmatching","m35","Stranger","left","Stranger","User","Self","Self",1818.7,1.8187,1
10,60,"Matching","m35","Me","right","Me","User","Self","Self",2024.8,2.0248,1
10,61,"Nonmatching","f15","Stranger","left","Stranger","User","Self","Self",1725.2,1.7252,1
10,62,"Matching","f15","Me","right","Me","User","Self","Self",954.6,0.9546,1
10,63,"Matching","f18","Me","right","Me","User","Self","Self",1479.1,1.4791,1
10,64,"Matching","f27","Stranger","right","Stranger","Other","Stranger","Stranger",737.9,0.7379,1
11,1,"Matching","f27","Me","right","Me","Other","Stranger","Stranger",1769.6,1.7696,0
11,2,"Nonmatching","m33","Stranger","right","Stranger","Other","Stranger","Stranger",1809.9,1.8099,1
11,3,"Matching","m35","Stranger","left","Stranger","User","Self","Self",2402.9,2.4029,1
11,4,"Matching","f18","Stranger","left","Stranger","User","Self","Self",2338.7,2.3387,1
11,5,"Nonmatching","m38","Stranger","left","Stranger","Other","Stranger","Stranger",1749.1,1.7491,0
11,6,"Nonmatching","f15","Stranger","right","Stranger","User","Self","Self",1598.6,1.5986,0
11,7,"Nonmatching","m35","Stranger","right","Stranger","User","Self","Self",3583.3,3.5833,0
11,8,"Matching","m34","Stranger","left","Stranger","User","Self","Self",2983.8,2.9838,1
11,9,"Matching","m38","Stranger","left","Stranger","Other","Stranger","Stranger",1752.3,1.7523,0
11,10,"Nonmatching","m33","Me","left","Me","Other","Stranger","Stranger",3522.4,3.5224,1
11,11,"Matching","m33","Me","left","Me","Other","Stranger","Stranger",1725.5,1.7255,1
11,12,"Nonmatching","f27","Stranger","left","Stranger","Other","Stranger","Stranger",3632.1,3.6321,0
11,13,"Nonmatching","f4","Me","left","Me","Other","Stranger","Stranger",1887.2,1.8872,1
11,14,"Nonmatching","m34","Me","right","Me","User","Self","Self",1756.2,1.7562,1
11,15,"Nonmatching","f27","Me","left","Me","Other","Stranger","Stranger",2485,2.485,1
11,16,"Matching","f27","Stranger","right","Stranger","Other","Stranger","Stranger",2090.4,2.0904,1
11,17,"Matching","m35","Me","right","Me","User","Self","Self",1703.3,1.7033,1
11,18,"Matching","f4","Stranger","right","Stranger","Other","Stranger","Stranger",1466.9,1.4669,1
11,19,"Nonmatching","f15","Stranger","left","Stranger","User","Self","Self",1896.7,1.8967,1
11,20,"Matching","m33","Me","left","Me","Other","Stranger","Stranger",2373,2.373,1
11,21,"Nonmatching","f18","Me","right","Me","User","Self","Self",965.7,0.9657,1
11,22,"Matching","f15","Stranger","left","Stranger","User","Self","Self",719.2,0.7192,1
11,23,"Nonmatching","m34","Stranger","left","Stranger","User","Self","Self",1418.6,1.4186,1
11,24,"Matching","m38","Stranger","left","Stranger","Other","Stranger","Stranger",930.1,0.9301,0
11,25,"Matching","m34","Me","right","Me","User","Self","Self",788.6,0.7886,1
11,26,"Nonmatching","m38","Me","right","Me","Other","Stranger","Stranger",701.9,0.7019,0
11,27,"Matching","f15","Me","right","Me","User","Self","Self",738,0.738,1
11,28,"Nonmatching","f4","Me","left","Me","Other","Stranger","Stranger",1331.5,1.3315,1
11,29,"Matching","f4","Me","left","Me","Other","Stranger","Stranger",967,0.967,1
11,30,"Nonmatching","m34","Stranger","left","Stranger","User","Self","Self",1415.1,1.4151,1
11,31,"Nonmatching","f18","Stranger","left","Stranger","User","Self","Self",1295.5,1.2955,1
11,32,"Nonmatching","m38","Me","left","Me","Other","Stranger","Stranger",1331.7,1.3317,1
11,33,"Nonmatching","f18","Stranger","left","Stranger","User","Self","Self",1758.9,1.7589,1
11,34,"Matching","f27","Me","right","Me","Other","Stranger","Stranger",1529,1.529,0
11,35,"Matching","m33","Stranger","right","Stranger","Other","Stranger","Stranger",1244,1.244,1
11,36,"Nonmatching","f4","Stranger","right","Stranger","Other","Stranger","Stranger",882.5,0.8825,1
11,37,"Matching","m38","Me","left","Me","Other","Stranger","Stranger",1487.1,1.4871,1
11,38,"Matching","f4","Me","left","Me","Other","Stranger","Stranger",1739.6,1.7396,1
11,39,"Nonmatching","f4","Stranger","right","Stranger","Other","Stranger","Stranger",950.5,0.9505,1
11,40,"Nonmatching","m35","Me","right","Me","User","Self","Self",1232.2,1.2322,1
11,41,"Matching","f4","Stranger","right","Stranger","Other","Stranger","Stranger",1679.1,1.6791,1
11,42,"Matching","f15","Me","right","Me","User","Self","Self",1219.9,1.2199,1
11,43,"Nonmatching","f15","Me","right","Me","User","Self","Self",931.2,0.9312,1
11,44,"Matching","m34","Me","right","Me","User","Self","Self",637.8,0.6378,1
11,45,"Nonmatching","f18","Me","right","Me","User","Self","Self",700.1,0.7001,1
11,46,"Matching","m35","Me","right","Me","User","Self","Self",816.2,0.8162,1
11,47,"Nonmatching","m33","Me","left","Me","Other","Stranger","Stranger",814.3,0.8143,1
11,48,"Matching","f18","Stranger","left","Stranger","User","Self","Self",1439.2,1.4392,1
11,49,"Matching","f18","Me","right","Me","User","Self","Self",694.1,0.6941,1
11,50,"Nonmatching","f15","Me","right","Me","User","Self","Self",721.9,0.7219,1
11,51,"Nonmatching","m35","Me","right","Me","User","Self","Self",605,0.605,1
11,52,"Nonmatching","m35","Stranger","left","Stranger","User","Self","Self",1285.4,1.2854,1
11,53,"Matching","f15","Stranger","left","Stranger","User","Self","Self",1274.2,1.2742,1
11,54,"Matching","f27","Stranger","right","Stranger","Other","Stranger","Stranger",3063.3,3.0633,1
11,55,"Matching","m34","Stranger","left","Stranger","User","Self","Self",973.2,0.9732,1
11,56,"Matching","f18","Me","right","Me","User","Self","Self",886.6,0.8866,1
11,57,"Matching","m33","Stranger","right","Stranger","Other","Stranger","Stranger",1034.7,1.0347,1
11,58,"Matching","m38","Me","left","Me","Other","Stranger","Stranger",1209.2,1.2092,1
11,59,"Nonmatching","f27","Me","left","Me","Other","Stranger","Stranger",1545.5,1.5455,1
11,60,"Nonmatching","m33","Stranger","right","Stranger","Other","Stranger","Stranger",859.4,0.8594,1
11,61,"Matching","m35","Stranger","left","Stranger","User","Self","Self",1361.8,1.3618,1
11,62,"Nonmatching","m38","Stranger","right","Stranger","Other","Stranger","Stranger",891.7,0.8917,1
11,63,"Nonmatching","f27","Stranger","right","Stranger","Other","Stranger","Stranger",816.9,0.8169,1
11,64,"Nonmatching","m34","Me","right","Me","User","Self","Self",847.1,0.8471,1
12,1,"Matching","m34","Me","right","Me","Other","Stranger","Stranger",1826.9,1.8269,0
12,2,"Matching","f18","Me","left","Me","Other","Stranger","Stranger",564,0.564,1
12,3,"Nonmatching","f18","Me","left","Me","Other","Stranger","Stranger",713.8,0.7138,1
12,4,"Matching","f4","Me","right","Me","User","Self","Self",759,0.759,1
12,5,"Nonmatching","f4","Stranger","left","Stranger","User","Self","Self",517.3999999,0.5173999999,1
12,6,"Matching","m33","Me","left","Me","User","Self","Self",587.4000001,0.5874000001,0
12,7,"Matching","m38","Stranger","right","Stranger","User","Self","Self",562.3,0.5623,0
12,8,"Matching","m33","Stranger","left","Stranger","User","Self","Self",1608.3,1.6083,1
12,9,"Matching","f4","Stranger","left","Stranger","User","Self","Self",712.7,0.7127,1
12,10,"Nonmatching","f15","Me","left","Me","Other","Stranger","Stranger",697.2,0.6972,1
12,11,"Nonmatching","m33","Me","right","Me","User","Self","Self",531.8,0.5318,1
12,12,"Matching","m35","Stranger","left","Stranger","Other","Stranger","Stranger",753.8,0.7538,0
12,13,"Matching","f27","Me","left","Me","User","Self","Self",791,0.791,0
12,14,"Nonmatching","m34","Stranger","left","Stranger","Other","Stranger","Stranger",767.1999998,0.7671999998,0
12,15,"Nonmatching","f18","Stranger","right","Stranger","Other","Stranger","Stranger",1368.6,1.3686,1
12,16,"Nonmatching","m35","Me","right","Me","Other","Stranger","Stranger",1536.7,1.5367,0
12,17,"Matching","f18","Me","left","Me","Other","Stranger","Stranger",922.5,0.9225,1
12,18,"Matching","m38","Stranger","left","Stranger","User","Self","Self",1128,1.128,1
12,19,"Matching","m34","Stranger","right","Stranger","Other","Stranger","Stranger",1142.5,1.1425,1
12,20,"Matching","f4","Me","right","Me","User","Self","Self",674.7,0.6747,1
12,21,"Matching","m38","Me","right","Me","User","Self","Self",601.3,0.6013,1
12,22,"Nonmatching","f18","Stranger","right","Stranger","Other","Stranger","Stranger",945.5999999,0.9455999999,1
12,23,"Matching","f18","Stranger","right","Stranger","Other","Stranger","Stranger",784.6999998,0.7846999998,1
12,24,"Matching","m35","Me","left","Me","Other","Stranger","Stranger",1254.3,1.2543,1
12,25,"Matching","f15","Me","right","Me","Other","Stranger","Stranger",793.5999999,0.7935999999,0
12,26,"Matching","f27","Stranger","right","Stranger","User","Self","Self",1348.7,1.3487,0
12,27,"Nonmatching","m35","Me","left","Me","Other","Stranger","Stranger",796.8,0.7968,1
12,28,"Matching","m33","Me","right","Me","User","Self","Self",790.5,0.7905,1
12,29,"Matching","f27","Stranger","left","Stranger","User","Self","Self",1645.9,1.6459,1
12,30,"Nonmatching","f18","Me","left","Me","Other","Stranger","Stranger",906.9000001,0.9069000001,1
12,31,"Nonmatching","m38","Stranger","left","Stranger","User","Self","Self",873.1999998,0.8731999998,1
12,32,"Matching","m35","Stranger","right","Stranger","Other","Stranger","Stranger",1038.6,1.0386,1
12,33,"Nonmatching","f27","Me","right","Me","User","Self","Self",669,0.669,1
12,34,"Matching","f18","Stranger","right","Stranger","Other","Stranger","Stranger",2084.2,2.0842,1
12,35,"Nonmatching","f4","Me","left","Me","User","Self","Self",1071.5,1.0715,0
12,36,"Nonmatching","m34","Me","left","Me","Other","Stranger","Stranger",735.6999998,0.7356999998,1
12,37,"Nonmatching","f15","Me","left","Me","Other","Stranger","Stranger",989.3,0.9893,1
12,38,"Matching","m35","Me","left","Me","Other","Stranger","Stranger",790.8,0.7908,1
12,39,"Nonmatching","m33","Me","right","Me","User","Self","Self",550.6999998,0.5506999998,1
12,40,"Nonmatching","m35","Stranger","right","Stranger","Other","Stranger","Stranger",498.5,0.4985,1
12,41,"Nonmatching","f27","Stranger","left","Stranger","User","Self","Self",744.3999999,0.7443999999,1
12,42,"Matching","f27","Me","right","Me","User","Self","Self",467.6999998,0.4676999998,1
12,43,"Nonmatching","m33","Stranger","left","Stranger","User","Self","Self",883.7,0.8837,1
12,44,"Nonmatching","f27","Me","right","Me","User","Self","Self",726.1000001,0.7261000001,1
12,45,"Nonmatching","m38","Me","right","Me","User","Self","Self",709.5999999,0.7095999999,1
12,46,"Matching","f15","Me","left","Me","Other","Stranger","Stranger",681.3999999,0.6813999999,1
12,47,"Matching","m34","Me","left","Me","Other","Stranger","Stranger",1327.4,1.3274,1
12,48,"Nonmatching","m35","Stranger","right","Stranger","Other","Stranger","Stranger",698.9000001,0.6989000001,1
12,49,"Matching","f15","Stranger","right","Stranger","Other","Stranger","Stranger",707.2,0.7072,1
12,50,"Matching","m34","Stranger","right","Stranger","Other","Stranger","Stranger",826.4000001,0.8264000001,1
12,51,"Nonmatching","m38","Stranger","left","Stranger","User","Self","Self",724.1000001,0.7241000001,1
12,52,"Nonmatching","f4","Me","right","Me","User","Self","Self",790.6999998,0.7906999998,1
12,53,"Matching","f4","Stranger","left","Stranger","User","Self","Self",1057.6,1.0576,1
12,54,"Matching","f15","Stranger","right","Stranger","Other","Stranger","Stranger",1267.7,1.2677,1
12,55,"Nonmatching","m34","Stranger","right","Stranger","Other","Stranger","Stranger",480.3,0.4803,1
12,56,"Nonmatching","m34","Me","left","Me","Other","Stranger","Stranger",633.6000001,0.6336000001,1
12,57,"Nonmatching","f15","Stranger","right","Stranger","Other","Stranger","Stranger",821.2,0.8212,1
12,58,"Matching","m38","Me","right","Me","User","Self","Self",421.9000001,0.4219000001,1
12,59,"Nonmatching","f15","Stranger","left","Stranger","Other","Stranger","Stranger",639.3999999,0.6393999999,0
12,60,"Nonmatching","m33","Stranger","left","Stranger","User","Self","Self",634.8,0.6348,1
12,61,"Nonmatching","m38","Me","right","Me","User","Self","Self",520.7,0.5207,1
12,62,"Nonmatching","f27","Stranger","left","Stranger","User","Self","Self",663.7,0.6637,1
12,63,"Nonmatching","f4","Stranger","left","Stranger","User","Self","Self",874.7,0.8747,1
12,64,"Matching","m33","Stranger","left","Stranger","User","Self","Self",756.4000001,0.7564000001,1
13,1,"Matching","m38","Stranger","right","Stranger","User","Self","Self",4416.7,4.4167,0
13,2,"Matching","m38","Me","right","Me","User","Self","Self",2043.5,2.0435,1
13,3,"Nonmatching","m38","Stranger","left","Stranger","User","Self","Self",1034.1,1.0341,1
13,4,"Matching","f15","Me","left","Me","Other","Stranger","Stranger",1367.7,1.3677,1
13,5,"Matching","f27","Stranger","left","Stranger","User","Self","Self",768.2,0.7682,1
13,6,"Nonmatching","f18","Me","right","Me","Other","Stranger","Stranger",1957.9,1.9579,0
13,7,"Matching","f27","Me","right","Me","User","Self","Self",784,0.784,1
13,8,"Nonmatching","f18","Me","left","Me","Other","Stranger","Stranger",1239.1,1.2391,1
13,9,"Matching","f18","Me","left","Me","Other","Stranger","Stranger",919.5,0.9195,1
13,10,"Matching","m34","Stranger","right","Stranger","Other","Stranger","Stranger",2163.1,2.1631,1
13,11,"Matching","m33","Me","right","Me","User","Self","Self",798.2,0.7982,1
13,12,"Matching","f27","Me","right","Me","User","Self","Self",652.6,0.6526,1
13,13,"Nonmatching","f15","Me","left","Me","Other","Stranger","Stranger",1544.7,1.5447,1
13,14,"Nonmatching","m33","Stranger","left","Stranger","User","Self","Self",900.2,0.9002,1
13,15,"Nonmatching","m38","Me","right","Me","User","Self","Self",914,0.914,1
13,16,"Nonmatching","f18","Stranger","left","Stranger","Other","Stranger","Stranger",639.1,0.6391,0
13,17,"Matching","f27","Stranger","left","Stranger","User","Self","Self",1083.4,1.0834,1
13,18,"Nonmatching","m34","Me","right","Me","Other","Stranger","Stranger",494.6,0.4946,0
13,19,"Matching","m34","Stranger","right","Stranger","Other","Stranger","Stranger",906.7,0.9067,1
13,20,"Matching","m34","Me","left","Me","Other","Stranger","Stranger",799.4,0.7994,1
13,21,"Nonmatching","f27","Me","right","Me","User","Self","Self",653.8,0.6538,1
13,22,"Matching","m35","Me","left","Me","Other","Stranger","Stranger",1071.6,1.0716,1
13,23,"Matching","m38","Me","right","Me","User","Self","Self",716.8,0.7168,1
13,24,"Matching","f18","Stranger","right","Stranger","Other","Stranger","Stranger",931.1,0.9311,1
13,25,"Nonmatching","f27","Me","right","Me","User","Self","Self",687.5,0.6875,1
13,26,"Nonmatching","m33","Me","right","Me","User","Self","Self",2307.7,2.3077,1
13,27,"Nonmatching","m33","Me","right","Me","User","Self","Self",679.9,0.6799,1
13,28,"Nonmatching","f4","Stranger","left","Stranger","User","Self","Self",877.4,0.8774,1
13,29,"Matching","m34","Me","left","Me","Other","Stranger","Stranger",961,0.961,1
13,30,"Matching","m35","Me","left","Me","Other","Stranger","Stranger",1692.4,1.6924,1
13,31,"Nonmatching","m34","Me","left","Me","Other","Stranger","Stranger",890.2,0.8902,1
13,32,"Matching","f15","Stranger","right","Stranger","Other","Stranger","Stranger",805.9,0.8059,1
13,33,"Nonmatching","m34","Stranger","left","Stranger","Other","Stranger","Stranger",791.8,0.7918,0
13,34,"Nonmatching","m38","Stranger","left","Stranger","User","Self","Self",926.6,0.9266,1
13,35,"Matching","f18","Me","left","Me","Other","Stranger","Stranger",933.5,0.9335,1
13,36,"Nonmatching","f4","Me","right","Me","User","Self","Self",864.7,0.8647,1
13,37,"Matching","f15","Me","left","Me","Other","Stranger","Stranger",815.5,0.8155,1
13,38,"Matching","m33","Stranger","left","Stranger","User","Self","Self",557.6,0.5576,1
13,39,"Nonmatching","m35","Stranger","right","Stranger","Other","Stranger","Stranger",828.4,0.8284,1
13,40,"Nonmatching","f4","Me","right","Me","User","Self","Self",522,0.522,1
13,41,"Matching","f15","Stranger","right","Stranger","Other","Stranger","Stranger",632.1,0.6321,1
13,42,"Nonmatching","m35","Me","left","Me","Other","Stranger","Stranger",653.4,0.6534,1
13,43,"Nonmatching","f15","Stranger","right","Stranger","Other","Stranger","Stranger",836.9,0.8369,1
13,44,"Matching","f18","Stranger","right","Stranger","Other","Stranger","Stranger",837.6,0.8376,1
13,45,"Matching","m35","Stranger","right","Stranger","Other","Stranger","Stranger",725,0.725,1
13,46,"Nonmatching","f27","Stranger","left","Stranger","User","Self","Self",756.5,0.7565,1
13,47,"Nonmatching","m35","Stranger","right","Stranger","Other","Stranger","Stranger",865.4,0.8654,1
13,48,"Nonmatching","m38","Me","right","Me","User","Self","Self",680,0.68,1
13,49,"Matching","m33","Stranger","left","Stranger","User","Self","Self",745.6,0.7456,1
13,50,"Nonmatching","m35","Me","left","Me","Other","Stranger","Stranger",800.2,0.8002,1
13,51,"Matching","f4","Me","right","Me","User","Self","Self",542,0.542,1
13,52,"Nonmatching","f15","Stranger","right","Stranger","Other","Stranger","Stranger",814.7,0.8147,1
13,53,"Matching","f4","Stranger","left","Stranger","User","Self","Self",752.6,0.7526,1
13,54,"Matching","f4","Me","right","Me","User","Self","Self",516.3,0.5163,1
13,55,"Matching","f4","Stranger","left","Stranger","User","Self","Self",709.1,0.7091,1
13,56,"Nonmatching","m34","Stranger","right","Stranger","Other","Stranger","Stranger",1993.6,1.9936,1
13,57,"Matching","m33","Me","right","Me","User","Self","Self",497.8,0.4978,1
13,58,"Nonmatching","f4","Stranger","left","Stranger","User","Self","Self",1195.6,1.1956,1
13,59,"Nonmatching","f15","Me","left","Me","Other","Stranger","Stranger",790.5,0.7905,1
13,60,"Matching","m38","Stranger","left","Stranger","User","Self","Self",594.4,0.5944,1
13,61,"Matching","m35","Stranger","left","Stranger","Other","Stranger","Stranger",624.7,0.6247,0
13,62,"Nonmatching","f18","Stranger","right","Stranger","Other","Stranger","Stranger",1256.8,1.2568,1
13,63,"Nonmatching","m33","Stranger","left","Stranger","User","Self","Self",1157.6,1.1576,1
13,64,"Nonmatching","f27","Stranger","left","Stranger","User","Self","Self",605.8,0.6058,1
14,1,"Matching","f18","Me","right","Me","User","Self","Self",3004,3.004,1
14,2,"Matching","f27","Stranger","left","Stranger","Other","Stranger","Stranger",2371,2.371,0
14,3,"Matching","f18","Stranger","left","Stranger","User","Self","Self",3351,3.351,1
14,4,"Matching","m34","Stranger","left","Stranger","User","Self","Self",1560,1.56,1
14,5,"Matching","m38","Stranger","right","Stranger","Other","Stranger","Stranger",1861,1.861,1
14,6,"Nonmatching","f4","Me","left","Me","Other","Stranger","Stranger",1550,1.55,1
14,7,"Nonmatching","f27","Me","right","Me","Other","Stranger","Stranger",1397,1.397,0
14,8,"Matching","f18","Stranger","left","Stranger","User","Self","Self",5302,5.302,1
14,9,"Nonmatching","m35","Stranger","right","Stranger","User","Self","Self",1651,1.651,0
14,10,"Nonmatching","f15","Me","right","Me","User","Self","Self",1522,1.522,1
14,11,"Matching","m33","Me","left","Me","Other","Stranger","Stranger",1929,1.929,1
14,12,"Nonmatching","f27","Me","right","Me","Other","Stranger","Stranger",1476,1.476,0
14,13,"Matching","m35","Me","left","Me","User","Self","Self",1816,1.816,0
14,14,"Matching","m34","Stranger","right","Stranger","User","Self","Self",2944,2.944,0
14,15,"Nonmatching","m34","Me","right","Me","User","Self","Self",1883,1.883,1
14,16,"Nonmatching","f18","Me","right","Me","User","Self","Self",1438,1.438,1
14,17,"Nonmatching","f4","Stranger","right","Stranger","Other","Stranger","Stranger",1122,1.122,1
14,18,"Nonmatching","m35","Stranger","right","Stranger","User","Self","Self",3715,3.715,0
14,19,"Matching","m34","Me","left","Me","User","Self","Self",1090,1.09,0
14,20,"Matching","m38","Stranger","right","Stranger","Other","Stranger","Stranger",948,0.948,1
14,21,"Nonmatching","f27","Stranger","right","Stranger","Other","Stranger","Stranger",1680,1.68,1
14,22,"Nonmatching","m38","Me","left","Me","Other","Stranger","Stranger",1076,1.076,1
14,23,"Matching","f4","Me","left","Me","Other","Stranger","Stranger",2036,2.036,1
14,24,"Nonmatching","f27","Stranger","right","Stranger","Other","Stranger","Stranger",1166,1.166,1
14,25,"Nonmatching","f18","Me","right","Me","User","Self","Self",1091,1.091,1
14,26,"Nonmatching","f15","Stranger","left","Stranger","User","Self","Self",1586,1.586,1
14,27,"Nonmatching","m33","Me","left","Me","Other","Stranger","Stranger",1324,1.324,1
14,28,"Nonmatching","f18","Stranger","left","Stranger","User","Self","Self",1037,1.037,1
14,29,"Matching","f27","Me","left","Me","Other","Stranger","Stranger",2161,2.161,1
14,30,"Matching","f4","Me","left","Me","Other","Stranger","Stranger",2142,2.142,1
14,31,"Nonmatching","f15","Me","right","Me","User","Self","Self",1158,1.158,1
14,32,"Matching","f27","Me","left","Me","Other","Stranger","Stranger",1065,1.065,1
14,33,"Nonmatching","m33","Stranger","right","Stranger","Other","Stranger","Stranger",1419,1.419,1
14,34,"Nonmatching","m35","Me","right","Me","User","Self","Self",3763,3.763,1
14,35,"Matching","f15","Stranger","left","Stranger","User","Self","Self",905,0.905,1
14,36,"Nonmatching","m34","Me","left","Me","User","Self","Self",975,0.975,0
14,37,"Nonmatching","f15","Stranger","left","Stranger","User","Self","Self",1117,1.117,1
14,38,"Matching","m35","Stranger","left","Stranger","User","Self","Self",1107,1.107,1
14,39,"Matching","f4","Stranger","right","Stranger","Other","Stranger","Stranger",1210,1.21,1
14,40,"Matching","f4","Stranger","right","Stranger","Other","Stranger","Stranger",1294,1.294,1
14,41,"Matching","m34","Me","right","Me","User","Self","Self",1828,1.828,1
14,42,"Matching","m33","Stranger","right","Stranger","Other","Stranger","Stranger",1147,1.147,1
14,43,"Matching","m33","Stranger","right","Stranger","Other","Stranger","Stranger",1665,1.665,1
14,44,"Matching","f27","Stranger","right","Stranger","Other","Stranger","Stranger",1334,1.334,1
14,45,"Nonmatching","m35","Me","right","Me","User","Self","Self",1194,1.194,1
14,46,"Nonmatching","m33","Me","left","Me","Other","Stranger","Stranger",927,0.927,1
14,47,"Nonmatching","m38","Stranger","right","Stranger","Other","Stranger","Stranger",1228,1.228,1
14,48,"Matching","m38","Me","left","Me","Other","Stranger","Stranger",1022,1.022,1
14,49,"Nonmatching","m34","Stranger","left","Stranger","User","Self","Self",2326,2.326,1
14,50,"Nonmatching","f4","Me","left","Me","Other","Stranger","Stranger",989,0.989,1
14,51,"Nonmatching","f4","Stranger","right","Stranger","Other","Stranger","Stranger",1201,1.201,1
14,52,"Nonmatching","m38","Me","left","Me","Other","Stranger","Stranger",1089,1.089,1
14,53,"Matching","m38","Me","left","Me","Other","Stranger","Stranger",863,0.863,1
14,54,"Matching","m35","Me","right","Me","User","Self","Self",2755,2.755,1
14,55,"Matching","m33","Me","left","Me","Other","Stranger","Stranger",1144,1.144,1
14,56,"Nonmatching","m38","Stranger","right","Stranger","Other","Stranger","Stranger",1808,1.808,1
14,57,"Nonmatching","m33","Stranger","right","Stranger","Other","Stranger","Stranger",1410,1.41,1
14,58,"Matching","f15","Me","right","Me","User","Self","Self",1107,1.107,1
14,59,"Nonmatching","m34","Stranger","right","Stranger","User","Self","Self",1954,1.954,0
14,60,"Matching","m35","Stranger","left","Stranger","User","Self","Self",1528,1.528,1
14,61,"Matching","f15","Stranger","left","Stranger","User","Self","Self",979,0.979,1
14,62,"Matching","f18","Me","right","Me","User","Self","Self",1219,1.219,1
14,63,"Nonmatching","f18","Stranger","left","Stranger","User","Self","Self",850,0.85,1
14,64,"Matching","f15","Me","right","Me","User","Self","Self",880,0.88,1
15,1,"Matching","m34","Me","right","Me","User","Self","Self",3275.2,3.2752,1
15,2,"Nonmatching","m34","Stranger","left","Stranger","User","Self","Self",1530.1,1.5301,1
15,3,"Nonmatching","f15","Stranger","right","Stranger","User","Self","Self",2229,2.229,0
15,4,"Nonmatching","f15","Me","left","Me","User","Self","Self",611.4000001,0.6114000001,0
15,5,"Nonmatching","m38","Me","right","Me","Other","Stranger","Stranger",2531.6,2.5316,0
15,6,"Matching","m38","Stranger","right","Stranger","Other","Stranger","Stranger",1417.7,1.4177,1
15,7,"Matching","f4","Stranger","right","Stranger","Other","Stranger","Stranger",2991.5,2.9915,1
15,8,"Nonmatching","f4","Stranger","right","Stranger","Other","Stranger","Stranger",2364.4,2.3644,1
15,9,"Matching","f4","Me","left","Me","Other","Stranger","Stranger",1567.6,1.5676,1
15,10,"Nonmatching","m33","Stranger","right","Stranger","Other","Stranger","Stranger",2216.7,2.2167,1
15,11,"Nonmatching","f15","Stranger","left","Stranger","User","Self","Self",1096.2,1.0962,1
15,12,"Nonmatching","f4","Me","left","Me","Other","Stranger","Stranger",2279.5,2.2795,1
15,13,"Matching","f27","Me","left","Me","Other","Stranger","Stranger",1924.6,1.9246,1
15,14,"Matching","f15","Me","right","Me","User","Self","Self",783.1000001,0.7831000001,1
15,15,"Nonmatching","f18","Me","right","Me","User","Self","Self",3488.4,3.4884,1
15,16,"Matching","f4","Stranger","left","Stranger","Other","Stranger","Stranger",1446.2,1.4462,0
15,17,"Nonmatching","m38","Me","left","Me","Other","Stranger","Stranger",2579.6,2.5796,1
15,18,"Matching","m33","Stranger","right","Stranger","Other","Stranger","Stranger",2687.1,2.6871,1
15,19,"Nonmatching","f27","Me","left","Me","Other","Stranger","Stranger",1117.5,1.1175,1
15,20,"Matching","m34","Stranger","right","Stranger","User","Self","Self",1860.3,1.8603,0
15,21,"Nonmatching","f18","Me","left","Me","User","Self","Self",1326.5,1.3265,0
15,22,"Nonmatching","m35","Stranger","right","Stranger","User","Self","Self",952,0.952,0
15,23,"Nonmatching","f27","Me","right","Me","Other","Stranger","Stranger",486,0.486,0
15,24,"Nonmatching","f4","Stranger","left","Stranger","Other","Stranger","Stranger",1603.7,1.6037,0
15,25,"Matching","m33","Me","left","Me","Other","Stranger","Stranger",1679.3,1.6793,1
15,26,"Matching","m38","Me","left","Me","Other","Stranger","Stranger",2343.3,2.3433,1
15,27,"Nonmatching","m35","Me","left","Me","User","Self","Self",2408.5,2.4085,0
15,28,"Matching","f4","Me","left","Me","Other","Stranger","Stranger",3411.1,3.4111,1
15,29,"Matching","f15","Stranger","right","Stranger","User","Self","Self",910.7,0.9107,0
15,30,"Nonmatching","f15","Me","right","Me","User","Self","Self",811,0.811,1
15,31,"Matching","m35","Stranger","right","Stranger","User","Self","Self",1425,1.425,0
15,32,"Matching","f15","Me","right","Me","User","Self","Self",996.7,0.9967,1
15,33,"Matching","m35","Stranger","right","Stranger","User","Self","Self",629.3,0.6293,0
15,34,"Nonmatching","m33","Stranger","left","Stranger","Other","Stranger","Stranger",2718.9,2.7189,0
15,35,"Matching","f18","Me","left","Me","User","Self","Self",2758.3,2.7583,0
15,36,"Matching","m34","Stranger","right","Stranger","User","Self","Self",1188.9,1.1889,0
15,37,"Matching","f15","Stranger","left","Stranger","User","Self","Self",3230,3.23,1
15,38,"Nonmatching","m35","Stranger","left","Stranger","User","Self","Self",5045.4,5.0454,1
15,39,"Nonmatching","f18","Stranger","left","Stranger","User","Self","Self",2713.8,2.7138,1
15,40,"Matching","m34","Me","right","Me","User","Self","Self",648.3,0.6483,1
15,41,"Matching","f27","Me","right","Me","Other","Stranger","Stranger",1011.5,1.0115,0
15,42,"Matching","f18","Stranger","left","Stranger","User","Self","Self",1316.3,1.3163,1
15,43,"Nonmatching","m38","Stranger","left","Stranger","Other","Stranger","Stranger",1580.8,1.5808,0
15,44,"Nonmatching","m33","Me","right","Me","Other","Stranger","Stranger",1171.5,1.1715,0
15,45,"Nonmatching","m34","Me","right","Me","User","Self","Self",904.7,0.9047,1
15,46,"Matching","f18","Stranger","right","Stranger","User","Self","Self",1761.7,1.7617,0
15,47,"Matching","m35","Me","right","Me","User","Self","Self",2609.7,2.6097,1
15,48,"Matching","m35","Me","right","Me","User","Self","Self",862.9000001,0.8629000001,1
15,49,"Nonmatching","f4","Me","left","Me","Other","Stranger","Stranger",2787.3,2.7873,1
15,50,"Nonmatching","m34","Stranger","left","Stranger","User","Self","Self",2423.6,2.4236,1
15,51,"Nonmatching","m38","Stranger","left","Stranger","Other","Stranger","Stranger",1437.6,1.4376,0
15,52,"Matching","f27","Stranger","left","Stranger","Other","Stranger","Stranger",2514.5,2.5145,0
15,53,"Matching","m38","Me","right","Me","Other","Stranger","Stranger",2395.4,2.3954,0
15,54,"Nonmatching","m34","Me","right","Me","User","Self","Self",1658.1,1.6581,1
15,55,"Nonmatching","m33","Me","right","Me","Other","Stranger","Stranger",4202.2,4.2022,0
15,56,"Matching","m38","Stranger","left","Stranger","Other","Stranger","Stranger",1129.2,1.1292,0
15,57,"Nonmatching","f27","Stranger","right","Stranger","Other","Stranger","Stranger",849.2,0.8492,1
15,58,"Matching","m33","Me","right","Me","Other","Stranger","Stranger",873,0.873,0
15,59,"Matching","m33","Stranger","right","Stranger","Other","Stranger","Stranger",1367.6,1.3676,1
15,60,"Matching","f18","Me","right","Me","User","Self","Self",2672.1,2.6721,1
15,61,"Matching","f27","Stranger","right","Stranger","Other","Stranger","Stranger",3286.6,3.2866,1
15,62,"Nonmatching","f27","Stranger","right","Stranger","Other","Stranger","Stranger",1641.9,1.6419,1
15,63,"Nonmatching","f18","Stranger","left","Stranger","User","Self","Self",1196.8,1.1968,1
15,64,"Nonmatching","m35","Me","right","Me","User","Self","Self",825,0.825,1
16,1,"Nonmatching","f4","Stranger","left","Stranger","Other","Stranger","Stranger",2029.4,2.0294,0
16,2,"Nonmatching","m35","Me","right","Me","User","Self","Self",2330.7,2.3307,1
16,3,"Matching","f27","Stranger","left","Stranger","Other","Stranger","Stranger",2288.8,2.2888,0
16,4,"Matching","f18","Stranger","right","Stranger","User","Self","Self",1610.7,1.6107,0
16,5,"Nonmatching","f27","Stranger","left","Stranger","Other","Stranger","Stranger",4565.1,4.5651,0
16,6,"Nonmatching","f15","Me","right","Me","User","Self","Self",1310.4,1.3104,1
16,7,"Nonmatching","m35","Stranger","left","Stranger","User","Self","Self",1685.5,1.6855,1
16,8,"Nonmatching","f18","Stranger","left","Stranger","User","Self","Self",2974.4,2.9744,1
16,9,"Matching","f15","Stranger","right","Stranger","User","Self","Self",1828.1,1.8281,0
16,10,"Matching","m38","Stranger","left","Stranger","Other","Stranger","Stranger",2564.9,2.5649,0
16,11,"Matching","m38","Stranger","right","Stranger","Other","Stranger","Stranger",1031.1,1.0311,1
16,12,"Nonmatching","m35","Me","right","Me","User","Self","Self",1282.8,1.2828,1
16,13,"Matching","m33","Stranger","right","Stranger","Other","Stranger","Stranger",856.1,0.8561,1
16,14,"Nonmatching","f27","Me","right","Me","Other","Stranger","Stranger",2140.6,2.1406,0
16,15,"Nonmatching","f15","Stranger","right","Stranger","User","Self","Self",4383.1,4.3831,0
16,16,"Nonmatching","f18","Me","right","Me","User","Self","Self",756.3,0.7563,1
16,17,"Matching","m34","Me","left","Me","User","Self","Self",1282.5,1.2825,0
16,18,"Nonmatching","f27","Stranger","right","Stranger","Other","Stranger","Stranger",1747.4,1.7474,1
16,19,"Matching","m33","Me","left","Me","Other","Stranger","Stranger",965,0.965,1
16,20,"Nonmatching","m38","Stranger","right","Stranger","Other","Stranger","Stranger",1780.9,1.7809,1
16,21,"Nonmatching","m38","Me","left","Me","Other","Stranger","Stranger",1864.8,1.8648,1
16,22,"Matching","m33","Stranger","right","Stranger","Other","Stranger","Stranger",979.1,0.9791,1
16,23,"Matching","f4","Stranger","left","Stranger","Other","Stranger","Stranger",2414.7,2.4147,0
16,24,"Nonmatching","f4","Me","right","Me","Other","Stranger","Stranger",774.7,0.7747,0
16,25,"Matching","m38","Me","left","Me","Other","Stranger","Stranger",1234.4,1.2344,1
16,26,"Matching","m34","Me","right","Me","User","Self","Self",770.9,0.7709,1
16,27,"Matching","m33","Me","left","Me","Other","Stranger","Stranger",990.8,0.9908,1
16,28,"Nonmatching","m34","Stranger","left","Stranger","User","Self","Self",1362.9,1.3629,1
16,29,"Matching","m38","Me","left","Me","Other","Stranger","Stranger",1262.2,1.2622,1
16,30,"Nonmatching","m33","Me","left","Me","Other","Stranger","Stranger",986.6,0.9866,1
16,31,"Nonmatching","f18","Me","left","Me","User","Self","Self",1038.5,1.0385,0
16,32,"Nonmatching","f4","Stranger","right","Stranger","Other","Stranger","Stranger",1373.9,1.3739,1
16,33,"Matching","f15","Me","left","Me","User","Self","Self",1584.2,1.5842,0
16,34,"Nonmatching","m38","Me","left","Me","Other","Stranger","Stranger",989.5,0.9895,1
16,35,"Nonmatching","m34","Me","right","Me","User","Self","Self",1036.6,1.0366,1
16,36,"Matching","f4","Me","right","Me","Other","Stranger","Stranger",1570.9,1.5709,0
16,37,"Nonmatching","f18","Stranger","left","Stranger","User","Self","Self",2509.2,2.5092,1
16,38,"Matching","f18","Stranger","right","Stranger","User","Self","Self",1900,1.9,0
16,39,"Matching","f18","Me","right","Me","User","Self","Self",796.6,0.7966,1
16,40,"Nonmatching","f15","Stranger","right","Stranger","User","Self","Self",2129.1,2.1291,0
16,41,"Matching","f15","Me","right","Me","User","Self","Self",620.9,0.6209,1
16,42,"Nonmatching","m34","Me","right","Me","User","Self","Self",857.3,0.8573,1
16,43,"Matching","f27","Me","left","Me","Other","Stranger","Stranger",1077.7,1.0777,1
16,44,"Matching","f27","Me","left","Me","Other","Stranger","Stranger",1514.8,1.5148,1
16,45,"Matching","m35","Me","right","Me","User","Self","Self",793.2,0.7932,1
16,46,"Matching","f4","Stranger","left","Stranger","Other","Stranger","Stranger",1438.7,1.4387,0
16,47,"Matching","m34","Stranger","left","Stranger","User","Self","Self",1792.8,1.7928,1
16,48,"Matching","f15","Stranger","left","Stranger","User","Self","Self",1319.6,1.3196,1
16,49,"Matching","f27","Stranger","right","Stranger","Other","Stranger","Stranger",816,0.816,1
16,50,"Matching","f18","Me","right","Me","User","Self","Self",789.7,0.7897,1
16,51,"Nonmatching","m34","Stranger","left","Stranger","User","Self","Self",900.7,0.9007,1
16,52,"Nonmatching","m38","Stranger","right","Stranger","Other","Stranger","Stranger",1023.1,1.0231,1
16,53,"Nonmatching","f4","Me","right","Me","Other","Stranger","Stranger",898.3,0.8983,0
16,54,"Nonmatching","m35","Stranger","left","Stranger","User","Self","Self",871.3,0.8713,1
16,55,"Nonmatching","f27","Me","right","Me","Other","Stranger","Stranger",969.3,0.9693,0
16,56,"Matching","f4","Me","right","Me","Other","Stranger","Stranger",746.3,0.7463,0
16,57,"Nonmatching","f15","Me","right","Me","User","Self","Self",692.4,0.6924,1
16,58,"Nonmatching","m33","Stranger","right","Stranger","Other","Stranger","Stranger",1178.3,1.1783,1
16,59,"Matching","m34","Stranger","left","Stranger","User","Self","Self",1539.1,1.5391,1
16,60,"Matching","m35","Me","right","Me","User","Self","Self",960.9,0.9609,1
16,61,"Nonmatching","m33","Stranger","right","Stranger","Other","Stranger","Stranger",956,0.956,1
16,62,"Nonmatching","m33","Me","left","Me","Other","Stranger","Stranger",576.6,0.5766,1
16,63,"Matching","m35","Stranger","left","Stranger","User","Self","Self",1103,1.103,1
16,64,"Matching","m35","Stranger","left","Stranger","User","Self","Self",846.6,0.8466,1
17,1,"Nonmatching","m34","Stranger","left","Stranger","User","Self","Self",3297,3.297,1
17,2,"Matching","m35","Me","left","Me","User","Self","Self",1125,1.125,0
17,3,"Nonmatching","m34","Me","left","Me","User","Self","Self",2548,2.548,0
17,4,"Matching","m35","Stranger","left","Stranger","User","Self","Self",1590,1.59,1
17,5,"Matching","f4","Stranger","right","Stranger","Other","Stranger","Stranger",1177,1.177,1
17,6,"Nonmatching","f4","Stranger","left","Stranger","Other","Stranger","Stranger",1481,1.481,0
17,7,"Nonmatching","m34","Me","right","Me","User","Self","Self",1430,1.43,1
17,8,"Matching","f15","Stranger","left","Stranger","User","Self","Self",956,0.956,1
17,9,"Matching","m33","Stranger","right","Stranger","Other","Stranger","Stranger",1115,1.115,1
17,10,"Nonmatching","m33","Stranger","right","Stranger","Other","Stranger","Stranger",802,0.802,1
17,11,"Nonmatching","f27","Me","left","Me","Other","Stranger","Stranger",552,0.552,1
17,12,"Matching","f4","Stranger","left","Stranger","Other","Stranger","Stranger",839,0.839,0
17,13,"Matching","f15","Me","right","Me","User","Self","Self",688,0.688,1
17,14,"Matching","f27","Me","left","Me","Other","Stranger","Stranger",742,0.742,1
17,15,"Nonmatching","m33","Me","left","Me","Other","Stranger","Stranger",819,0.819,1
17,16,"Nonmatching","f27","Stranger","right","Stranger","Other","Stranger","Stranger",787,0.787,1
17,17,"Matching","f4","Me","right","Me","Other","Stranger","Stranger",749,0.749,0
17,18,"Nonmatching","f15","Me","right","Me","User","Self","Self",660,0.66,1
17,19,"Matching","m33","Stranger","right","Stranger","Other","Stranger","Stranger",749,0.749,1
17,20,"Nonmatching","m33","Me","left","Me","Other","Stranger","Stranger",650,0.65,1
17,21,"Nonmatching","m35","Me","right","Me","User","Self","Self",1013,1.013,1
17,22,"Matching","m34","Me","left","Me","User","Self","Self",650,0.65,0
17,23,"Matching","f27","Me","left","Me","Other","Stranger","Stranger",1245,1.245,1
17,24,"Nonmatching","m35","Stranger","left","Stranger","User","Self","Self",968,0.968,1
17,25,"Nonmatching","f15","Stranger","left","Stranger","User","Self","Self",786,0.786,1
17,26,"Matching","m33","Me","left","Me","Other","Stranger","Stranger",651,0.651,1
17,27,"Nonmatching","f27","Me","left","Me","Other","Stranger","Stranger",834,0.834,1
17,28,"Nonmatching","f18","Me","left","Me","User","Self","Self",919,0.919,0
17,29,"Nonmatching","m38","Stranger","right","Stranger","Other","Stranger","Stranger",586,0.586,1
17,30,"Matching","f15","Stranger","right","Stranger","User","Self","Self",1062,1.062,0
17,31,"Nonmatching","f4","Stranger","right","Stranger","Other","Stranger","Stranger",645,0.645,1
17,32,"Matching","m34","Stranger","left","Stranger","User","Self","Self",938,0.938,1
17,33,"Nonmatching","m33","Stranger","right","Stranger","Other","Stranger","Stranger",1238,1.238,1
17,34,"Matching","m38","Stranger","right","Stranger","Other","Stranger","Stranger",1477,1.477,1
17,35,"Matching","m35","Stranger","right","Stranger","User","Self","Self",756,0.756,0
17,36,"Matching","f18","Me","right","Me","User","Self","Self",513,0.513,1
17,37,"Matching","m38","Me","right","Me","Other","Stranger","Stranger",963,0.963,0
17,38,"Matching","f4","Me","right","Me","Other","Stranger","Stranger",674,0.674,0
17,39,"Nonmatching","f18","Stranger","left","Stranger","User","Self","Self",748,0.748,1
17,40,"Nonmatching","m35","Stranger","right","Stranger","User","Self","Self",713,0.713,0
17,41,"Nonmatching","m35","Me","left","Me","User","Self","Self",943,0.943,0
17,42,"Nonmatching","f15","Me","right","Me","User","Self","Self",1151,1.151,1
17,43,"Matching","m35","Me","left","Me","User","Self","Self",840,0.84,0
17,44,"Matching","m34","Stranger","right","Stranger","User","Self","Self",826,0.826,0
17,45,"Matching","f27","Stranger","right","Stranger","Other","Stranger","Stranger",688,0.688,1
17,46,"Matching","m34","Me","right","Me","User","Self","Self",419,0.419,1
17,47,"Nonmatching","m38","Stranger","right","Stranger","Other","Stranger","Stranger",550,0.55,1
17,48,"Matching","m33","Me","left","Me","Other","Stranger","Stranger",780,0.78,1
17,49,"Nonmatching","f27","Stranger","left","Stranger","Other","Stranger","Stranger",706,0.706,0
17,50,"Matching","m38","Me","left","Me","Other","Stranger","Stranger",1017,1.017,1
17,51,"Nonmatching","f15","Stranger","left","Stranger","User","Self","Self",820,0.82,1
17,52,"Matching","f18","Stranger","left","Stranger","User","Self","Self",754,0.754,1
17,53,"Matching","f27","Stranger","right","Stranger","Other","Stranger","Stranger",1479,1.479,1
17,54,"Nonmatching","f18","Me","right","Me","User","Self","Self",425,0.425,1
17,55,"Matching","f15","Me","right","Me","User","Self","Self",416,0.416,1
17,56,"Nonmatching","f4","Me","left","Me","Other","Stranger","Stranger",682,0.682,1
17,57,"Nonmatching","m38","Me","left","Me","Other","Stranger","Stranger",968,0.968,1
17,58,"Nonmatching","m38","Me","left","Me","Other","Stranger","Stranger",674,0.674,1
17,59,"Matching","f18","Me","right","Me","User","Self","Self",591,0.591,1
17,60,"Matching","m38","Stranger","right","Stranger","Other","Stranger","Stranger",905,0.905,1
17,61,"Matching","f18","Stranger","left","Stranger","User","Self","Self",674,0.674,1
17,62,"Nonmatching","f4","Me","left","Me","Other","Stranger","Stranger",1115,1.115,1
17,63,"Nonmatching","m34","Stranger","left","Stranger","User","Self","Self",701,0.701,1
17,64,"Nonmatching","f18","Stranger","right","Stranger","User","Self","Self",629,0.629,0
18,1,"Matching","f27","Stranger","right","Stranger","Other","Stranger","Stranger",1671.9,1.6719,1
18,2,"Nonmatching","m38","Stranger","right","Stranger","Other","Stranger","Stranger",779.5999999,0.7795999999,1
18,3,"Nonmatching","m34","Stranger","left","Stranger","User","Self","Self",687.0999999,0.6870999999,1
18,4,"Matching","m38","Stranger","right","Stranger","Other","Stranger","Stranger",555.1999998,0.5551999998,1
18,5,"Nonmatching","f15","Stranger","left","Stranger","User","Self","Self",4617.3,4.6173,1
18,6,"Matching","m38","Me","left","Me","Other","Stranger","Stranger",1218.5,1.2185,1
18,7,"Nonmatching","m33","Me","left","Me","Other","Stranger","Stranger",1612.8,1.6128,1
18,8,"Nonmatching","m35","Me","right","Me","User","Self","Self",1476.6,1.4766,1
18,9,"Nonmatching","m38","Me","left","Me","Other","Stranger","Stranger",1369.3,1.3693,1
18,10,"Nonmatching","m35","Me","right","Me","User","Self","Self",1608.5,1.6085,1
18,11,"Nonmatching","m33","Stranger","right","Stranger","Other","Stranger","Stranger",1620.9,1.6209,1
18,12,"Nonmatching","m34","Stranger","left","Stranger","User","Self","Self",1282.3,1.2823,1
18,13,"Nonmatching","f4","Me","right","Me","Other","Stranger","Stranger",2368.2,2.3682,0
18,14,"Matching","m34","Stranger","right","Stranger","User","Self","Self",1424,1.424,0
18,15,"Nonmatching","f27","Stranger","right","Stranger","Other","Stranger","Stranger",1401,1.401,1
18,16,"Matching","f4","Me","right","Me","Other","Stranger","Stranger",3550.8,3.5508,0
18,17,"Matching","m34","Stranger","right","Stranger","User","Self","Self",3958.1,3.9581,0
18,18,"Nonmatching","m33","Stranger","right","Stranger","Other","Stranger","Stranger",3130.6,3.1306,1
18,19,"Nonmatching","f15","Me","right","Me","User","Self","Self",1174.2,1.1742,1
18,20,"Matching","f18","Stranger","left","Stranger","User","Self","Self",2065.5,2.0655,1
18,21,"Nonmatching","m35","Stranger","left","Stranger","User","Self","Self",1041.1,1.0411,1
18,22,"Matching","f4","Stranger","right","Stranger","Other","Stranger","Stranger",1633.8,1.6338,1
18,23,"Nonmatching","f27","Stranger","right","Stranger","Other","Stranger","Stranger",1302.6,1.3026,1
18,24,"Nonmatching","f18","Stranger","left","Stranger","User","Self","Self",1586.1,1.5861,1
18,25,"Nonmatching","f15","Me","left","Me","User","Self","Self",1602.1,1.6021,0
18,26,"Nonmatching","f18","Me","right","Me","User","Self","Self",1874.8,1.8748,1
18,27,"Matching","m33","Me","left","Me","Other","Stranger","Stranger",1042.3,1.0423,1
18,28,"Matching","m38","Stranger","right","Stranger","Other","Stranger","Stranger",1134.5,1.1345,1
18,29,"Matching","f18","Me","right","Me","User","Self","Self",1516.2,1.5162,1
18,30,"Nonmatching","m34","Me","right","Me","User","Self","Self",2462.8,2.4628,1
18,31,"Nonmatching","f18","Stranger","left","Stranger","User","Self","Self",1469.1,1.4691,1
18,32,"Matching","m38","Me","left","Me","Other","Stranger","Stranger",1051,1.051,1
18,33,"Matching","f18","Me","right","Me","User","Self","Self",1270.3,1.2703,1
18,34,"Matching","f4","Stranger","right","Stranger","Other","Stranger","Stranger",2034.7,2.0347,1
18,35,"Matching","m33","Me","left","Me","Other","Stranger","Stranger",1241.6,1.2416,1
18,36,"Nonmatching","f27","Me","left","Me","Other","Stranger","Stranger",1271.9,1.2719,1
18,37,"Matching","f15","Stranger","right","Stranger","User","Self","Self",3650.7,3.6507,0
18,38,"Nonmatching","f27","Me","left","Me","Other","Stranger","Stranger",1383,1.383,1
18,39,"Matching","m33","Stranger","right","Stranger","Other","Stranger","Stranger",1377.1,1.3771,1
18,40,"Nonmatching","m35","Stranger","left","Stranger","User","Self","Self",2135.6,2.1356,1
18,41,"Matching","f27","Me","left","Me","Other","Stranger","Stranger",1298.4,1.2984,1
18,42,"Matching","m35","Stranger","left","Stranger","User","Self","Self",849.9000001,0.8499000001,1
18,43,"Nonmatching","m38","Me","left","Me","Other","Stranger","Stranger",1237.6,1.2376,1
18,44,"Matching","f15","Me","right","Me","User","Self","Self",1636.4,1.6364,1
18,45,"Matching","m35","Me","right","Me","User","Self","Self",865.4000001,0.8654000001,1
18,46,"Nonmatching","m34","Me","right","Me","User","Self","Self",4437.4,4.4374,1
18,47,"Matching","f27","Stranger","right","Stranger","Other","Stranger","Stranger",1159.7,1.1597,1
18,48,"Nonmatching","f4","Me","right","Me","Other","Stranger","Stranger",1257.1,1.2571,0
18,49,"Nonmatching","f18","Me","right","Me","User","Self","Self",996.5999999,0.9965999999,1
18,50,"Matching","f4","Me","left","Me","Other","Stranger","Stranger",1085,1.085,1
18,51,"Matching","m35","Stranger","left","Stranger","User","Self","Self",2112.4,2.1124,1
18,52,"Nonmatching","m33","Me","left","Me","Other","Stranger","Stranger",795.1999998,0.7951999998,1
