build,computer.platform,date,time,subject,group,SubGender,SubAge,SubEthnicity,SubHand,FriendYear,FriendFamiliar,FriendMeetfreq,FriendMeetTime,Con_match,fill,Con_shape,Con_label,Stim_Content,tasktype,nblock,TrialID,response,latency,correct,cres,NUMBER
6.2.2,mac,10/21/2020,13:10:47,18154,1,Female,21,6,Right,-,-,-,-,-,-,-,-,-,Sub-Info,0,0,21,7992,1,-,1
6.2.2,mac,10/21/2020,13:10:47,18154,1,Female,21,6,Right,-,-,-,-,-,-,-,-,-,Sub-Info,0,0,Female,7992,1,-,2
6.2.2,mac,10/21/2020,13:10:47,18154,1,Female,21,6,Right,-,-,-,-,-,-,-,-,-,Sub-Info,0,0,6,7992,1,-,3
6.2.2,mac,10/21/2020,13:10:47,18154,1,Female,21,6,Right,-,-,-,-,-,-,-,-,-,Sub-Info,0,0,Right,7992,1,-,4
6.2.2,mac,10/21/2020,13:10:47,18154,1,Female,21,6,Right,8,7,5,monthly,-,-,-,-,-,Sub-Info,0,0,Anna,27397,1,-,5
6.2.2,mac,10/21/2020,13:10:47,18154,1,Female,21,6,Right,8,7,5,monthly,-,-,-,-,-,Sub-Info,0,0,8,27397,1,-,6
6.2.2,mac,10/21/2020,13:10:47,18154,1,Female,21,6,Right,8,7,5,monthly,-,-,-,-,-,Sub-Info,0,0,7,27397,1,-,7
6.2.2,mac,10/21/2020,13:10:47,18154,1,Female,21,6,Right,8,7,5,monthly,-,-,-,-,-,Sub-Info,0,0,5,27397,1,-,8
6.2.2,mac,10/21/2020,13:10:47,18154,1,Female,21,6,Right,8,7,5,monthly,-,-,-,-,-,Sub-Info,0,0,monthly,27397,1,-,9
6.2.2,mac,10/21/2020,13:10:47,18154,1,Female,21,6,Right,8,7,5,monthly,match,neutral,friend,friend,he.tif,SAT,1,1,47,894,1,v,10
6.2.2,mac,10/21/2020,13:10:47,18154,1,Female,21,6,Right,8,7,5,monthly,unmatch,happy,friend,self,he.tif,SAT,1,2,48,844,1,b,11
6.2.2,mac,10/21/2020,13:10:47,18154,1,Female,21,6,Right,8,7,5,monthly,unmatch,line,self,friend,ve.tif,SAT,1,3,48,937,1,b,12
6.2.2,mac,10/21/2020,13:10:47,18154,1,Female,21,6,Right,8,7,5,monthly,unmatch,neutral,friend,self,he.tif,SAT,1,4,48,1372,1,b,13
6.2.2,mac,10/21/2020,13:10:47,18154,1,Female,21,6,Right,8,7,5,monthly,unmatch,line,friend,self,he.tif,SAT,1,5,48,918,1,b,14
6.2.2,mac,10/21/2020,13:10:47,18154,1,Female,21,6,Right,8,7,5,monthly,match,neutral,friend,friend,he.tif,SAT,1,6,47,763,1,v,15
6.2.2,mac,10/21/2020,13:10:47,18154,1,Female,21,6,Right,8,7,5,monthly,match,neutral,friend,friend,he.tif,SAT,1,7,48,1062,0,v,16
6.2.2,mac,10/21/2020,13:10:47,18154,1,Female,21,6,Right,8,7,5,monthly,match,sad,self,self,ve.tif,SAT,1,8,47,1006,1,v,17
6.2.2,mac,10/21/2020,13:10:47,18154,1,Female,21,6,Right,8,7,5,monthly,match,line,friend,friend,he.tif,SAT,1,9,47,848,1,v,18
6.2.2,mac,10/21/2020,13:10:47,18154,1,Female,21,6,Right,8,7,5,monthly,unmatch,neutral,self,friend,ve.tif,SAT,1,10,48,1317,1,b,19
6.2.2,mac,10/21/2020,13:10:47,18154,1,Female,21,6,Right,8,7,5,monthly,match,sad,friend,friend,he.tif,SAT,1,11,47,883,1,v,20
6.2.2,mac,10/21/2020,13:10:47,18154,1,Female,21,6,Right,8,7,5,monthly,match,happy,self,self,ve.tif,SAT,1,12,47,795,1,v,21
6.2.2,mac,10/21/2020,13:10:47,18154,1,Female,21,6,Right,8,7,5,monthly,match,happy,self,self,ve.tif,SAT,1,13,0,1500,0,v,22
6.2.2,mac,10/21/2020,13:10:47,18154,1,Female,21,6,Right,8,7,5,monthly,unmatch,neutral,self,friend,ve.tif,SAT,1,14,48,852,1,b,23
6.2.2,mac,10/21/2020,13:10:47,18154,1,Female,21,6,Right,8,7,5,monthly,unmatch,line,friend,self,he.tif,SAT,1,15,48,917,1,b,24
6.2.2,mac,10/21/2020,13:10:47,18154,1,Female,21,6,Right,8,7,5,monthly,unmatch,happy,self,friend,ve.tif,SAT,1,16,48,821,1,b,25
6.2.2,mac,10/21/2020,13:10:47,18154,1,Female,21,6,Right,8,7,5,monthly,unmatch,sad,self,friend,ve.tif,SAT,1,17,48,906,1,b,26
6.2.2,mac,10/21/2020,13:10:47,18154,1,Female,21,6,Right,8,7,5,monthly,unmatch,neutral,friend,self,he.tif,SAT,1,18,48,942,1,b,27
6.2.2,mac,10/21/2020,13:10:47,18154,1,Female,21,6,Right,8,7,5,monthly,match,happy,friend,friend,he.tif,SAT,1,19,47,768,1,v,28
6.2.2,mac,10/21/2020,13:10:47,18154,1,Female,21,6,Right,8,7,5,monthly,match,neutral,self,self,ve.tif,SAT,1,20,47,926,1,v,29
6.2.2,mac,10/21/2020,13:10:47,18154,1,Female,21,6,Right,8,7,5,monthly,match,line,self,self,ve.tif,SAT,1,21,47,781,1,v,30
6.2.2,mac,10/21/2020,13:10:47,18154,1,Female,21,6,Right,8,7,5,monthly,match,neutral,self,self,ve.tif,SAT,1,22,47,767,1,v,31
6.2.2,mac,10/21/2020,13:10:47,18154,1,Female,21,6,Right,8,7,5,monthly,match,sad,friend,friend,he.tif,SAT,1,23,47,941,1,v,32
6.2.2,mac,10/21/2020,13:10:47,18154,1,Female,21,6,Right,8,7,5,monthly,match,happy,friend,friend,he.tif,SAT,1,24,47,899,1,v,33
6.2.2,mac,10/21/2020,13:10:47,18154,1,Female,21,6,Right,8,7,5,monthly,match,line,friend,friend,he.tif,SAT,1,25,47,723,1,v,34
6.2.2,mac,10/21/2020,13:10:47,18154,1,Female,21,6,Right,8,7,5,monthly,unmatch,sad,friend,self,he.tif,SAT,1,26,48,805,1,b,35
6.2.2,mac,10/21/2020,13:10:47,18154,1,Female,21,6,Right,8,7,5,monthly,unmatch,sad,friend,self,he.tif,SAT,1,27,48,861,1,b,36
6.2.2,mac,10/21/2020,13:10:47,18154,1,Female,21,6,Right,8,7,5,monthly,match,line,friend,friend,he.tif,SAT,1,28,47,792,1,v,37
6.2.2,mac,10/21/2020,13:10:47,18154,1,Female,21,6,Right,8,7,5,monthly,match,happy,friend,friend,he.tif,SAT,1,29,47,803,1,v,38
6.2.2,mac,10/21/2020,13:10:47,18154,1,Female,21,6,Right,8,7,5,monthly,unmatch,line,friend,self,he.tif,SAT,1,30,48,828,1,b,39
6.2.2,mac,10/21/2020,13:10:47,18154,1,Female,21,6,Right,8,7,5,monthly,unmatch,line,self,friend,ve.tif,SAT,1,31,48,939,1,b,40
6.2.2,mac,10/21/2020,13:10:47,18154,1,Female,21,6,Right,8,7,5,monthly,unmatch,happy,friend,self,he.tif,SAT,1,32,48,1054,1,b,41
6.2.2,mac,10/21/2020,13:10:47,18154,1,Female,21,6,Right,8,7,5,monthly,match,happy,self,self,ve.tif,SAT,1,33,47,857,1,v,42
6.2.2,mac,10/21/2020,13:10:47,18154,1,Female,21,6,Right,8,7,5,monthly,unmatch,sad,self,friend,ve.tif,SAT,1,34,48,796,1,b,43
6.2.2,mac,10/21/2020,13:10:47,18154,1,Female,21,6,Right,8,7,5,monthly,unmatch,neutral,self,friend,ve.tif,SAT,1,35,48,1085,1,b,44
6.2.2,mac,10/21/2020,13:10:47,18154,1,Female,21,6,Right,8,7,5,monthly,match,happy,friend,friend,he.tif,SAT,1,36,47,995,1,v,45
6.2.2,mac,10/21/2020,13:10:47,18154,1,Female,21,6,Right,8,7,5,monthly,unmatch,sad,friend,self,he.tif,SAT,1,37,48,985,1,b,46
6.2.2,mac,10/21/2020,13:10:47,18154,1,Female,21,6,Right,8,7,5,monthly,unmatch,line,self,friend,ve.tif,SAT,1,38,47,771,0,b,47
6.2.2,mac,10/21/2020,13:10:47,18154,1,Female,21,6,Right,8,7,5,monthly,match,sad,friend,friend,he.tif,SAT,1,39,47,996,1,v,48
6.2.2,mac,10/21/2020,13:10:47,18154,1,Female,21,6,Right,8,7,5,monthly,unmatch,neutral,friend,self,he.tif,SAT,1,40,48,1183,1,b,49
6.2.2,mac,10/21/2020,13:10:47,18154,1,Female,21,6,Right,8,7,5,monthly,unmatch,happy,self,friend,ve.tif,SAT,1,41,48,1182,1,b,50
6.2.2,mac,10/21/2020,13:10:47,18154,1,Female,21,6,Right,8,7,5,monthly,unmatch,happy,friend,self,he.tif,SAT,1,42,48,1042,1,b,51
6.2.2,mac,10/21/2020,13:10:47,18154,1,Female,21,6,Right,8,7,5,monthly,match,neutral,self,self,ve.tif,SAT,1,43,47,1000,1,v,52
6.2.2,mac,10/21/2020,13:10:47,18154,1,Female,21,6,Right,8,7,5,monthly,unmatch,neutral,friend,self,he.tif,SAT,1,44,48,873,1,b,53
6.2.2,mac,10/21/2020,13:10:47,18154,1,Female,21,6,Right,8,7,5,monthly,match,sad,friend,friend,he.tif,SAT,1,45,47,752,1,v,54
6.2.2,mac,10/21/2020,13:10:47,18154,1,Female,21,6,Right,8,7,5,monthly,match,sad,self,self,ve.tif,SAT,1,46,47,1289,1,v,55
6.2.2,mac,10/21/2020,13:10:47,18154,1,Female,21,6,Right,8,7,5,monthly,match,neutral,self,self,ve.tif,SAT,1,47,47,766,1,v,56
6.2.2,mac,10/21/2020,13:10:47,18154,1,Female,21,6,Right,8,7,5,monthly,match,line,self,self,ve.tif,SAT,1,48,47,954,1,v,57
6.2.2,mac,10/21/2020,13:10:47,18154,1,Female,21,6,Right,8,7,5,monthly,match,sad,self,self,ve.tif,SAT,1,49,47,604,1,v,58
6.2.2,mac,10/21/2020,13:10:47,18154,1,Female,21,6,Right,8,7,5,monthly,unmatch,happy,friend,self,he.tif,SAT,1,50,48,590,1,b,59
6.2.2,mac,10/21/2020,13:10:47,18154,1,Female,21,6,Right,8,7,5,monthly,match,line,self,self,ve.tif,SAT,1,51,47,548,1,v,60
6.2.2,mac,10/21/2020,13:10:47,18154,1,Female,21,6,Right,8,7,5,monthly,match,sad,friend,friend,he.tif,SAT,1,52,47,714,1,v,61
6.2.2,mac,10/21/2020,13:10:47,18154,1,Female,21,6,Right,8,7,5,monthly,match,happy,self,self,ve.tif,SAT,1,53,47,545,1,v,62
6.2.2,mac,10/21/2020,13:10:47,18154,1,Female,21,6,Right,8,7,5,monthly,unmatch,sad,self,friend,ve.tif,SAT,1,54,48,1195,1,b,63
6.2.2,mac,10/21/2020,13:10:47,18154,1,Female,21,6,Right,8,7,5,monthly,unmatch,neutral,self,friend,ve.tif,SAT,1,55,48,696,1,b,64
6.2.2,mac,10/21/2020,13:10:47,18154,1,Female,21,6,Right,8,7,5,monthly,unmatch,line,friend,self,he.tif,SAT,1,56,48,697,1,b,65
6.2.2,mac,10/21/2020,13:10:47,18154,1,Female,21,6,Right,8,7,5,monthly,match,sad,self,self,ve.tif,SAT,1,57,47,674,1,v,66
6.2.2,mac,10/21/2020,13:10:47,18154,1,Female,21,6,Right,8,7,5,monthly,unmatch,happy,self,friend,ve.tif,SAT,1,58,48,920,1,b,67
6.2.2,mac,10/21/2020,13:10:47,18154,1,Female,21,6,Right,8,7,5,monthly,unmatch,line,self,friend,ve.tif,SAT,1,59,48,695,1,b,68
6.2.2,mac,10/21/2020,13:10:47,18154,1,Female,21,6,Right,8,7,5,monthly,unmatch,happy,self,friend,ve.tif,SAT,1,60,48,743,1,b,69
6.2.2,mac,10/21/2020,13:10:47,18154,1,Female,21,6,Right,8,7,5,monthly,match,neutral,friend,friend,he.tif,SAT,1,61,47,1137,1,v,70
6.2.2,mac,10/21/2020,13:10:47,18154,1,Female,21,6,Right,8,7,5,monthly,unmatch,happy,self,friend,ve.tif,SAT,1,62,47,879,0,b,71
6.2.2,mac,10/21/2020,13:10:47,18154,1,Female,21,6,Right,8,7,5,monthly,match,line,friend,friend,he.tif,SAT,1,63,47,851,1,v,72
6.2.2,mac,10/21/2020,13:10:47,18154,1,Female,21,6,Right,8,7,5,monthly,unmatch,sad,self,friend,ve.tif,SAT,1,64,47,891,0,b,73
6.2.2,mac,10/21/2020,13:10:47,18154,1,Female,21,6,Right,8,7,5,monthly,match,line,self,self,ve.tif,SAT,1,65,47,619,1,v,74
6.2.2,mac,10/21/2020,13:10:47,18154,1,Female,21,6,Right,8,7,5,monthly,match,happy,self,self,ve.tif,SAT,1,66,47,632,1,v,75
6.2.2,mac,10/21/2020,13:10:47,18154,1,Female,21,6,Right,8,7,5,monthly,match,sad,self,self,ve.tif,SAT,1,67,47,519,1,v,76
6.2.2,mac,10/21/2020,13:10:47,18154,1,Female,21,6,Right,8,7,5,monthly,unmatch,happy,friend,self,he.tif,SAT,1,68,48,678,1,b,77
6.2.2,mac,10/21/2020,13:10:47,18154,1,Female,21,6,Right,8,7,5,monthly,unmatch,sad,self,friend,ve.tif,SAT,1,69,48,728,1,b,78
6.2.2,mac,10/21/2020,13:10:47,18154,1,Female,21,6,Right,8,7,5,monthly,unmatch,line,self,friend,ve.tif,SAT,1,70,48,1000,1,b,79
6.2.2,mac,10/21/2020,13:10:47,18154,1,Female,21,6,Right,8,7,5,monthly,match,neutral,friend,friend,he.tif,SAT,1,71,48,905,0,v,80
6.2.2,mac,10/21/2020,13:10:47,18154,1,Female,21,6,Right,8,7,5,monthly,match,line,friend,friend,he.tif,SAT,1,72,47,903,1,v,81
6.2.2,mac,10/21/2020,13:10:47,18154,1,Female,21,6,Right,8,7,5,monthly,unmatch,sad,friend,self,he.tif,SAT,1,73,48,884,1,b,82
6.2.2,mac,10/21/2020,13:10:47,18154,1,Female,21,6,Right,8,7,5,monthly,unmatch,line,friend,self,he.tif,SAT,1,74,48,1184,1,b,83
6.2.2,mac,10/21/2020,13:10:47,18154,1,Female,21,6,Right,8,7,5,monthly,match,line,self,self,ve.tif,SAT,1,75,47,596,1,v,84
6.2.2,mac,10/21/2020,13:10:47,18154,1,Female,21,6,Right,8,7,5,monthly,match,neutral,self,self,ve.tif,SAT,1,76,48,852,0,v,85
6.2.2,mac,10/21/2020,13:10:47,18154,1,Female,21,6,Right,8,7,5,monthly,match,happy,friend,friend,he.tif,SAT,1,77,48,764,0,v,86
6.2.2,mac,10/21/2020,13:10:47,18154,1,Female,21,6,Right,8,7,5,monthly,unmatch,sad,friend,self,he.tif,SAT,1,78,48,925,1,b,87
6.2.2,mac,10/21/2020,13:10:47,18154,1,Female,21,6,Right,8,7,5,monthly,unmatch,neutral,self,friend,ve.tif,SAT,1,79,48,983,1,b,88
6.2.2,mac,10/21/2020,13:10:47,18154,1,Female,21,6,Right,8,7,5,monthly,unmatch,neutral,friend,self,he.tif,SAT,1,80,48,687,1,b,89
6.2.2,mac,10/21/2020,13:10:47,18154,1,Female,21,6,Right,8,7,5,monthly,match,happy,friend,friend,he.tif,SAT,2,1,48,957,0,v,90
6.2.2,mac,10/21/2020,13:10:47,18154,1,Female,21,6,Right,8,7,5,monthly,match,neutral,self,self,ve.tif,SAT,2,2,47,490,1,v,91
6.2.2,mac,10/21/2020,13:10:47,18154,1,Female,21,6,Right,8,7,5,monthly,unmatch,line,self,friend,ve.tif,SAT,2,3,48,667,1,b,92
6.2.2,mac,10/21/2020,13:10:47,18154,1,Female,21,6,Right,8,7,5,monthly,match,sad,self,self,ve.tif,SAT,2,4,47,592,1,v,93
6.2.2,mac,10/21/2020,13:10:47,18154,1,Female,21,6,Right,8,7,5,monthly,unmatch,line,self,friend,ve.tif,SAT,2,5,48,755,1,b,94
6.2.2,mac,10/21/2020,13:10:47,18154,1,Female,21,6,Right,8,7,5,monthly,match,happy,friend,friend,he.tif,SAT,2,6,47,814,1,v,95
6.2.2,mac,10/21/2020,13:10:47,18154,1,Female,21,6,Right,8,7,5,monthly,unmatch,sad,self,friend,ve.tif,SAT,2,7,48,620,1,b,96
6.2.2,mac,10/21/2020,13:10:47,18154,1,Female,21,6,Right,8,7,5,monthly,unmatch,sad,self,friend,ve.tif,SAT,2,8,48,711,1,b,97
6.2.2,mac,10/21/2020,13:10:47,18154,1,Female,21,6,Right,8,7,5,monthly,unmatch,happy,self,friend,ve.tif,SAT,2,9,48,605,1,b,98
6.2.2,mac,10/21/2020,13:10:47,18154,1,Female,21,6,Right,8,7,5,monthly,match,sad,self,self,ve.tif,SAT,2,10,47,846,1,v,99
6.2.2,mac,10/21/2020,13:10:47,18154,1,Female,21,6,Right,8,7,5,monthly,match,neutral,self,self,ve.tif,SAT,2,11,47,625,1,v,100
6.2.2,mac,10/21/2020,13:10:47,18154,1,Female,21,6,Right,8,7,5,monthly,unmatch,sad,self,friend,ve.tif,SAT,2,12,48,795,1,b,101
6.2.2,mac,10/21/2020,13:10:47,18154,1,Female,21,6,Right,8,7,5,monthly,match,line,self,self,ve.tif,SAT,2,13,48,771,0,v,102
6.2.2,mac,10/21/2020,13:10:47,18154,1,Female,21,6,Right,8,7,5,monthly,match,line,friend,friend,he.tif,SAT,2,14,48,671,0,v,103
6.2.2,mac,10/21/2020,13:10:47,18154,1,Female,21,6,Right,8,7,5,monthly,unmatch,sad,friend,self,he.tif,SAT,2,15,48,805,1,b,104
6.2.2,mac,10/21/2020,13:10:47,18154,1,Female,21,6,Right,8,7,5,monthly,match,neutral,friend,friend,he.tif,SAT,2,16,47,821,1,v,105
6.2.2,mac,10/21/2020,13:10:47,18154,1,Female,21,6,Right,8,7,5,monthly,unmatch,neutral,self,friend,ve.tif,SAT,2,17,48,674,1,b,106
6.2.2,mac,10/21/2020,13:10:47,18154,1,Female,21,6,Right,8,7,5,monthly,unmatch,neutral,friend,self,he.tif,SAT,2,18,48,876,1,b,107
6.2.2,mac,10/21/2020,13:10:47,18154,1,Female,21,6,Right,8,7,5,monthly,unmatch,happy,self,friend,ve.tif,SAT,2,19,48,697,1,b,108
6.2.2,mac,10/21/2020,13:10:47,18154,1,Female,21,6,Right,8,7,5,monthly,match,happy,friend,friend,he.tif,SAT,2,20,47,1046,1,v,109
6.2.2,mac,10/21/2020,13:10:47,18154,1,Female,21,6,Right,8,7,5,monthly,unmatch,happy,friend,self,he.tif,SAT,2,21,48,669,1,b,110
6.2.2,mac,10/21/2020,13:10:47,18154,1,Female,21,6,Right,8,7,5,monthly,match,happy,self,self,ve.tif,SAT,2,22,47,609,1,v,111
6.2.2,mac,10/21/2020,13:10:47,18154,1,Female,21,6,Right,8,7,5,monthly,match,sad,self,self,ve.tif,SAT,2,23,47,728,1,v,112
6.2.2,mac,10/21/2020,13:10:47,18154,1,Female,21,6,Right,8,7,5,monthly,match,line,friend,friend,he.tif,SAT,2,24,48,1343,0,v,113
6.2.2,mac,10/21/2020,13:10:47,18154,1,Female,21,6,Right,8,7,5,monthly,unmatch,neutral,friend,self,he.tif,SAT,2,25,48,690,1,b,114
6.2.2,mac,10/21/2020,13:10:47,18154,1,Female,21,6,Right,8,7,5,monthly,unmatch,line,friend,self,he.tif,SAT,2,26,48,826,1,b,115
6.2.2,mac,10/21/2020,13:10:47,18154,1,Female,21,6,Right,8,7,5,monthly,match,neutral,self,self,ve.tif,SAT,2,27,47,579,1,v,116
6.2.2,mac,10/21/2020,13:10:47,18154,1,Female,21,6,Right,8,7,5,monthly,match,sad,friend,friend,he.tif,SAT,2,28,47,668,1,v,117
6.2.2,mac,10/21/2020,13:10:47,18154,1,Female,21,6,Right,8,7,5,monthly,unmatch,line,friend,self,he.tif,SAT,2,29,48,779,1,b,118
6.2.2,mac,10/21/2020,13:10:47,18154,1,Female,21,6,Right,8,7,5,monthly,unmatch,sad,friend,self,he.tif,SAT,2,30,48,842,1,b,119
6.2.2,mac,10/21/2020,13:10:47,18154,1,Female,21,6,Right,8,7,5,monthly,match,sad,self,self,ve.tif,SAT,2,31,47,637,1,v,120
6.2.2,mac,10/21/2020,13:10:47,18154,1,Female,21,6,Right,8,7,5,monthly,match,neutral,friend,friend,he.tif,SAT,2,32,47,732,1,v,121
6.2.2,mac,10/21/2020,13:10:47,18154,1,Female,21,6,Right,8,7,5,monthly,unmatch,sad,self,friend,ve.tif,SAT,2,33,48,715,1,b,122
6.2.2,mac,10/21/2020,13:10:47,18154,1,Female,21,6,Right,8,7,5,monthly,unmatch,happy,self,friend,ve.tif,SAT,2,34,48,1085,1,b,123
6.2.2,mac,10/21/2020,13:10:47,18154,1,Female,21,6,Right,8,7,5,monthly,unmatch,happy,self,friend,ve.tif,SAT,2,35,48,609,1,b,124
6.2.2,mac,10/21/2020,13:10:47,18154,1,Female,21,6,Right,8,7,5,monthly,match,line,self,self,ve.tif,SAT,2,36,47,528,1,v,125
6.2.2,mac,10/21/2020,13:10:47,18154,1,Female,21,6,Right,8,7,5,monthly,unmatch,neutral,friend,self,he.tif,SAT,2,37,47,746,0,b,126
6.2.2,mac,10/21/2020,13:10:47,18154,1,Female,21,6,Right,8,7,5,monthly,unmatch,sad,friend,self,he.tif,SAT,2,38,48,800,1,b,127
6.2.2,mac,10/21/2020,13:10:47,18154,1,Female,21,6,Right,8,7,5,monthly,unmatch,line,friend,self,he.tif,SAT,2,39,48,617,1,b,128
6.2.2,mac,10/21/2020,13:10:47,18154,1,Female,21,6,Right,8,7,5,monthly,unmatch,line,friend,self,he.tif,SAT,2,40,48,586,1,b,129
6.2.2,mac,10/21/2020,13:10:47,18154,1,Female,21,6,Right,8,7,5,monthly,unmatch,sad,friend,self,he.tif,SAT,2,41,48,574,1,b,130
6.2.2,mac,10/21/2020,13:10:47,18154,1,Female,21,6,Right,8,7,5,monthly,unmatch,sad,friend,self,he.tif,SAT,2,42,48,533,1,b,131
6.2.2,mac,10/21/2020,13:10:47,18154,1,Female,21,6,Right,8,7,5,monthly,match,neutral,friend,friend,he.tif,SAT,2,43,47,621,1,v,132
6.2.2,mac,10/21/2020,13:10:47,18154,1,Female,21,6,Right,8,7,5,monthly,match,line,friend,friend,he.tif,SAT,2,44,47,683,1,v,133
6.2.2,mac,10/21/2020,13:10:47,18154,1,Female,21,6,Right,8,7,5,monthly,match,neutral,self,self,ve.tif,SAT,2,45,47,627,1,v,134
6.2.2,mac,10/21/2020,13:10:47,18154,1,Female,21,6,Right,8,7,5,monthly,unmatch,line,self,friend,ve.tif,SAT,2,46,48,565,1,b,135
6.2.2,mac,10/21/2020,13:10:47,18154,1,Female,21,6,Right,8,7,5,monthly,match,sad,friend,friend,he.tif,SAT,2,47,47,654,1,v,136
6.2.2,mac,10/21/2020,13:10:47,18154,1,Female,21,6,Right,8,7,5,monthly,unmatch,neutral,self,friend,ve.tif,SAT,2,48,48,726,1,b,137
6.2.2,mac,10/21/2020,13:10:47,18154,1,Female,21,6,Right,8,7,5,monthly,match,line,self,self,ve.tif,SAT,2,49,47,620,1,v,138
6.2.2,mac,10/21/2020,13:10:47,18154,1,Female,21,6,Right,8,7,5,monthly,match,neutral,friend,friend,he.tif,SAT,2,50,47,744,1,v,139
6.2.2,mac,10/21/2020,13:10:47,18154,1,Female,21,6,Right,8,7,5,monthly,unmatch,neutral,friend,self,he.tif,SAT,2,51,48,616,1,b,140
6.2.2,mac,10/21/2020,13:10:47,18154,1,Female,21,6,Right,8,7,5,monthly,unmatch,happy,friend,self,he.tif,SAT,2,52,48,637,1,b,141
6.2.2,mac,10/21/2020,13:10:47,18154,1,Female,21,6,Right,8,7,5,monthly,match,sad,friend,friend,he.tif,SAT,2,53,47,959,1,v,142
6.2.2,mac,10/21/2020,13:10:47,18154,1,Female,21,6,Right,8,7,5,monthly,unmatch,neutral,self,friend,ve.tif,SAT,2,54,48,613,1,b,143
6.2.2,mac,10/21/2020,13:10:47,18154,1,Female,21,6,Right,8,7,5,monthly,match,happy,self,self,ve.tif,SAT,2,55,47,505,1,v,144
6.2.2,mac,10/21/2020,13:10:47,18154,1,Female,21,6,Right,8,7,5,monthly,unmatch,neutral,self,friend,ve.tif,SAT,2,56,48,609,1,b,145
6.2.2,mac,10/21/2020,13:10:47,18154,1,Female,21,6,Right,8,7,5,monthly,match,line,self,self,ve.tif,SAT,2,57,47,573,1,v,146
6.2.2,mac,10/21/2020,13:10:47,18154,1,Female,21,6,Right,8,7,5,monthly,match,happy,friend,friend,he.tif,SAT,2,58,47,646,1,v,147
6.2.2,mac,10/21/2020,13:10:47,18154,1,Female,21,6,Right,8,7,5,monthly,match,line,friend,friend,he.tif,SAT,2,59,47,566,1,v,148
6.2.2,mac,10/21/2020,13:10:47,18154,1,Female,21,6,Right,8,7,5,monthly,match,happy,self,self,ve.tif,SAT,2,60,47,577,1,v,149
6.2.2,mac,10/21/2020,13:10:47,18154,1,Female,21,6,Right,8,7,5,monthly,match,neutral,self,self,ve.tif,SAT,2,61,47,578,1,v,150
6.2.2,mac,10/21/2020,13:10:47,18154,1,Female,21,6,Right,8,7,5,monthly,match,neutral,friend,friend,he.tif,SAT,2,62,47,642,1,v,151
6.2.2,mac,10/21/2020,13:10:47,18154,1,Female,21,6,Right,8,7,5,monthly,unmatch,happy,self,friend,ve.tif,SAT,2,63,48,611,1,b,152
6.2.2,mac,10/21/2020,13:10:47,18154,1,Female,21,6,Right,8,7,5,monthly,match,line,friend,friend,he.tif,SAT,2,64,47,700,1,v,153
6.2.2,mac,10/21/2020,13:10:47,18154,1,Female,21,6,Right,8,7,5,monthly,match,happy,self,self,ve.tif,SAT,2,65,47,561,1,v,154
6.2.2,mac,10/21/2020,13:10:47,18154,1,Female,21,6,Right,8,7,5,monthly,match,sad,self,self,ve.tif,SAT,2,66,47,450,1,v,155
6.2.2,mac,10/21/2020,13:10:47,18154,1,Female,21,6,Right,8,7,5,monthly,unmatch,line,friend,self,he.tif,SAT,2,67,48,575,1,b,156
6.2.2,mac,10/21/2020,13:10:47,18154,1,Female,21,6,Right,8,7,5,monthly,unmatch,line,self,friend,ve.tif,SAT,2,68,48,832,1,b,157
6.2.2,mac,10/21/2020,13:10:47,18154,1,Female,21,6,Right,8,7,5,monthly,match,sad,friend,friend,he.tif,SAT,2,69,47,640,1,v,158
6.2.2,mac,10/21/2020,13:10:47,18154,1,Female,21,6,Right,8,7,5,monthly,unmatch,happy,friend,self,he.tif,SAT,2,70,48,605,1,b,159
6.2.2,mac,10/21/2020,13:10:47,18154,1,Female,21,6,Right,8,7,5,monthly,unmatch,line,self,friend,ve.tif,SAT,2,71,47,387,0,b,160
6.2.2,mac,10/21/2020,13:10:47,18154,1,Female,21,6,Right,8,7,5,monthly,unmatch,happy,friend,self,he.tif,SAT,2,72,48,664,1,b,161
6.2.2,mac,10/21/2020,13:10:47,18154,1,Female,21,6,Right,8,7,5,monthly,match,happy,friend,friend,he.tif,SAT,2,73,47,840,1,v,162
6.2.2,mac,10/21/2020,13:10:47,18154,1,Female,21,6,Right,8,7,5,monthly,unmatch,neutral,self,friend,ve.tif,SAT,2,74,48,704,1,b,163
6.2.2,mac,10/21/2020,13:10:47,18154,1,Female,21,6,Right,8,7,5,monthly,match,line,self,self,ve.tif,SAT,2,75,47,524,1,v,164
6.2.2,mac,10/21/2020,13:10:47,18154,1,Female,21,6,Right,8,7,5,monthly,unmatch,sad,self,friend,ve.tif,SAT,2,76,48,663,1,b,165
6.2.2,mac,10/21/2020,13:10:47,18154,1,Female,21,6,Right,8,7,5,monthly,unmatch,neutral,friend,self,he.tif,SAT,2,77,47,737,0,b,166
6.2.2,mac,10/21/2020,13:10:47,18154,1,Female,21,6,Right,8,7,5,monthly,unmatch,happy,friend,self,he.tif,SAT,2,78,48,1274,1,b,167
6.2.2,mac,10/21/2020,13:10:47,18154,1,Female,21,6,Right,8,7,5,monthly,match,sad,friend,friend,he.tif,SAT,2,79,47,867,1,v,168
6.2.2,mac,10/21/2020,13:10:47,18154,1,Female,21,6,Right,8,7,5,monthly,match,happy,self,self,ve.tif,SAT,2,80,47,596,1,v,169
6.2.2,mac,10/21/2020,13:10:47,18154,1,Female,21,6,Right,8,7,5,monthly,unmatch,happy,self,friend,ve.tif,SAT,3,1,48,808,1,b,170
6.2.2,mac,10/21/2020,13:10:47,18154,1,Female,21,6,Right,8,7,5,monthly,unmatch,sad,self,friend,ve.tif,SAT,3,2,48,716,1,b,171
6.2.2,mac,10/21/2020,13:10:47,18154,1,Female,21,6,Right,8,7,5,monthly,match,line,friend,friend,he.tif,SAT,3,3,47,589,1,v,172
6.2.2,mac,10/21/2020,13:10:47,18154,1,Female,21,6,Right,8,7,5,monthly,match,sad,friend,friend,he.tif,SAT,3,4,47,640,1,v,173
6.2.2,mac,10/21/2020,13:10:47,18154,1,Female,21,6,Right,8,7,5,monthly,unmatch,happy,self,friend,ve.tif,SAT,3,5,48,660,1,b,174
6.2.2,mac,10/21/2020,13:10:47,18154,1,Female,21,6,Right,8,7,5,monthly,match,neutral,self,self,ve.tif,SAT,3,6,47,523,1,v,175
6.2.2,mac,10/21/2020,13:10:47,18154,1,Female,21,6,Right,8,7,5,monthly,unmatch,line,friend,self,he.tif,SAT,3,7,47,474,0,b,176
6.2.2,mac,10/21/2020,13:10:47,18154,1,Female,21,6,Right,8,7,5,monthly,match,happy,self,self,ve.tif,SAT,3,8,47,529,1,v,177
6.2.2,mac,10/21/2020,13:10:47,18154,1,Female,21,6,Right,8,7,5,monthly,unmatch,sad,self,friend,ve.tif,SAT,3,9,48,705,1,b,178
6.2.2,mac,10/21/2020,13:10:47,18154,1,Female,21,6,Right,8,7,5,monthly,unmatch,happy,friend,self,he.tif,SAT,3,10,48,864,1,b,179
6.2.2,mac,10/21/2020,13:10:47,18154,1,Female,21,6,Right,8,7,5,monthly,unmatch,neutral,self,friend,ve.tif,SAT,3,11,48,563,1,b,180
6.2.2,mac,10/21/2020,13:10:47,18154,1,Female,21,6,Right,8,7,5,monthly,match,neutral,friend,friend,he.tif,SAT,3,12,47,654,1,v,181
6.2.2,mac,10/21/2020,13:10:47,18154,1,Female,21,6,Right,8,7,5,monthly,match,sad,friend,friend,he.tif,SAT,3,13,47,552,1,v,182
6.2.2,mac,10/21/2020,13:10:47,18154,1,Female,21,6,Right,8,7,5,monthly,unmatch,happy,friend,self,he.tif,SAT,3,14,48,626,1,b,183
6.2.2,mac,10/21/2020,13:10:47,18154,1,Female,21,6,Right,8,7,5,monthly,unmatch,line,friend,self,he.tif,SAT,3,15,48,740,1,b,184
6.2.2,mac,10/21/2020,13:10:47,18154,1,Female,21,6,Right,8,7,5,monthly,match,neutral,friend,friend,he.tif,SAT,3,16,47,655,1,v,185
6.2.2,mac,10/21/2020,13:10:47,18154,1,Female,21,6,Right,8,7,5,monthly,match,sad,friend,friend,he.tif,SAT,3,17,48,710,0,v,186
6.2.2,mac,10/21/2020,13:10:47,18154,1,Female,21,6,Right,8,7,5,monthly,unmatch,line,self,friend,ve.tif,SAT,3,18,48,629,1,b,187
6.2.2,mac,10/21/2020,13:10:47,18154,1,Female,21,6,Right,8,7,5,monthly,match,neutral,self,self,ve.tif,SAT,3,19,47,649,1,v,188
6.2.2,mac,10/21/2020,13:10:47,18154,1,Female,21,6,Right,8,7,5,monthly,match,sad,friend,friend,he.tif,SAT,3,20,47,648,1,v,189
6.2.2,mac,10/21/2020,13:10:47,18154,1,Female,21,6,Right,8,7,5,monthly,match,happy,friend,friend,he.tif,SAT,3,21,48,625,0,v,190
6.2.2,mac,10/21/2020,13:10:47,18154,1,Female,21,6,Right,8,7,5,monthly,match,sad,self,self,ve.tif,SAT,3,22,47,563,1,v,191
6.2.2,mac,10/21/2020,13:10:47,18154,1,Female,21,6,Right,8,7,5,monthly,unmatch,line,friend,self,he.tif,SAT,3,23,48,738,1,b,192
6.2.2,mac,10/21/2020,13:10:47,18154,1,Female,21,6,Right,8,7,5,monthly,unmatch,happy,self,friend,ve.tif,SAT,3,24,48,638,1,b,193
6.2.2,mac,10/21/2020,13:10:47,18154,1,Female,21,6,Right,8,7,5,monthly,match,neutral,friend,friend,he.tif,SAT,3,25,47,960,1,v,194
6.2.2,mac,10/21/2020,13:10:47,18154,1,Female,21,6,Right,8,7,5,monthly,match,neutral,self,self,ve.tif,SAT,3,26,47,549,1,v,195
6.2.2,mac,10/21/2020,13:10:47,18154,1,Female,21,6,Right,8,7,5,monthly,match,line,self,self,ve.tif,SAT,3,27,47,521,1,v,196
6.2.2,mac,10/21/2020,13:10:47,18154,1,Female,21,6,Right,8,7,5,monthly,unmatch,sad,self,friend,ve.tif,SAT,3,28,48,689,1,b,197
6.2.2,mac,10/21/2020,13:10:47,18154,1,Female,21,6,Right,8,7,5,monthly,match,happy,self,self,ve.tif,SAT,3,29,47,542,1,v,198
6.2.2,mac,10/21/2020,13:10:47,18154,1,Female,21,6,Right,8,7,5,monthly,unmatch,neutral,self,friend,ve.tif,SAT,3,30,48,587,1,b,199
6.2.2,mac,10/21/2020,13:10:47,18154,1,Female,21,6,Right,8,7,5,monthly,match,line,self,self,ve.tif,SAT,3,31,47,589,1,v,200
6.2.2,mac,10/21/2020,13:10:47,18154,1,Female,21,6,Right,8,7,5,monthly,unmatch,sad,friend,self,he.tif,SAT,3,32,48,641,1,b,201
6.2.2,mac,10/21/2020,13:10:47,18154,1,Female,21,6,Right,8,7,5,monthly,match,sad,self,self,ve.tif,SAT,3,33,47,438,1,v,202
6.2.2,mac,10/21/2020,13:10:47,18154,1,Female,21,6,Right,8,7,5,monthly,unmatch,happy,friend,self,he.tif,SAT,3,34,48,578,1,b,203
6.2.2,mac,10/21/2020,13:10:47,18154,1,Female,21,6,Right,8,7,5,monthly,match,line,self,self,ve.tif,SAT,3,35,47,491,1,v,204
6.2.2,mac,10/21/2020,13:10:47,18154,1,Female,21,6,Right,8,7,5,monthly,unmatch,neutral,self,friend,ve.tif,SAT,3,36,48,529,1,b,205
6.2.2,mac,10/21/2020,13:10:47,18154,1,Female,21,6,Right,8,7,5,monthly,match,happy,friend,friend,he.tif,SAT,3,37,48,558,0,v,206
6.2.2,mac,10/21/2020,13:10:47,18154,1,Female,21,6,Right,8,7,5,monthly,unmatch,neutral,friend,self,he.tif,SAT,3,38,48,614,1,b,207
6.2.2,mac,10/21/2020,13:10:47,18154,1,Female,21,6,Right,8,7,5,monthly,unmatch,neutral,self,friend,ve.tif,SAT,3,39,48,859,1,b,208
6.2.2,mac,10/21/2020,13:10:47,18154,1,Female,21,6,Right,8,7,5,monthly,match,happy,self,self,ve.tif,SAT,3,40,47,571,1,v,209
6.2.2,mac,10/21/2020,13:10:47,18154,1,Female,21,6,Right,8,7,5,monthly,unmatch,line,friend,self,he.tif,SAT,3,41,48,688,1,b,210
6.2.2,mac,10/21/2020,13:10:47,18154,1,Female,21,6,Right,8,7,5,monthly,unmatch,sad,self,friend,ve.tif,SAT,3,42,48,732,1,b,211
6.2.2,mac,10/21/2020,13:10:47,18154,1,Female,21,6,Right,8,7,5,monthly,unmatch,line,friend,self,he.tif,SAT,3,43,48,700,1,b,212
6.2.2,mac,10/21/2020,13:10:47,18154,1,Female,21,6,Right,8,7,5,monthly,match,line,friend,friend,he.tif,SAT,3,44,47,698,1,v,213
6.2.2,mac,10/21/2020,13:10:47,18154,1,Female,21,6,Right,8,7,5,monthly,unmatch,neutral,friend,self,he.tif,SAT,3,45,48,675,1,b,214
6.2.2,mac,10/21/2020,13:10:47,18154,1,Female,21,6,Right,8,7,5,monthly,unmatch,sad,friend,self,he.tif,SAT,3,46,48,645,1,b,215
6.2.2,mac,10/21/2020,13:10:47,18154,1,Female,21,6,Right,8,7,5,monthly,match,neutral,friend,friend,he.tif,SAT,3,47,47,643,1,v,216
6.2.2,mac,10/21/2020,13:10:47,18154,1,Female,21,6,Right,8,7,5,monthly,match,neutral,self,self,ve.tif,SAT,3,48,47,674,1,v,217
6.2.2,mac,10/21/2020,13:10:47,18154,1,Female,21,6,Right,8,7,5,monthly,match,line,friend,friend,he.tif,SAT,3,49,47,627,1,v,218
6.2.2,mac,10/21/2020,13:10:47,18154,1,Female,21,6,Right,8,7,5,monthly,match,line,friend,friend,he.tif,SAT,3,50,47,777,1,v,219
6.2.2,mac,10/21/2020,13:10:47,18154,1,Female,21,6,Right,8,7,5,monthly,unmatch,neutral,friend,self,he.tif,SAT,3,51,48,549,1,b,220
6.2.2,mac,10/21/2020,13:10:47,18154,1,Female,21,6,Right,8,7,5,monthly,unmatch,happy,self,friend,ve.tif,SAT,3,52,48,721,1,b,221
6.2.2,mac,10/21/2020,13:10:47,18154,1,Female,21,6,Right,8,7,5,monthly,unmatch,sad,friend,self,he.tif,SAT,3,53,48,918,1,b,222
6.2.2,mac,10/21/2020,13:10:47,18154,1,Female,21,6,Right,8,7,5,monthly,unmatch,line,self,friend,ve.tif,SAT,3,54,48,894,1,b,223
6.2.2,mac,10/21/2020,13:10:47,18154,1,Female,21,6,Right,8,7,5,monthly,match,line,self,self,ve.tif,SAT,3,55,47,595,1,v,224
6.2.2,mac,10/21/2020,13:10:47,18154,1,Female,21,6,Right,8,7,5,monthly,unmatch,line,self,friend,ve.tif,SAT,3,56,48,867,1,b,225
6.2.2,mac,10/21/2020,13:10:47,18154,1,Female,21,6,Right,8,7,5,monthly,unmatch,neutral,self,friend,ve.tif,SAT,3,57,48,594,1,b,226
6.2.2,mac,10/21/2020,13:10:47,18154,1,Female,21,6,Right,8,7,5,monthly,unmatch,line,self,friend,ve.tif,SAT,3,58,48,545,1,b,227
6.2.2,mac,10/21/2020,13:10:47,18154,1,Female,21,6,Right,8,7,5,monthly,unmatch,happy,friend,self,he.tif,SAT,3,59,47,638,0,b,228
6.2.2,mac,10/21/2020,13:10:47,18154,1,Female,21,6,Right,8,7,5,monthly,match,happy,self,self,ve.tif,SAT,3,60,47,536,1,v,229
6.2.2,mac,10/21/2020,13:10:47,18154,1,Female,21,6,Right,8,7,5,monthly,match,line,friend,friend,he.tif,SAT,3,61,48,831,0,v,230
6.2.2,mac,10/21/2020,13:10:47,18154,1,Female,21,6,Right,8,7,5,monthly,match,happy,friend,friend,he.tif,SAT,3,62,47,685,1,v,231
6.2.2,mac,10/21/2020,13:10:47,18154,1,Female,21,6,Right,8,7,5,monthly,match,sad,self,self,ve.tif,SAT,3,63,47,662,1,v,232
6.2.2,mac,10/21/2020,13:10:47,18154,1,Female,21,6,Right,8,7,5,monthly,match,sad,self,self,ve.tif,SAT,3,64,47,472,1,v,233
6.2.2,mac,10/21/2020,13:10:47,18154,1,Female,21,6,Right,8,7,5,monthly,match,happy,friend,friend,he.tif,SAT,3,65,47,693,1,v,234
6.2.2,mac,10/21/2020,13:10:47,18154,1,Female,21,6,Right,8,7,5,monthly,match,neutral,friend,friend,he.tif,SAT,3,66,47,462,1,v,235
6.2.2,mac,10/21/2020,13:10:47,18154,1,Female,21,6,Right,8,7,5,monthly,unmatch,happy,self,friend,ve.tif,SAT,3,67,48,847,1,b,236
6.2.2,mac,10/21/2020,13:10:47,18154,1,Female,21,6,Right,8,7,5,monthly,unmatch,sad,friend,self,he.tif,SAT,3,68,47,664,0,b,237
6.2.2,mac,10/21/2020,13:10:47,18154,1,Female,21,6,Right,8,7,5,monthly,match,neutral,self,self,ve.tif,SAT,3,69,47,514,1,v,238
6.2.2,mac,10/21/2020,13:10:47,18154,1,Female,21,6,Right,8,7,5,monthly,unmatch,sad,self,friend,ve.tif,SAT,3,70,48,543,1,b,239
6.2.2,mac,10/21/2020,13:10:47,18154,1,Female,21,6,Right,8,7,5,monthly,unmatch,neutral,friend,self,he.tif,SAT,3,71,47,622,0,b,240
6.2.2,mac,10/21/2020,13:10:47,18154,1,Female,21,6,Right,8,7,5,monthly,unmatch,neutral,friend,self,he.tif,SAT,3,72,48,666,1,b,241
6.2.2,mac,10/21/2020,13:10:47,18154,1,Female,21,6,Right,8,7,5,monthly,match,line,self,self,ve.tif,SAT,3,73,47,519,1,v,242
6.2.2,mac,10/21/2020,13:10:47,18154,1,Female,21,6,Right,8,7,5,monthly,match,happy,self,self,ve.tif,SAT,3,74,47,445,1,v,243
6.2.2,mac,10/21/2020,13:10:47,18154,1,Female,21,6,Right,8,7,5,monthly,match,sad,friend,friend,he.tif,SAT,3,75,48,639,0,v,244
6.2.2,mac,10/21/2020,13:10:47,18154,1,Female,21,6,Right,8,7,5,monthly,unmatch,sad,friend,self,he.tif,SAT,3,76,48,879,1,b,245
6.2.2,mac,10/21/2020,13:10:47,18154,1,Female,21,6,Right,8,7,5,monthly,unmatch,line,self,friend,ve.tif,SAT,3,77,48,797,1,b,246
6.2.2,mac,10/21/2020,13:10:47,18154,1,Female,21,6,Right,8,7,5,monthly,match,sad,self,self,ve.tif,SAT,3,78,47,550,1,v,247
6.2.2,mac,10/21/2020,13:10:47,18154,1,Female,21,6,Right,8,7,5,monthly,match,happy,friend,friend,he.tif,SAT,3,79,47,648,1,v,248
6.2.2,mac,10/21/2020,13:10:47,18154,1,Female,21,6,Right,8,7,5,monthly,unmatch,happy,friend,self,he.tif,SAT,3,80,48,646,1,b,249
6.2.2,mac,10/21/2020,13:10:47,18154,1,Female,21,6,Right,8,7,5,monthly,match,happy,friend,friend,he.tif,SAT,4,1,47,824,1,v,250
6.2.2,mac,10/21/2020,13:10:47,18154,1,Female,21,6,Right,8,7,5,monthly,unmatch,happy,friend,self,he.tif,SAT,4,2,48,667,1,b,251
6.2.2,mac,10/21/2020,13:10:47,18154,1,Female,21,6,Right,8,7,5,monthly,unmatch,line,friend,self,he.tif,SAT,4,3,48,1101,1,b,252
6.2.2,mac,10/21/2020,13:10:47,18154,1,Female,21,6,Right,8,7,5,monthly,unmatch,neutral,self,friend,ve.tif,SAT,4,4,48,720,1,b,253
6.2.2,mac,10/21/2020,13:10:47,18154,1,Female,21,6,Right,8,7,5,monthly,unmatch,sad,friend,self,he.tif,SAT,4,5,48,726,1,b,254
6.2.2,mac,10/21/2020,13:10:47,18154,1,Female,21,6,Right,8,7,5,monthly,match,sad,friend,friend,he.tif,SAT,4,6,47,663,1,v,255
6.2.2,mac,10/21/2020,13:10:47,18154,1,Female,21,6,Right,8,7,5,monthly,unmatch,line,self,friend,ve.tif,SAT,4,7,48,645,1,b,256
6.2.2,mac,10/21/2020,13:10:47,18154,1,Female,21,6,Right,8,7,5,monthly,unmatch,happy,friend,self,he.tif,SAT,4,8,48,800,1,b,257
6.2.2,mac,10/21/2020,13:10:47,18154,1,Female,21,6,Right,8,7,5,monthly,match,neutral,self,self,ve.tif,SAT,4,9,47,817,1,v,258
6.2.2,mac,10/21/2020,13:10:47,18154,1,Female,21,6,Right,8,7,5,monthly,unmatch,line,friend,self,he.tif,SAT,4,10,48,612,1,b,259
6.2.2,mac,10/21/2020,13:10:47,18154,1,Female,21,6,Right,8,7,5,monthly,match,neutral,friend,friend,he.tif,SAT,4,11,47,671,1,v,260
6.2.2,mac,10/21/2020,13:10:47,18154,1,Female,21,6,Right,8,7,5,monthly,match,sad,self,self,ve.tif,SAT,4,12,47,716,1,v,261
6.2.2,mac,10/21/2020,13:10:47,18154,1,Female,21,6,Right,8,7,5,monthly,unmatch,happy,self,friend,ve.tif,SAT,4,13,48,798,1,b,262
6.2.2,mac,10/21/2020,13:10:47,18154,1,Female,21,6,Right,8,7,5,monthly,unmatch,sad,self,friend,ve.tif,SAT,4,14,48,668,1,b,263
6.2.2,mac,10/21/2020,13:10:47,18154,1,Female,21,6,Right,8,7,5,monthly,unmatch,line,friend,self,he.tif,SAT,4,15,48,678,1,b,264
6.2.2,mac,10/21/2020,13:10:47,18154,1,Female,21,6,Right,8,7,5,monthly,match,line,self,self,ve.tif,SAT,4,16,47,655,1,v,265
6.2.2,mac,10/21/2020,13:10:47,18154,1,Female,21,6,Right,8,7,5,monthly,unmatch,line,friend,self,he.tif,SAT,4,17,48,1061,1,b,266
6.2.2,mac,10/21/2020,13:10:47,18154,1,Female,21,6,Right,8,7,5,monthly,unmatch,sad,friend,self,he.tif,SAT,4,18,48,600,1,b,267
6.2.2,mac,10/21/2020,13:10:47,18154,1,Female,21,6,Right,8,7,5,monthly,unmatch,happy,friend,self,he.tif,SAT,4,19,48,555,1,b,268
6.2.2,mac,10/21/2020,13:10:47,18154,1,Female,21,6,Right,8,7,5,monthly,match,line,friend,friend,he.tif,SAT,4,20,47,848,1,v,269
6.2.2,mac,10/21/2020,13:10:47,18154,1,Female,21,6,Right,8,7,5,monthly,unmatch,line,self,friend,ve.tif,SAT,4,21,48,879,1,b,270
6.2.2,mac,10/21/2020,13:10:47,18154,1,Female,21,6,Right,8,7,5,monthly,match,line,self,self,ve.tif,SAT,4,22,47,1118,1,v,271
6.2.2,mac,10/21/2020,13:10:47,18154,1,Female,21,6,Right,8,7,5,monthly,unmatch,happy,friend,self,he.tif,SAT,4,23,48,655,1,b,272
6.2.2,mac,10/21/2020,13:10:47,18154,1,Female,21,6,Right,8,7,5,monthly,match,happy,friend,friend,he.tif,SAT,4,24,47,846,1,v,273
6.2.2,mac,10/21/2020,13:10:47,18154,1,Female,21,6,Right,8,7,5,monthly,unmatch,neutral,friend,self,he.tif,SAT,4,25,48,772,1,b,274
6.2.2,mac,10/21/2020,13:10:47,18154,1,Female,21,6,Right,8,7,5,monthly,unmatch,sad,self,friend,ve.tif,SAT,4,26,48,772,1,b,275
6.2.2,mac,10/21/2020,13:10:47,18154,1,Female,21,6,Right,8,7,5,monthly,match,happy,self,self,ve.tif,SAT,4,27,47,704,1,v,276
6.2.2,mac,10/21/2020,13:10:47,18154,1,Female,21,6,Right,8,7,5,monthly,match,sad,friend,friend,he.tif,SAT,4,28,47,1246,1,v,277
6.2.2,mac,10/21/2020,13:10:47,18154,1,Female,21,6,Right,8,7,5,monthly,match,line,friend,friend,he.tif,SAT,4,29,47,662,1,v,278
6.2.2,mac,10/21/2020,13:10:47,18154,1,Female,21,6,Right,8,7,5,monthly,match,line,self,self,ve.tif,SAT,4,30,47,860,1,v,279
6.2.2,mac,10/21/2020,13:10:47,18154,1,Female,21,6,Right,8,7,5,monthly,unmatch,sad,self,friend,ve.tif,SAT,4,31,48,676,1,b,280
6.2.2,mac,10/21/2020,13:10:47,18154,1,Female,21,6,Right,8,7,5,monthly,match,neutral,friend,friend,he.tif,SAT,4,32,47,735,1,v,281
6.2.2,mac,10/21/2020,13:10:47,18154,1,Female,21,6,Right,8,7,5,monthly,match,neutral,friend,friend,he.tif,SAT,4,33,47,612,1,v,282
6.2.2,mac,10/21/2020,13:10:47,18154,1,Female,21,6,Right,8,7,5,monthly,unmatch,line,self,friend,ve.tif,SAT,4,34,48,735,1,b,283
6.2.2,mac,10/21/2020,13:10:47,18154,1,Female,21,6,Right,8,7,5,monthly,unmatch,sad,friend,self,he.tif,SAT,4,35,48,691,1,b,284
6.2.2,mac,10/21/2020,13:10:47,18154,1,Female,21,6,Right,8,7,5,monthly,unmatch,sad,self,friend,ve.tif,SAT,4,36,48,1270,1,b,285
6.2.2,mac,10/21/2020,13:10:47,18154,1,Female,21,6,Right,8,7,5,monthly,match,happy,self,self,ve.tif,SAT,4,37,47,621,1,v,286
6.2.2,mac,10/21/2020,13:10:47,18154,1,Female,21,6,Right,8,7,5,monthly,unmatch,happy,self,friend,ve.tif,SAT,4,38,48,635,1,b,287
6.2.2,mac,10/21/2020,13:10:47,18154,1,Female,21,6,Right,8,7,5,monthly,unmatch,neutral,self,friend,ve.tif,SAT,4,39,48,719,1,b,288
6.2.2,mac,10/21/2020,13:10:47,18154,1,Female,21,6,Right,8,7,5,monthly,unmatch,neutral,friend,self,he.tif,SAT,4,40,48,760,1,b,289
6.2.2,mac,10/21/2020,13:10:47,18154,1,Female,21,6,Right,8,7,5,monthly,match,line,self,self,ve.tif,SAT,4,41,47,638,1,v,290
6.2.2,mac,10/21/2020,13:10:47,18154,1,Female,21,6,Right,8,7,5,monthly,match,sad,friend,friend,he.tif,SAT,4,42,47,805,1,v,291
6.2.2,mac,10/21/2020,13:10:47,18154,1,Female,21,6,Right,8,7,5,monthly,match,line,friend,friend,he.tif,SAT,4,43,47,666,1,v,292
6.2.2,mac,10/21/2020,13:10:47,18154,1,Female,21,6,Right,8,7,5,monthly,match,sad,friend,friend,he.tif,SAT,4,44,47,690,1,v,293
6.2.2,mac,10/21/2020,13:10:47,18154,1,Female,21,6,Right,8,7,5,monthly,match,sad,self,self,ve.tif,SAT,4,45,47,650,1,v,294
6.2.2,mac,10/21/2020,13:10:47,18154,1,Female,21,6,Right,8,7,5,monthly,unmatch,neutral,self,friend,ve.tif,SAT,4,46,48,686,1,b,295
6.2.2,mac,10/21/2020,13:10:47,18154,1,Female,21,6,Right,8,7,5,monthly,match,line,friend,friend,he.tif,SAT,4,47,47,768,1,v,296
6.2.2,mac,10/21/2020,13:10:47,18154,1,Female,21,6,Right,8,7,5,monthly,match,sad,self,self,ve.tif,SAT,4,48,47,637,1,v,297
6.2.2,mac,10/21/2020,13:10:47,18154,1,Female,21,6,Right,8,7,5,monthly,match,happy,self,self,ve.tif,SAT,4,49,47,518,1,v,298
6.2.2,mac,10/21/2020,13:10:47,18154,1,Female,21,6,Right,8,7,5,monthly,unmatch,neutral,friend,self,he.tif,SAT,4,50,48,849,1,b,299
6.2.2,mac,10/21/2020,13:10:47,18154,1,Female,21,6,Right,8,7,5,monthly,unmatch,sad,friend,self,he.tif,SAT,4,51,48,858,1,b,300
6.2.2,mac,10/21/2020,13:10:47,18154,1,Female,21,6,Right,8,7,5,monthly,match,neutral,self,self,ve.tif,SAT,4,52,47,647,1,v,301
6.2.2,mac,10/21/2020,13:10:47,18154,1,Female,21,6,Right,8,7,5,monthly,match,neutral,self,self,ve.tif,SAT,4,53,47,655,1,v,302
6.2.2,mac,10/21/2020,13:10:47,18154,1,Female,21,6,Right,8,7,5,monthly,match,happy,friend,friend,he.tif,SAT,4,54,47,702,1,v,303
6.2.2,mac,10/21/2020,13:10:47,18154,1,Female,21,6,Right,8,7,5,monthly,match,neutral,friend,friend,he.tif,SAT,4,55,47,684,1,v,304
6.2.2,mac,10/21/2020,13:10:47,18154,1,Female,21,6,Right,8,7,5,monthly,unmatch,neutral,friend,self,he.tif,SAT,4,56,48,746,1,b,305
6.2.2,mac,10/21/2020,13:10:47,18154,1,Female,21,6,Right,8,7,5,monthly,unmatch,happy,self,friend,ve.tif,SAT,4,57,48,1088,1,b,306
6.2.2,mac,10/21/2020,13:10:47,18154,1,Female,21,6,Right,8,7,5,monthly,match,sad,self,self,ve.tif,SAT,4,58,47,638,1,v,307
6.2.2,mac,10/21/2020,13:10:47,18154,1,Female,21,6,Right,8,7,5,monthly,match,happy,self,self,ve.tif,SAT,4,59,47,687,1,v,308
6.2.2,mac,10/21/2020,13:10:47,18154,1,Female,21,6,Right,8,7,5,monthly,unmatch,happy,friend,self,he.tif,SAT,4,60,48,807,1,b,309
6.2.2,mac,10/21/2020,13:10:47,18154,1,Female,21,6,Right,8,7,5,monthly,match,neutral,self,self,ve.tif,SAT,4,61,47,753,1,v,310
6.2.2,mac,10/21/2020,13:10:47,18154,1,Female,21,6,Right,8,7,5,monthly,match,neutral,self,self,ve.tif,SAT,4,62,47,634,1,v,311
6.2.2,mac,10/21/2020,13:10:47,18154,1,Female,21,6,Right,8,7,5,monthly,match,happy,self,self,ve.tif,SAT,4,63,47,594,1,v,312
6.2.2,mac,10/21/2020,13:10:47,18154,1,Female,21,6,Right,8,7,5,monthly,unmatch,happy,self,friend,ve.tif,SAT,4,64,48,670,1,b,313
6.2.2,mac,10/21/2020,13:10:47,18154,1,Female,21,6,Right,8,7,5,monthly,unmatch,sad,friend,self,he.tif,SAT,4,65,48,933,1,b,314
6.2.2,mac,10/21/2020,13:10:47,18154,1,Female,21,6,Right,8,7,5,monthly,match,line,self,self,ve.tif,SAT,4,66,47,683,1,v,315
6.2.2,mac,10/21/2020,13:10:47,18154,1,Female,21,6,Right,8,7,5,monthly,match,neutral,friend,friend,he.tif,SAT,4,67,47,980,1,v,316
6.2.2,mac,10/21/2020,13:10:47,18154,1,Female,21,6,Right,8,7,5,monthly,unmatch,sad,self,friend,ve.tif,SAT,4,68,48,734,1,b,317
6.2.2,mac,10/21/2020,13:10:47,18154,1,Female,21,6,Right,8,7,5,monthly,unmatch,line,friend,self,he.tif,SAT,4,69,48,879,1,b,318
6.2.2,mac,10/21/2020,13:10:47,18154,1,Female,21,6,Right,8,7,5,monthly,match,sad,self,self,ve.tif,SAT,4,70,47,646,1,v,319
6.2.2,mac,10/21/2020,13:10:47,18154,1,Female,21,6,Right,8,7,5,monthly,unmatch,neutral,friend,self,he.tif,SAT,4,71,48,874,1,b,320
6.2.2,mac,10/21/2020,13:10:47,18154,1,Female,21,6,Right,8,7,5,monthly,match,line,friend,friend,he.tif,SAT,4,72,47,831,1,v,321
6.2.2,mac,10/21/2020,13:10:47,18154,1,Female,21,6,Right,8,7,5,monthly,unmatch,neutral,self,friend,ve.tif,SAT,4,73,48,892,1,b,322
6.2.2,mac,10/21/2020,13:10:47,18154,1,Female,21,6,Right,8,7,5,monthly,unmatch,line,self,friend,ve.tif,SAT,4,74,48,780,1,b,323
6.2.2,mac,10/21/2020,13:10:47,18154,1,Female,21,6,Right,8,7,5,monthly,unmatch,happy,self,friend,ve.tif,SAT,4,75,48,685,1,b,324
6.2.2,mac,10/21/2020,13:10:47,18154,1,Female,21,6,Right,8,7,5,monthly,match,happy,friend,friend,he.tif,SAT,4,76,47,814,1,v,325
6.2.2,mac,10/21/2020,13:10:47,18154,1,Female,21,6,Right,8,7,5,monthly,unmatch,line,self,friend,ve.tif,SAT,4,77,48,761,1,b,326
6.2.2,mac,10/21/2020,13:10:47,18154,1,Female,21,6,Right,8,7,5,monthly,match,sad,friend,friend,he.tif,SAT,4,78,47,667,1,v,327
6.2.2,mac,10/21/2020,13:10:47,18154,1,Female,21,6,Right,8,7,5,monthly,unmatch,neutral,self,friend,ve.tif,SAT,4,79,48,629,1,b,328
6.2.2,mac,10/21/2020,13:10:47,18154,1,Female,21,6,Right,8,7,5,monthly,match,happy,friend,friend,he.tif,SAT,4,80,47,829,1,v,329
6.2.2,mac,10/21/2020,13:10:47,18154,1,Female,21,6,Right,8,7,5,monthly,match,happy,friend,friend,he.tif,BDI,4,80,1,81594,1,v,330
6.2.2,mac,10/21/2020,13:10:47,18154,1,Female,21,6,Right,8,7,5,monthly,match,happy,friend,friend,he.tif,BDI,4,80,0,81594,1,v,331
6.2.2,mac,10/21/2020,13:10:47,18154,1,Female,21,6,Right,8,7,5,monthly,match,happy,friend,friend,he.tif,BDI,4,80,0,81594,1,v,332
6.2.2,mac,10/21/2020,13:10:47,18154,1,Female,21,6,Right,8,7,5,monthly,match,happy,friend,friend,he.tif,BDI,4,80,1,81594,1,v,333
6.2.2,mac,10/21/2020,13:10:47,18154,1,Female,21,6,Right,8,7,5,monthly,match,happy,friend,friend,he.tif,BDI,4,80,1,81594,1,v,334
6.2.2,mac,10/21/2020,13:10:47,18154,1,Female,21,6,Right,8,7,5,monthly,match,happy,friend,friend,he.tif,BDI,4,80,1,81594,1,v,335
6.2.2,mac,10/21/2020,13:10:47,18154,1,Female,21,6,Right,8,7,5,monthly,match,happy,friend,friend,he.tif,BDI,4,80,1,81594,1,v,336
6.2.2,mac,10/21/2020,13:10:47,18154,1,Female,21,6,Right,8,7,5,monthly,match,happy,friend,friend,he.tif,BDI,4,80,1,81594,1,v,337
6.2.2,mac,10/21/2020,13:10:47,18154,1,Female,21,6,Right,8,7,5,monthly,match,happy,friend,friend,he.tif,BDI,4,80,1,81594,1,v,338
6.2.2,mac,10/21/2020,13:10:47,18154,1,Female,21,6,Right,8,7,5,monthly,match,happy,friend,friend,he.tif,BDI,4,80,1,81594,1,v,339
6.2.2,mac,10/21/2020,13:10:47,18154,1,Female,21,6,Right,8,7,5,monthly,match,happy,friend,friend,he.tif,BDI,4,80,1,81594,1,v,340
6.2.2,mac,10/21/2020,13:10:47,18154,1,Female,21,6,Right,8,7,5,monthly,match,happy,friend,friend,he.tif,BDI,4,80,0,81594,1,v,341
6.2.2,mac,10/21/2020,13:10:47,18154,1,Female,21,6,Right,8,7,5,monthly,match,happy,friend,friend,he.tif,BDI,4,80,2,81594,1,v,342
6.2.2,mac,10/21/2020,13:10:47,18154,1,Female,21,6,Right,8,7,5,monthly,match,happy,friend,friend,he.tif,BDI,4,80,1,81594,1,v,343
6.2.2,mac,10/21/2020,13:10:47,18154,1,Female,21,6,Right,8,7,5,monthly,match,happy,friend,friend,he.tif,BDI,4,80,0,81594,1,v,344
6.2.2,mac,10/21/2020,13:10:47,18154,1,Female,21,6,Right,8,7,5,monthly,match,happy,friend,friend,he.tif,BDI,4,80,0,81594,1,v,345
6.2.2,mac,10/21/2020,13:10:47,18154,1,Female,21,6,Right,8,7,5,monthly,match,happy,friend,friend,he.tif,BDI,4,80,0,81594,1,v,346
6.2.2,mac,10/21/2020,13:10:47,18154,1,Female,21,6,Right,8,7,5,monthly,match,happy,friend,friend,he.tif,BDI,4,80,1,81594,1,v,347
6.2.2,mac,10/21/2020,13:10:47,18154,1,Female,21,6,Right,8,7,5,monthly,match,happy,friend,friend,he.tif,BDI,4,80,1,81594,1,v,348
6.2.2,mac,10/21/2020,13:10:47,18154,1,Female,21,6,Right,8,7,5,monthly,match,happy,friend,friend,he.tif,BDI,4,80,0,81594,1,v,349
6.2.2,mac,10/21/2020,13:10:47,18154,1,Female,21,6,Right,8,7,5,monthly,match,happy,friend,friend,he.tif,BFI,4,80,3,111079,1,v,350
6.2.2,mac,10/21/2020,13:10:47,18154,1,Female,21,6,Right,8,7,5,monthly,match,happy,friend,friend,he.tif,BFI,4,80,4,111079,1,v,351
6.2.2,mac,10/21/2020,13:10:47,18154,1,Female,21,6,Right,8,7,5,monthly,match,happy,friend,friend,he.tif,BFI,4,80,5,111079,1,v,352
6.2.2,mac,10/21/2020,13:10:47,18154,1,Female,21,6,Right,8,7,5,monthly,match,happy,friend,friend,he.tif,BFI,4,80,4,111079,1,v,353
6.2.2,mac,10/21/2020,13:10:47,18154,1,Female,21,6,Right,8,7,5,monthly,match,happy,friend,friend,he.tif,BFI,4,80,4,111079,1,v,354
6.2.2,mac,10/21/2020,13:10:47,18154,1,Female,21,6,Right,8,7,5,monthly,match,happy,friend,friend,he.tif,BFI,4,80,4,111079,1,v,355
6.2.2,mac,10/21/2020,13:10:47,18154,1,Female,21,6,Right,8,7,5,monthly,match,happy,friend,friend,he.tif,BFI,4,80,4,111079,1,v,356
6.2.2,mac,10/21/2020,13:10:47,18154,1,Female,21,6,Right,8,7,5,monthly,match,happy,friend,friend,he.tif,BFI,4,80,1,111079,1,v,357
6.2.2,mac,10/21/2020,13:10:47,18154,1,Female,21,6,Right,8,7,5,monthly,match,happy,friend,friend,he.tif,BFI,4,80,2,111079,1,v,358
6.2.2,mac,10/21/2020,13:10:47,18154,1,Female,21,6,Right,8,7,5,monthly,match,happy,friend,friend,he.tif,BFI,4,80,4,111079,1,v,359
6.2.2,mac,10/21/2020,13:10:47,18154,1,Female,21,6,Right,8,7,5,monthly,match,happy,friend,friend,he.tif,BFI,4,80,2,111079,1,v,360
6.2.2,mac,10/21/2020,13:10:47,18154,1,Female,21,6,Right,8,7,5,monthly,match,happy,friend,friend,he.tif,BFI,4,80,2,111079,1,v,361
6.2.2,mac,10/21/2020,13:10:47,18154,1,Female,21,6,Right,8,7,5,monthly,match,happy,friend,friend,he.tif,BFI,4,80,5,111079,1,v,362
6.2.2,mac,10/21/2020,13:10:47,18154,1,Female,21,6,Right,8,7,5,monthly,match,happy,friend,friend,he.tif,BFI,4,80,4,111079,1,v,363
6.2.2,mac,10/21/2020,13:10:47,18154,1,Female,21,6,Right,8,7,5,monthly,match,happy,friend,friend,he.tif,BFI,4,80,4,111079,1,v,364
6.2.2,mac,10/21/2020,13:10:47,18154,1,Female,21,6,Right,8,7,5,monthly,match,happy,friend,friend,he.tif,BFI,4,80,4,111079,1,v,365
6.2.2,mac,10/21/2020,13:10:47,18154,1,Female,21,6,Right,8,7,5,monthly,match,happy,friend,friend,he.tif,BFI,4,80,4,111079,1,v,366
6.2.2,mac,10/21/2020,13:10:47,18154,1,Female,21,6,Right,8,7,5,monthly,match,happy,friend,friend,he.tif,BFI,4,80,1,111079,1,v,367
6.2.2,mac,10/21/2020,13:10:47,18154,1,Female,21,6,Right,8,7,5,monthly,match,happy,friend,friend,he.tif,BFI,4,80,4,111079,1,v,368
6.2.2,mac,10/21/2020,13:10:47,18154,1,Female,21,6,Right,8,7,5,monthly,match,happy,friend,friend,he.tif,BFI,4,80,2,111079,1,v,369
6.2.2,mac,10/21/2020,13:10:47,18154,1,Female,21,6,Right,8,7,5,monthly,match,happy,friend,friend,he.tif,BFI,4,80,4,111079,1,v,370
6.2.2,mac,10/21/2020,13:10:47,18154,1,Female,21,6,Right,8,7,5,monthly,match,happy,friend,friend,he.tif,BFI,4,80,4,111079,1,v,371
6.2.2,mac,10/21/2020,13:10:47,18154,1,Female,21,6,Right,8,7,5,monthly,match,happy,friend,friend,he.tif,BFI,4,80,2,111079,1,v,372
6.2.2,mac,10/21/2020,13:10:47,18154,1,Female,21,6,Right,8,7,5,monthly,match,happy,friend,friend,he.tif,BFI,4,80,2,111079,1,v,373
6.2.2,mac,10/21/2020,13:10:47,18154,1,Female,21,6,Right,8,7,5,monthly,match,happy,friend,friend,he.tif,BFI,4,80,2,111079,1,v,374
6.2.2,mac,10/21/2020,13:10:47,18154,1,Female,21,6,Right,8,7,5,monthly,match,happy,friend,friend,he.tif,BFI,4,80,4,111079,1,v,375
6.2.2,mac,10/21/2020,13:10:47,18154,1,Female,21,6,Right,8,7,5,monthly,match,happy,friend,friend,he.tif,BFI,4,80,4,111079,1,v,376
6.2.2,mac,10/21/2020,13:10:47,18154,1,Female,21,6,Right,8,7,5,monthly,match,happy,friend,friend,he.tif,BFI,4,80,5,111079,1,v,377
6.2.2,mac,10/21/2020,13:10:47,18154,1,Female,21,6,Right,8,7,5,monthly,match,happy,friend,friend,he.tif,BFI,4,80,4,111079,1,v,378
6.2.2,mac,10/21/2020,13:10:47,18154,1,Female,21,6,Right,8,7,5,monthly,match,happy,friend,friend,he.tif,BFI,4,80,4,111079,1,v,379
6.2.2,mac,10/21/2020,13:10:47,18154,1,Female,21,6,Right,8,7,5,monthly,match,happy,friend,friend,he.tif,BFI,4,80,4,111079,1,v,380
6.2.2,mac,10/21/2020,13:10:47,18154,1,Female,21,6,Right,8,7,5,monthly,match,happy,friend,friend,he.tif,BFI,4,80,4,111079,1,v,381
6.2.2,mac,10/21/2020,13:10:47,18154,1,Female,21,6,Right,8,7,5,monthly,match,happy,friend,friend,he.tif,BFI,4,80,5,111079,1,v,382
6.2.2,mac,10/21/2020,13:10:47,18154,1,Female,21,6,Right,8,7,5,monthly,match,happy,friend,friend,he.tif,BFI,4,80,2,111079,1,v,383
6.2.2,mac,10/21/2020,13:10:47,18154,1,Female,21,6,Right,8,7,5,monthly,match,happy,friend,friend,he.tif,BFI,4,80,5,111079,1,v,384
6.2.2,mac,10/21/2020,13:10:47,18154,1,Female,21,6,Right,8,7,5,monthly,match,happy,friend,friend,he.tif,BFI,4,80,4,111079,1,v,385
6.2.2,mac,10/21/2020,13:10:47,18154,1,Female,21,6,Right,8,7,5,monthly,match,happy,friend,friend,he.tif,BFI,4,80,3,111079,1,v,386
6.2.2,mac,10/21/2020,13:10:47,18154,1,Female,21,6,Right,8,7,5,monthly,match,happy,friend,friend,he.tif,BFI,4,80,4,111079,1,v,387
6.2.2,mac,10/21/2020,13:10:47,18154,1,Female,21,6,Right,8,7,5,monthly,match,happy,friend,friend,he.tif,BFI,4,80,4,111079,1,v,388
6.2.2,mac,10/21/2020,13:10:47,18154,1,Female,21,6,Right,8,7,5,monthly,match,happy,friend,friend,he.tif,BFI,4,80,4,111079,1,v,389
6.2.2,mac,10/21/2020,13:10:47,18154,1,Female,21,6,Right,8,7,5,monthly,match,happy,friend,friend,he.tif,BFI,4,80,2,111079,1,v,390
6.2.2,mac,10/21/2020,13:10:47,18154,1,Female,21,6,Right,8,7,5,monthly,match,happy,friend,friend,he.tif,BFI,4,80,4,111079,1,v,391
6.2.2,mac,10/21/2020,13:10:47,18154,1,Female,21,6,Right,8,7,5,monthly,match,happy,friend,friend,he.tif,BFI,4,80,2,111079,1,v,392
6.2.2,mac,10/21/2020,13:10:47,18154,1,Female,21,6,Right,8,7,5,monthly,match,happy,friend,friend,he.tif,BFI,4,80,4,111079,1,v,393
6.2.2,mac,10/21/2020,13:10:47,18154,1,Female,21,6,Right,8,7,5,monthly,match,happy,friend,friend,he.tif,COVID,4,80,0,19757,1,v,394
6.2.2,mac,10/21/2020,13:10:47,18154,1,Female,21,6,Right,8,7,5,monthly,match,happy,friend,friend,he.tif,COVID,4,80,1,19757,1,v,395
6.2.2,mac,10/21/2020,13:10:47,18154,1,Female,21,6,Right,8,7,5,monthly,match,happy,friend,friend,he.tif,COVID,4,80,1,19757,1,v,396
6.2.2,mac,10/21/2020,13:10:47,18154,1,Female,21,6,Right,8,7,5,monthly,match,happy,friend,friend,he.tif,COVID,4,80,-,19757,1,v,397
6.2.2,mac,10/21/2020,13:10:47,18154,1,Female,21,6,Right,8,7,5,monthly,match,happy,friend,friend,he.tif,COVID,4,80,0,19757,1,v,398
6.2.2,mac,10/21/2020,13:10:47,18154,1,Female,21,6,Right,8,7,5,monthly,match,happy,friend,friend,he.tif,COVID,4,80,0,19757,1,v,399
6.2.2,mac,10/21/2020,13:10:47,18154,1,Female,21,6,Right,8,7,5,monthly,match,happy,friend,friend,he.tif,COVID,4,80,0,19757,1,v,400
6.2.2,mac,10/21/2020,13:10:47,18154,1,Female,21,6,Right,8,7,5,monthly,match,happy,friend,friend,he.tif,COVID,4,80,0,19757,1,v,401
6.2.2,mac,10/21/2020,13:10:47,18154,1,Female,21,6,Right,8,7,5,monthly,match,happy,friend,friend,he.tif,COVID,4,80,61,19757,1,v,402
6.2.2,mac,10/21/2020,13:10:47,18154,1,Female,21,6,Right,8,7,5,monthly,match,happy,friend,friend,he.tif,GAD,4,80,2,22302,1,v,403
6.2.2,mac,10/21/2020,13:10:47,18154,1,Female,21,6,Right,8,7,5,monthly,match,happy,friend,friend,he.tif,GAD,4,80,2,22302,1,v,404
6.2.2,mac,10/21/2020,13:10:47,18154,1,Female,21,6,Right,8,7,5,monthly,match,happy,friend,friend,he.tif,GAD,4,80,2,22302,1,v,405
6.2.2,mac,10/21/2020,13:10:47,18154,1,Female,21,6,Right,8,7,5,monthly,match,happy,friend,friend,he.tif,GAD,4,80,1,22302,1,v,406
6.2.2,mac,10/21/2020,13:10:47,18154,1,Female,21,6,Right,8,7,5,monthly,match,happy,friend,friend,he.tif,GAD,4,80,0,22302,1,v,407
6.2.2,mac,10/21/2020,13:10:47,18154,1,Female,21,6,Right,8,7,5,monthly,match,happy,friend,friend,he.tif,GAD,4,80,2,22302,1,v,408
6.2.2,mac,10/21/2020,13:10:47,18154,1,Female,21,6,Right,8,7,5,monthly,match,happy,friend,friend,he.tif,GAD,4,80,2,22302,1,v,409
6.2.2,mac,10/21/2020,13:10:47,18154,1,Female,21,6,Right,8,7,5,monthly,match,happy,friend,friend,he.tif,GAD,4,80,1,22302,1,v,410
6.2.2,mac,10/21/2020,13:10:47,18154,1,Female,21,6,Right,8,7,5,monthly,match,happy,friend,friend,he.tif,Donation,4,80,196,13006,1,v,411
6.2.2,mac,10/21/2020,13:10:47,18154,1,Female,21,6,Right,8,7,5,monthly,match,happy,friend,friend,he.tif,PWB,4,80,2,58387,1,v,412
6.2.2,mac,10/21/2020,13:10:47,18154,1,Female,21,6,Right,8,7,5,monthly,match,happy,friend,friend,he.tif,PWB,4,80,3,58387,1,v,413
6.2.2,mac,10/21/2020,13:10:47,18154,1,Female,21,6,Right,8,7,5,monthly,match,happy,friend,friend,he.tif,PWB,4,80,3,58387,1,v,414
6.2.2,mac,10/21/2020,13:10:47,18154,1,Female,21,6,Right,8,7,5,monthly,match,happy,friend,friend,he.tif,PWB,4,80,5,58387,1,v,415
6.2.2,mac,10/21/2020,13:10:47,18154,1,Female,21,6,Right,8,7,5,monthly,match,happy,friend,friend,he.tif,PWB,4,80,7,58387,1,v,416
6.2.2,mac,10/21/2020,13:10:47,18154,1,Female,21,6,Right,8,7,5,monthly,match,happy,friend,friend,he.tif,PWB,4,80,3,58387,1,v,417
6.2.2,mac,10/21/2020,13:10:47,18154,1,Female,21,6,Right,8,7,5,monthly,match,happy,friend,friend,he.tif,PWB,4,80,6,58387,1,v,418
6.2.2,mac,10/21/2020,13:10:47,18154,1,Female,21,6,Right,8,7,5,monthly,match,happy,friend,friend,he.tif,PWB,4,80,2,58387,1,v,419
6.2.2,mac,10/21/2020,13:10:47,18154,1,Female,21,6,Right,8,7,5,monthly,match,happy,friend,friend,he.tif,PWB,4,80,3,58387,1,v,420
6.2.2,mac,10/21/2020,13:10:47,18154,1,Female,21,6,Right,8,7,5,monthly,match,happy,friend,friend,he.tif,PWB,4,80,6,58387,1,v,421
6.2.2,mac,10/21/2020,13:10:47,18154,1,Female,21,6,Right,8,7,5,monthly,match,happy,friend,friend,he.tif,PWB,4,80,1,58387,1,v,422
6.2.2,mac,10/21/2020,13:10:47,18154,1,Female,21,6,Right,8,7,5,monthly,match,happy,friend,friend,he.tif,PWB,4,80,2,58387,1,v,423
6.2.2,mac,10/21/2020,13:10:47,18154,1,Female,21,6,Right,8,7,5,monthly,match,happy,friend,friend,he.tif,PWB,4,80,3,58387,1,v,424
6.2.2,mac,10/21/2020,13:10:47,18154,1,Female,21,6,Right,8,7,5,monthly,match,happy,friend,friend,he.tif,PWB,4,80,7,58387,1,v,425
6.2.2,mac,10/21/2020,13:10:47,18154,1,Female,21,6,Right,8,7,5,monthly,match,happy,friend,friend,he.tif,PWB,4,80,5,58387,1,v,426
6.2.2,mac,10/21/2020,13:10:47,18154,1,Female,21,6,Right,8,7,5,monthly,match,happy,friend,friend,he.tif,PWB,4,80,3,58387,1,v,427
6.2.2,mac,10/21/2020,13:10:47,18154,1,Female,21,6,Right,8,7,5,monthly,match,happy,friend,friend,he.tif,PWB,4,80,2,58387,1,v,428
6.2.2,mac,10/21/2020,13:10:47,18154,1,Female,21,6,Right,8,7,5,monthly,match,happy,friend,friend,he.tif,SWL,4,80,2,19783,1,v,429
6.2.2,mac,10/21/2020,13:10:47,18154,1,Female,21,6,Right,8,7,5,monthly,match,happy,friend,friend,he.tif,SWL,4,80,3,19783,1,v,430
6.2.2,mac,10/21/2020,13:10:47,18154,1,Female,21,6,Right,8,7,5,monthly,match,happy,friend,friend,he.tif,SWL,4,80,5,19783,1,v,431
6.2.2,mac,10/21/2020,13:10:47,18154,1,Female,21,6,Right,8,7,5,monthly,match,happy,friend,friend,he.tif,SWL,4,80,5,19783,1,v,432
6.2.2,mac,10/21/2020,13:10:47,18154,1,Female,21,6,Right,8,7,5,monthly,match,happy,friend,friend,he.tif,SWL,4,80,2,19783,1,v,433
6.2.2,win,10/21/2020,14:20:22,18238,1,Female,20,6,Right,-,-,-,-,-,-,-,-,-,Sub-Info,0,0,20,15409,1,-,1
6.2.2,win,10/21/2020,14:20:22,18238,1,Female,20,6,Right,-,-,-,-,-,-,-,-,-,Sub-Info,0,0,Female,15409,1,-,2
6.2.2,win,10/21/2020,14:20:22,18238,1,Female,20,6,Right,-,-,-,-,-,-,-,-,-,Sub-Info,0,0,6,15409,1,-,3
6.2.2,win,10/21/2020,14:20:22,18238,1,Female,20,6,Right,-,-,-,-,-,-,-,-,-,Sub-Info,0,0,Right,15409,1,-,4
6.2.2,win,10/21/2020,14:20:22,18238,1,Female,20,6,Right,12,7,6,weekly,-,-,-,-,-,Sub-Info,0,0,Giorgia,51200,1,-,5
6.2.2,win,10/21/2020,14:20:22,18238,1,Female,20,6,Right,12,7,6,weekly,-,-,-,-,-,Sub-Info,0,0,12,51200,1,-,6
6.2.2,win,10/21/2020,14:20:22,18238,1,Female,20,6,Right,12,7,6,weekly,-,-,-,-,-,Sub-Info,0,0,7,51200,1,-,7
6.2.2,win,10/21/2020,14:20:22,18238,1,Female,20,6,Right,12,7,6,weekly,-,-,-,-,-,Sub-Info,0,0,6,51200,1,-,8
6.2.2,win,10/21/2020,14:20:22,18238,1,Female,20,6,Right,12,7,6,weekly,-,-,-,-,-,Sub-Info,0,0,weekly,51200,1,-,9
6.2.2,win,10/21/2020,14:20:22,18238,1,Female,20,6,Right,12,7,6,weekly,unmatch,line,friend,self,he.tif,SAT,1,1,47,724,1,v,10
6.2.2,win,10/21/2020,14:20:22,18238,1,Female,20,6,Right,12,7,6,weekly,unmatch,neutral,friend,self,he.tif,SAT,1,2,47,889,1,v,11
6.2.2,win,10/21/2020,14:20:22,18238,1,Female,20,6,Right,12,7,6,weekly,match,line,friend,friend,he.tif,SAT,1,3,47,748,0,b,12
6.2.2,win,10/21/2020,14:20:22,18238,1,Female,20,6,Right,12,7,6,weekly,match,neutral,self,self,ve.tif,SAT,1,4,48,1230,1,b,13
6.2.2,win,10/21/2020,14:20:22,18238,1,Female,20,6,Right,12,7,6,weekly,unmatch,line,friend,self,he.tif,SAT,1,5,47,972,1,v,14
6.2.2,win,10/21/2020,14:20:22,18238,1,Female,20,6,Right,12,7,6,weekly,match,happy,self,self,ve.tif,SAT,1,6,48,853,1,b,15
6.2.2,win,10/21/2020,14:20:22,18238,1,Female,20,6,Right,12,7,6,weekly,unmatch,sad,friend,self,he.tif,SAT,1,7,47,1096,1,v,16
6.2.2,win,10/21/2020,14:20:22,18238,1,Female,20,6,Right,12,7,6,weekly,unmatch,happy,self,friend,ve.tif,SAT,1,8,47,969,1,v,17
6.2.2,win,10/21/2020,14:20:22,18238,1,Female,20,6,Right,12,7,6,weekly,unmatch,line,self,friend,ve.tif,SAT,1,9,48,926,0,v,18
6.2.2,win,10/21/2020,14:20:22,18238,1,Female,20,6,Right,12,7,6,weekly,unmatch,line,friend,self,he.tif,SAT,1,10,47,1087,1,v,19
6.2.2,win,10/21/2020,14:20:22,18238,1,Female,20,6,Right,12,7,6,weekly,unmatch,neutral,self,friend,ve.tif,SAT,1,11,47,1459,1,v,20
6.2.2,win,10/21/2020,14:20:22,18238,1,Female,20,6,Right,12,7,6,weekly,match,line,self,self,ve.tif,SAT,1,12,48,693,1,b,21
6.2.2,win,10/21/2020,14:20:22,18238,1,Female,20,6,Right,12,7,6,weekly,match,happy,self,self,ve.tif,SAT,1,13,48,773,1,b,22
6.2.2,win,10/21/2020,14:20:22,18238,1,Female,20,6,Right,12,7,6,weekly,match,neutral,self,self,ve.tif,SAT,1,14,48,576,1,b,23
6.2.2,win,10/21/2020,14:20:22,18238,1,Female,20,6,Right,12,7,6,weekly,match,sad,friend,friend,he.tif,SAT,1,15,48,970,1,b,24
6.2.2,win,10/21/2020,14:20:22,18238,1,Female,20,6,Right,12,7,6,weekly,unmatch,sad,friend,self,he.tif,SAT,1,16,47,673,1,v,25
6.2.2,win,10/21/2020,14:20:22,18238,1,Female,20,6,Right,12,7,6,weekly,unmatch,sad,friend,self,he.tif,SAT,1,17,47,757,1,v,26
6.2.2,win,10/21/2020,14:20:22,18238,1,Female,20,6,Right,12,7,6,weekly,match,sad,self,self,ve.tif,SAT,1,18,48,678,1,b,27
6.2.2,win,10/21/2020,14:20:22,18238,1,Female,20,6,Right,12,7,6,weekly,match,sad,self,self,ve.tif,SAT,1,19,48,926,1,b,28
6.2.2,win,10/21/2020,14:20:22,18238,1,Female,20,6,Right,12,7,6,weekly,match,happy,self,self,ve.tif,SAT,1,20,48,551,1,b,29
6.2.2,win,10/21/2020,14:20:22,18238,1,Female,20,6,Right,12,7,6,weekly,unmatch,neutral,self,friend,ve.tif,SAT,1,21,47,534,1,v,30
6.2.2,win,10/21/2020,14:20:22,18238,1,Female,20,6,Right,12,7,6,weekly,unmatch,happy,friend,self,he.tif,SAT,1,22,47,886,1,v,31
6.2.2,win,10/21/2020,14:20:22,18238,1,Female,20,6,Right,12,7,6,weekly,match,neutral,friend,friend,he.tif,SAT,1,23,48,622,1,b,32
6.2.2,win,10/21/2020,14:20:22,18238,1,Female,20,6,Right,12,7,6,weekly,match,happy,friend,friend,he.tif,SAT,1,24,47,1318,0,b,33
6.2.2,win,10/21/2020,14:20:22,18238,1,Female,20,6,Right,12,7,6,weekly,unmatch,happy,friend,self,he.tif,SAT,1,25,47,869,1,v,34
6.2.2,win,10/21/2020,14:20:22,18238,1,Female,20,6,Right,12,7,6,weekly,match,neutral,self,self,ve.tif,SAT,1,26,48,645,1,b,35
6.2.2,win,10/21/2020,14:20:22,18238,1,Female,20,6,Right,12,7,6,weekly,match,neutral,friend,friend,he.tif,SAT,1,27,48,1048,1,b,36
6.2.2,win,10/21/2020,14:20:22,18238,1,Female,20,6,Right,12,7,6,weekly,unmatch,sad,self,friend,ve.tif,SAT,1,28,47,881,1,v,37
6.2.2,win,10/21/2020,14:20:22,18238,1,Female,20,6,Right,12,7,6,weekly,match,happy,friend,friend,he.tif,SAT,1,29,48,942,1,b,38
6.2.2,win,10/21/2020,14:20:22,18238,1,Female,20,6,Right,12,7,6,weekly,unmatch,happy,self,friend,ve.tif,SAT,1,30,47,856,1,v,39
6.2.2,win,10/21/2020,14:20:22,18238,1,Female,20,6,Right,12,7,6,weekly,unmatch,line,self,friend,ve.tif,SAT,1,31,47,816,1,v,40
6.2.2,win,10/21/2020,14:20:22,18238,1,Female,20,6,Right,12,7,6,weekly,match,neutral,self,self,ve.tif,SAT,1,32,48,728,1,b,41
6.2.2,win,10/21/2020,14:20:22,18238,1,Female,20,6,Right,12,7,6,weekly,match,happy,friend,friend,he.tif,SAT,1,33,48,1022,1,b,42
6.2.2,win,10/21/2020,14:20:22,18238,1,Female,20,6,Right,12,7,6,weekly,match,sad,self,self,ve.tif,SAT,1,34,48,822,1,b,43
6.2.2,win,10/21/2020,14:20:22,18238,1,Female,20,6,Right,12,7,6,weekly,match,line,friend,friend,he.tif,SAT,1,35,47,803,0,b,44
6.2.2,win,10/21/2020,14:20:22,18238,1,Female,20,6,Right,12,7,6,weekly,unmatch,sad,friend,self,he.tif,SAT,1,36,47,747,1,v,45
6.2.2,win,10/21/2020,14:20:22,18238,1,Female,20,6,Right,12,7,6,weekly,unmatch,happy,friend,self,he.tif,SAT,1,37,47,956,1,v,46
6.2.2,win,10/21/2020,14:20:22,18238,1,Female,20,6,Right,12,7,6,weekly,match,sad,friend,friend,he.tif,SAT,1,38,48,743,1,b,47
6.2.2,win,10/21/2020,14:20:22,18238,1,Female,20,6,Right,12,7,6,weekly,unmatch,neutral,self,friend,ve.tif,SAT,1,39,47,986,1,v,48
6.2.2,win,10/21/2020,14:20:22,18238,1,Female,20,6,Right,12,7,6,weekly,unmatch,neutral,friend,self,he.tif,SAT,1,40,47,827,1,v,49
6.2.2,win,10/21/2020,14:20:22,18238,1,Female,20,6,Right,12,7,6,weekly,unmatch,sad,self,friend,ve.tif,SAT,1,41,47,778,1,v,50
6.2.2,win,10/21/2020,14:20:22,18238,1,Female,20,6,Right,12,7,6,weekly,match,neutral,friend,friend,he.tif,SAT,1,42,48,532,1,b,51
6.2.2,win,10/21/2020,14:20:22,18238,1,Female,20,6,Right,12,7,6,weekly,match,line,self,self,ve.tif,SAT,1,43,48,593,1,b,52
6.2.2,win,10/21/2020,14:20:22,18238,1,Female,20,6,Right,12,7,6,weekly,match,sad,friend,friend,he.tif,SAT,1,44,47,842,0,b,53
6.2.2,win,10/21/2020,14:20:22,18238,1,Female,20,6,Right,12,7,6,weekly,unmatch,line,self,friend,ve.tif,SAT,1,45,47,776,1,v,54
6.2.2,win,10/21/2020,14:20:22,18238,1,Female,20,6,Right,12,7,6,weekly,unmatch,sad,self,friend,ve.tif,SAT,1,46,47,686,1,v,55
6.2.2,win,10/21/2020,14:20:22,18238,1,Female,20,6,Right,12,7,6,weekly,match,happy,friend,friend,he.tif,SAT,1,47,48,544,1,b,56
6.2.2,win,10/21/2020,14:20:22,18238,1,Female,20,6,Right,12,7,6,weekly,unmatch,neutral,self,friend,ve.tif,SAT,1,48,47,768,1,v,57
6.2.2,win,10/21/2020,14:20:22,18238,1,Female,20,6,Right,12,7,6,weekly,unmatch,neutral,friend,self,he.tif,SAT,1,49,47,1125,1,v,58
6.2.2,win,10/21/2020,14:20:22,18238,1,Female,20,6,Right,12,7,6,weekly,match,happy,friend,friend,he.tif,SAT,1,50,48,817,1,b,59
6.2.2,win,10/21/2020,14:20:22,18238,1,Female,20,6,Right,12,7,6,weekly,unmatch,line,friend,self,he.tif,SAT,1,51,47,1161,1,v,60
6.2.2,win,10/21/2020,14:20:22,18238,1,Female,20,6,Right,12,7,6,weekly,match,line,friend,friend,he.tif,SAT,1,52,48,957,1,b,61
6.2.2,win,10/21/2020,14:20:22,18238,1,Female,20,6,Right,12,7,6,weekly,unmatch,happy,friend,self,he.tif,SAT,1,53,47,681,1,v,62
6.2.2,win,10/21/2020,14:20:22,18238,1,Female,20,6,Right,12,7,6,weekly,match,neutral,friend,friend,he.tif,SAT,1,54,47,652,0,b,63
6.2.2,win,10/21/2020,14:20:22,18238,1,Female,20,6,Right,12,7,6,weekly,match,neutral,friend,friend,he.tif,SAT,1,55,48,533,1,b,64
6.2.2,win,10/21/2020,14:20:22,18238,1,Female,20,6,Right,12,7,6,weekly,match,line,self,self,ve.tif,SAT,1,56,48,578,1,b,65
6.2.2,win,10/21/2020,14:20:22,18238,1,Female,20,6,Right,12,7,6,weekly,match,sad,self,self,ve.tif,SAT,1,57,48,530,1,b,66
6.2.2,win,10/21/2020,14:20:22,18238,1,Female,20,6,Right,12,7,6,weekly,unmatch,neutral,friend,self,he.tif,SAT,1,58,47,634,1,v,67
6.2.2,win,10/21/2020,14:20:22,18238,1,Female,20,6,Right,12,7,6,weekly,match,line,friend,friend,he.tif,SAT,1,59,48,596,1,b,68
6.2.2,win,10/21/2020,14:20:22,18238,1,Female,20,6,Right,12,7,6,weekly,unmatch,happy,friend,self,he.tif,SAT,1,60,47,656,1,v,69
6.2.2,win,10/21/2020,14:20:22,18238,1,Female,20,6,Right,12,7,6,weekly,unmatch,happy,self,friend,ve.tif,SAT,1,61,47,663,1,v,70
6.2.2,win,10/21/2020,14:20:22,18238,1,Female,20,6,Right,12,7,6,weekly,match,line,self,self,ve.tif,SAT,1,62,48,738,1,b,71
6.2.2,win,10/21/2020,14:20:22,18238,1,Female,20,6,Right,12,7,6,weekly,unmatch,happy,self,friend,ve.tif,SAT,1,63,47,772,1,v,72
6.2.2,win,10/21/2020,14:20:22,18238,1,Female,20,6,Right,12,7,6,weekly,unmatch,line,self,friend,ve.tif,SAT,1,64,47,774,1,v,73
6.2.2,win,10/21/2020,14:20:22,18238,1,Female,20,6,Right,12,7,6,weekly,unmatch,line,friend,self,he.tif,SAT,1,65,47,1428,1,v,74
6.2.2,win,10/21/2020,14:20:22,18238,1,Female,20,6,Right,12,7,6,weekly,match,line,friend,friend,he.tif,SAT,1,66,48,921,1,b,75
6.2.2,win,10/21/2020,14:20:22,18238,1,Female,20,6,Right,12,7,6,weekly,match,neutral,self,self,ve.tif,SAT,1,67,48,718,1,b,76
6.2.2,win,10/21/2020,14:20:22,18238,1,Female,20,6,Right,12,7,6,weekly,match,sad,friend,friend,he.tif,SAT,1,68,47,610,0,b,77
6.2.2,win,10/21/2020,14:20:22,18238,1,Female,20,6,Right,12,7,6,weekly,unmatch,sad,self,friend,ve.tif,SAT,1,69,48,600,0,v,78
6.2.2,win,10/21/2020,14:20:22,18238,1,Female,20,6,Right,12,7,6,weekly,match,line,self,self,ve.tif,SAT,1,70,48,660,1,b,79
6.2.2,win,10/21/2020,14:20:22,18238,1,Female,20,6,Right,12,7,6,weekly,match,happy,self,self,ve.tif,SAT,1,71,48,457,1,b,80
6.2.2,win,10/21/2020,14:20:22,18238,1,Female,20,6,Right,12,7,6,weekly,match,happy,self,self,ve.tif,SAT,1,72,48,765,1,b,81
6.2.2,win,10/21/2020,14:20:22,18238,1,Female,20,6,Right,12,7,6,weekly,unmatch,happy,self,friend,ve.tif,SAT,1,73,47,635,1,v,82
6.2.2,win,10/21/2020,14:20:22,18238,1,Female,20,6,Right,12,7,6,weekly,unmatch,sad,self,friend,ve.tif,SAT,1,74,47,794,1,v,83
6.2.2,win,10/21/2020,14:20:22,18238,1,Female,20,6,Right,12,7,6,weekly,unmatch,line,self,friend,ve.tif,SAT,1,75,47,739,1,v,84
6.2.2,win,10/21/2020,14:20:22,18238,1,Female,20,6,Right,12,7,6,weekly,match,sad,friend,friend,he.tif,SAT,1,76,48,828,1,b,85
6.2.2,win,10/21/2020,14:20:22,18238,1,Female,20,6,Right,12,7,6,weekly,match,sad,self,self,ve.tif,SAT,1,77,48,930,1,b,86
6.2.2,win,10/21/2020,14:20:22,18238,1,Female,20,6,Right,12,7,6,weekly,unmatch,sad,friend,self,he.tif,SAT,1,78,47,853,1,v,87
6.2.2,win,10/21/2020,14:20:22,18238,1,Female,20,6,Right,12,7,6,weekly,unmatch,neutral,friend,self,he.tif,SAT,1,79,0,1500,0,v,88
6.2.2,win,10/21/2020,14:20:22,18238,1,Female,20,6,Right,12,7,6,weekly,unmatch,neutral,self,friend,ve.tif,SAT,1,80,47,1142,1,v,89
6.2.2,win,10/21/2020,14:20:22,18238,1,Female,20,6,Right,12,7,6,weekly,unmatch,neutral,self,friend,ve.tif,SAT,2,1,47,753,1,v,90
6.2.2,win,10/21/2020,14:20:22,18238,1,Female,20,6,Right,12,7,6,weekly,match,happy,self,self,ve.tif,SAT,2,2,48,603,1,b,91
6.2.2,win,10/21/2020,14:20:22,18238,1,Female,20,6,Right,12,7,6,weekly,match,line,self,self,ve.tif,SAT,2,3,48,690,1,b,92
6.2.2,win,10/21/2020,14:20:22,18238,1,Female,20,6,Right,12,7,6,weekly,match,sad,self,self,ve.tif,SAT,2,4,48,628,1,b,93
6.2.2,win,10/21/2020,14:20:22,18238,1,Female,20,6,Right,12,7,6,weekly,match,neutral,friend,friend,he.tif,SAT,2,5,48,982,1,b,94
6.2.2,win,10/21/2020,14:20:22,18238,1,Female,20,6,Right,12,7,6,weekly,unmatch,happy,self,friend,ve.tif,SAT,2,6,47,649,1,v,95
6.2.2,win,10/21/2020,14:20:22,18238,1,Female,20,6,Right,12,7,6,weekly,unmatch,neutral,friend,self,he.tif,SAT,2,7,48,692,0,v,96
6.2.2,win,10/21/2020,14:20:22,18238,1,Female,20,6,Right,12,7,6,weekly,unmatch,line,self,friend,ve.tif,SAT,2,8,47,1045,1,v,97
6.2.2,win,10/21/2020,14:20:22,18238,1,Female,20,6,Right,12,7,6,weekly,unmatch,happy,friend,self,he.tif,SAT,2,9,47,768,1,v,98
6.2.2,win,10/21/2020,14:20:22,18238,1,Female,20,6,Right,12,7,6,weekly,match,line,self,self,ve.tif,SAT,2,10,48,512,1,b,99
6.2.2,win,10/21/2020,14:20:22,18238,1,Female,20,6,Right,12,7,6,weekly,unmatch,line,friend,self,he.tif,SAT,2,11,47,1102,1,v,100
6.2.2,win,10/21/2020,14:20:22,18238,1,Female,20,6,Right,12,7,6,weekly,match,neutral,friend,friend,he.tif,SAT,2,12,48,649,1,b,101
6.2.2,win,10/21/2020,14:20:22,18238,1,Female,20,6,Right,12,7,6,weekly,match,sad,self,self,ve.tif,SAT,2,13,48,645,1,b,102
6.2.2,win,10/21/2020,14:20:22,18238,1,Female,20,6,Right,12,7,6,weekly,match,happy,friend,friend,he.tif,SAT,2,14,48,694,1,b,103
6.2.2,win,10/21/2020,14:20:22,18238,1,Female,20,6,Right,12,7,6,weekly,unmatch,sad,friend,self,he.tif,SAT,2,15,47,756,1,v,104
6.2.2,win,10/21/2020,14:20:22,18238,1,Female,20,6,Right,12,7,6,weekly,match,sad,self,self,ve.tif,SAT,2,16,48,620,1,b,105
6.2.2,win,10/21/2020,14:20:22,18238,1,Female,20,6,Right,12,7,6,weekly,unmatch,neutral,self,friend,ve.tif,SAT,2,17,47,566,1,v,106
6.2.2,win,10/21/2020,14:20:22,18238,1,Female,20,6,Right,12,7,6,weekly,unmatch,sad,self,friend,ve.tif,SAT,2,18,47,993,1,v,107
6.2.2,win,10/21/2020,14:20:22,18238,1,Female,20,6,Right,12,7,6,weekly,unmatch,happy,self,friend,ve.tif,SAT,2,19,47,726,1,v,108
6.2.2,win,10/21/2020,14:20:22,18238,1,Female,20,6,Right,12,7,6,weekly,unmatch,happy,friend,self,he.tif,SAT,2,20,47,839,1,v,109
6.2.2,win,10/21/2020,14:20:22,18238,1,Female,20,6,Right,12,7,6,weekly,unmatch,happy,friend,self,he.tif,SAT,2,21,47,658,1,v,110
6.2.2,win,10/21/2020,14:20:22,18238,1,Female,20,6,Right,12,7,6,weekly,unmatch,happy,friend,self,he.tif,SAT,2,22,47,467,1,v,111
6.2.2,win,10/21/2020,14:20:22,18238,1,Female,20,6,Right,12,7,6,weekly,match,neutral,self,self,ve.tif,SAT,2,23,48,635,1,b,112
6.2.2,win,10/21/2020,14:20:22,18238,1,Female,20,6,Right,12,7,6,weekly,unmatch,line,self,friend,ve.tif,SAT,2,24,48,781,0,v,113
6.2.2,win,10/21/2020,14:20:22,18238,1,Female,20,6,Right,12,7,6,weekly,unmatch,neutral,friend,self,he.tif,SAT,2,25,47,583,1,v,114
6.2.2,win,10/21/2020,14:20:22,18238,1,Female,20,6,Right,12,7,6,weekly,unmatch,line,friend,self,he.tif,SAT,2,26,47,1167,1,v,115
6.2.2,win,10/21/2020,14:20:22,18238,1,Female,20,6,Right,12,7,6,weekly,unmatch,line,self,friend,ve.tif,SAT,2,27,47,678,1,v,116
6.2.2,win,10/21/2020,14:20:22,18238,1,Female,20,6,Right,12,7,6,weekly,unmatch,happy,self,friend,ve.tif,SAT,2,28,47,551,1,v,117
6.2.2,win,10/21/2020,14:20:22,18238,1,Female,20,6,Right,12,7,6,weekly,match,neutral,self,self,ve.tif,SAT,2,29,47,435,0,b,118
6.2.2,win,10/21/2020,14:20:22,18238,1,Female,20,6,Right,12,7,6,weekly,match,line,friend,friend,he.tif,SAT,2,30,48,764,1,b,119
6.2.2,win,10/21/2020,14:20:22,18238,1,Female,20,6,Right,12,7,6,weekly,unmatch,neutral,friend,self,he.tif,SAT,2,31,47,732,1,v,120
6.2.2,win,10/21/2020,14:20:22,18238,1,Female,20,6,Right,12,7,6,weekly,unmatch,line,friend,self,he.tif,SAT,2,32,47,802,1,v,121
6.2.2,win,10/21/2020,14:20:22,18238,1,Female,20,6,Right,12,7,6,weekly,match,happy,friend,friend,he.tif,SAT,2,33,48,783,1,b,122
6.2.2,win,10/21/2020,14:20:22,18238,1,Female,20,6,Right,12,7,6,weekly,match,happy,friend,friend,he.tif,SAT,2,34,48,533,1,b,123
6.2.2,win,10/21/2020,14:20:22,18238,1,Female,20,6,Right,12,7,6,weekly,match,sad,friend,friend,he.tif,SAT,2,35,48,475,1,b,124
6.2.2,win,10/21/2020,14:20:22,18238,1,Female,20,6,Right,12,7,6,weekly,match,neutral,self,self,ve.tif,SAT,2,36,48,617,1,b,125
6.2.2,win,10/21/2020,14:20:22,18238,1,Female,20,6,Right,12,7,6,weekly,match,neutral,self,self,ve.tif,SAT,2,37,48,449,1,b,126
6.2.2,win,10/21/2020,14:20:22,18238,1,Female,20,6,Right,12,7,6,weekly,match,line,friend,friend,he.tif,SAT,2,38,48,672,1,b,127
6.2.2,win,10/21/2020,14:20:22,18238,1,Female,20,6,Right,12,7,6,weekly,unmatch,neutral,friend,self,he.tif,SAT,2,39,47,533,1,v,128
6.2.2,win,10/21/2020,14:20:22,18238,1,Female,20,6,Right,12,7,6,weekly,match,line,friend,friend,he.tif,SAT,2,40,48,734,1,b,129
6.2.2,win,10/21/2020,14:20:22,18238,1,Female,20,6,Right,12,7,6,weekly,unmatch,happy,self,friend,ve.tif,SAT,2,41,48,544,0,v,130
6.2.2,win,10/21/2020,14:20:22,18238,1,Female,20,6,Right,12,7,6,weekly,unmatch,neutral,self,friend,ve.tif,SAT,2,42,47,927,1,v,131
6.2.2,win,10/21/2020,14:20:22,18238,1,Female,20,6,Right,12,7,6,weekly,match,neutral,friend,friend,he.tif,SAT,2,43,48,819,1,b,132
6.2.2,win,10/21/2020,14:20:22,18238,1,Female,20,6,Right,12,7,6,weekly,match,neutral,friend,friend,he.tif,SAT,2,44,48,678,1,b,133
6.2.2,win,10/21/2020,14:20:22,18238,1,Female,20,6,Right,12,7,6,weekly,unmatch,neutral,self,friend,ve.tif,SAT,2,45,47,684,1,v,134
6.2.2,win,10/21/2020,14:20:22,18238,1,Female,20,6,Right,12,7,6,weekly,unmatch,sad,self,friend,ve.tif,SAT,2,46,47,654,1,v,135
6.2.2,win,10/21/2020,14:20:22,18238,1,Female,20,6,Right,12,7,6,weekly,match,sad,friend,friend,he.tif,SAT,2,47,48,884,1,b,136
6.2.2,win,10/21/2020,14:20:22,18238,1,Female,20,6,Right,12,7,6,weekly,match,sad,friend,friend,he.tif,SAT,2,48,48,463,1,b,137
6.2.2,win,10/21/2020,14:20:22,18238,1,Female,20,6,Right,12,7,6,weekly,match,sad,friend,friend,he.tif,SAT,2,49,48,449,1,b,138
6.2.2,win,10/21/2020,14:20:22,18238,1,Female,20,6,Right,12,7,6,weekly,match,happy,self,self,ve.tif,SAT,2,50,48,533,1,b,139
6.2.2,win,10/21/2020,14:20:22,18238,1,Female,20,6,Right,12,7,6,weekly,unmatch,happy,friend,self,he.tif,SAT,2,51,48,700,0,v,140
6.2.2,win,10/21/2020,14:20:22,18238,1,Female,20,6,Right,12,7,6,weekly,match,happy,self,self,ve.tif,SAT,2,52,48,531,1,b,141
6.2.2,win,10/21/2020,14:20:22,18238,1,Female,20,6,Right,12,7,6,weekly,unmatch,sad,friend,self,he.tif,SAT,2,53,47,556,1,v,142
6.2.2,win,10/21/2020,14:20:22,18238,1,Female,20,6,Right,12,7,6,weekly,match,happy,friend,friend,he.tif,SAT,2,54,48,676,1,b,143
6.2.2,win,10/21/2020,14:20:22,18238,1,Female,20,6,Right,12,7,6,weekly,unmatch,line,self,friend,ve.tif,SAT,2,55,47,613,1,v,144
6.2.2,win,10/21/2020,14:20:22,18238,1,Female,20,6,Right,12,7,6,weekly,match,sad,self,self,ve.tif,SAT,2,56,48,904,1,b,145
6.2.2,win,10/21/2020,14:20:22,18238,1,Female,20,6,Right,12,7,6,weekly,unmatch,line,friend,self,he.tif,SAT,2,57,47,799,1,v,146
6.2.2,win,10/21/2020,14:20:22,18238,1,Female,20,6,Right,12,7,6,weekly,match,neutral,self,self,ve.tif,SAT,2,58,48,566,1,b,147
6.2.2,win,10/21/2020,14:20:22,18238,1,Female,20,6,Right,12,7,6,weekly,unmatch,sad,self,friend,ve.tif,SAT,2,59,47,655,1,v,148
6.2.2,win,10/21/2020,14:20:22,18238,1,Female,20,6,Right,12,7,6,weekly,unmatch,line,friend,self,he.tif,SAT,2,60,47,801,1,v,149
6.2.2,win,10/21/2020,14:20:22,18238,1,Female,20,6,Right,12,7,6,weekly,match,happy,self,self,ve.tif,SAT,2,61,48,636,1,b,150
6.2.2,win,10/21/2020,14:20:22,18238,1,Female,20,6,Right,12,7,6,weekly,match,neutral,friend,friend,he.tif,SAT,2,62,47,811,0,b,151
6.2.2,win,10/21/2020,14:20:22,18238,1,Female,20,6,Right,12,7,6,weekly,match,line,friend,friend,he.tif,SAT,2,63,48,1030,1,b,152
6.2.2,win,10/21/2020,14:20:22,18238,1,Female,20,6,Right,12,7,6,weekly,match,sad,self,self,ve.tif,SAT,2,64,48,596,1,b,153
6.2.2,win,10/21/2020,14:20:22,18238,1,Female,20,6,Right,12,7,6,weekly,unmatch,neutral,friend,self,he.tif,SAT,2,65,47,732,1,v,154
6.2.2,win,10/21/2020,14:20:22,18238,1,Female,20,6,Right,12,7,6,weekly,unmatch,sad,self,friend,ve.tif,SAT,2,66,48,756,0,v,155
6.2.2,win,10/21/2020,14:20:22,18238,1,Female,20,6,Right,12,7,6,weekly,match,happy,self,self,ve.tif,SAT,2,67,48,551,1,b,156
6.2.2,win,10/21/2020,14:20:22,18238,1,Female,20,6,Right,12,7,6,weekly,unmatch,line,self,friend,ve.tif,SAT,2,68,47,586,1,v,157
6.2.2,win,10/21/2020,14:20:22,18238,1,Female,20,6,Right,12,7,6,weekly,match,sad,friend,friend,he.tif,SAT,2,69,48,787,1,b,158
6.2.2,win,10/21/2020,14:20:22,18238,1,Female,20,6,Right,12,7,6,weekly,unmatch,sad,friend,self,he.tif,SAT,2,70,47,679,1,v,159
6.2.2,win,10/21/2020,14:20:22,18238,1,Female,20,6,Right,12,7,6,weekly,match,line,self,self,ve.tif,SAT,2,71,48,802,1,b,160
6.2.2,win,10/21/2020,14:20:22,18238,1,Female,20,6,Right,12,7,6,weekly,unmatch,sad,friend,self,he.tif,SAT,2,72,48,651,0,v,161
6.2.2,win,10/21/2020,14:20:22,18238,1,Female,20,6,Right,12,7,6,weekly,match,line,self,self,ve.tif,SAT,2,73,48,788,1,b,162
6.2.2,win,10/21/2020,14:20:22,18238,1,Female,20,6,Right,12,7,6,weekly,match,happy,friend,friend,he.tif,SAT,2,74,48,689,1,b,163
6.2.2,win,10/21/2020,14:20:22,18238,1,Female,20,6,Right,12,7,6,weekly,match,line,friend,friend,he.tif,SAT,2,75,47,647,0,b,164
6.2.2,win,10/21/2020,14:20:22,18238,1,Female,20,6,Right,12,7,6,weekly,unmatch,sad,friend,self,he.tif,SAT,2,76,47,815,1,v,165
6.2.2,win,10/21/2020,14:20:22,18238,1,Female,20,6,Right,12,7,6,weekly,match,line,self,self,ve.tif,SAT,2,77,48,805,1,b,166
6.2.2,win,10/21/2020,14:20:22,18238,1,Female,20,6,Right,12,7,6,weekly,unmatch,neutral,self,friend,ve.tif,SAT,2,78,47,729,1,v,167
6.2.2,win,10/21/2020,14:20:22,18238,1,Female,20,6,Right,12,7,6,weekly,unmatch,sad,self,friend,ve.tif,SAT,2,79,47,800,1,v,168
6.2.2,win,10/21/2020,14:20:22,18238,1,Female,20,6,Right,12,7,6,weekly,unmatch,happy,self,friend,ve.tif,SAT,2,80,47,933,1,v,169
6.2.2,win,10/21/2020,14:20:22,18238,1,Female,20,6,Right,12,7,6,weekly,match,line,self,self,ve.tif,SAT,3,1,48,620,1,b,170
6.2.2,win,10/21/2020,14:20:22,18238,1,Female,20,6,Right,12,7,6,weekly,unmatch,neutral,friend,self,he.tif,SAT,3,2,47,910,1,v,171
6.2.2,win,10/21/2020,14:20:22,18238,1,Female,20,6,Right,12,7,6,weekly,match,happy,friend,friend,he.tif,SAT,3,3,47,609,0,b,172
6.2.2,win,10/21/2020,14:20:22,18238,1,Female,20,6,Right,12,7,6,weekly,unmatch,neutral,friend,self,he.tif,SAT,3,4,47,720,1,v,173
6.2.2,win,10/21/2020,14:20:22,18238,1,Female,20,6,Right,12,7,6,weekly,match,neutral,friend,friend,he.tif,SAT,3,5,47,636,0,b,174
6.2.2,win,10/21/2020,14:20:22,18238,1,Female,20,6,Right,12,7,6,weekly,match,line,self,self,ve.tif,SAT,3,6,48,632,1,b,175
6.2.2,win,10/21/2020,14:20:22,18238,1,Female,20,6,Right,12,7,6,weekly,unmatch,sad,friend,self,he.tif,SAT,3,7,47,956,1,v,176
6.2.2,win,10/21/2020,14:20:22,18238,1,Female,20,6,Right,12,7,6,weekly,match,line,friend,friend,he.tif,SAT,3,8,48,457,1,b,177
6.2.2,win,10/21/2020,14:20:22,18238,1,Female,20,6,Right,12,7,6,weekly,match,sad,friend,friend,he.tif,SAT,3,9,48,747,1,b,178
6.2.2,win,10/21/2020,14:20:22,18238,1,Female,20,6,Right,12,7,6,weekly,match,neutral,friend,friend,he.tif,SAT,3,10,48,540,1,b,179
6.2.2,win,10/21/2020,14:20:22,18238,1,Female,20,6,Right,12,7,6,weekly,unmatch,line,self,friend,ve.tif,SAT,3,11,47,723,1,v,180
6.2.2,win,10/21/2020,14:20:22,18238,1,Female,20,6,Right,12,7,6,weekly,unmatch,neutral,self,friend,ve.tif,SAT,3,12,47,655,1,v,181
6.2.2,win,10/21/2020,14:20:22,18238,1,Female,20,6,Right,12,7,6,weekly,unmatch,line,friend,self,he.tif,SAT,3,13,47,680,1,v,182
6.2.2,win,10/21/2020,14:20:22,18238,1,Female,20,6,Right,12,7,6,weekly,match,line,friend,friend,he.tif,SAT,3,14,48,724,1,b,183
6.2.2,win,10/21/2020,14:20:22,18238,1,Female,20,6,Right,12,7,6,weekly,unmatch,line,friend,self,he.tif,SAT,3,15,47,786,1,v,184
6.2.2,win,10/21/2020,14:20:22,18238,1,Female,20,6,Right,12,7,6,weekly,unmatch,sad,friend,self,he.tif,SAT,3,16,47,876,1,v,185
6.2.2,win,10/21/2020,14:20:22,18238,1,Female,20,6,Right,12,7,6,weekly,unmatch,neutral,self,friend,ve.tif,SAT,3,17,47,942,1,v,186
6.2.2,win,10/21/2020,14:20:22,18238,1,Female,20,6,Right,12,7,6,weekly,unmatch,sad,self,friend,ve.tif,SAT,3,18,47,714,1,v,187
6.2.2,win,10/21/2020,14:20:22,18238,1,Female,20,6,Right,12,7,6,weekly,unmatch,sad,friend,self,he.tif,SAT,3,19,47,1008,1,v,188
6.2.2,win,10/21/2020,14:20:22,18238,1,Female,20,6,Right,12,7,6,weekly,match,sad,self,self,ve.tif,SAT,3,20,47,646,0,b,189
6.2.2,win,10/21/2020,14:20:22,18238,1,Female,20,6,Right,12,7,6,weekly,match,happy,self,self,ve.tif,SAT,3,21,48,582,1,b,190
6.2.2,win,10/21/2020,14:20:22,18238,1,Female,20,6,Right,12,7,6,weekly,match,line,friend,friend,he.tif,SAT,3,22,48,510,1,b,191
6.2.2,win,10/21/2020,14:20:22,18238,1,Female,20,6,Right,12,7,6,weekly,unmatch,neutral,friend,self,he.tif,SAT,3,23,47,728,1,v,192
6.2.2,win,10/21/2020,14:20:22,18238,1,Female,20,6,Right,12,7,6,weekly,unmatch,neutral,self,friend,ve.tif,SAT,3,24,47,781,1,v,193
6.2.2,win,10/21/2020,14:20:22,18238,1,Female,20,6,Right,12,7,6,weekly,unmatch,happy,self,friend,ve.tif,SAT,3,25,47,751,1,v,194
6.2.2,win,10/21/2020,14:20:22,18238,1,Female,20,6,Right,12,7,6,weekly,match,happy,friend,friend,he.tif,SAT,3,26,48,693,1,b,195
6.2.2,win,10/21/2020,14:20:22,18238,1,Female,20,6,Right,12,7,6,weekly,unmatch,neutral,self,friend,ve.tif,SAT,3,27,47,591,1,v,196
6.2.2,win,10/21/2020,14:20:22,18238,1,Female,20,6,Right,12,7,6,weekly,unmatch,sad,self,friend,ve.tif,SAT,3,28,47,522,1,v,197
6.2.2,win,10/21/2020,14:20:22,18238,1,Female,20,6,Right,12,7,6,weekly,match,sad,self,self,ve.tif,SAT,3,29,48,619,1,b,198
6.2.2,win,10/21/2020,14:20:22,18238,1,Female,20,6,Right,12,7,6,weekly,unmatch,neutral,self,friend,ve.tif,SAT,3,30,47,630,1,v,199
6.2.2,win,10/21/2020,14:20:22,18238,1,Female,20,6,Right,12,7,6,weekly,unmatch,neutral,friend,self,he.tif,SAT,3,31,47,617,1,v,200
6.2.2,win,10/21/2020,14:20:22,18238,1,Female,20,6,Right,12,7,6,weekly,match,neutral,self,self,ve.tif,SAT,3,32,48,354,1,b,201
6.2.2,win,10/21/2020,14:20:22,18238,1,Female,20,6,Right,12,7,6,weekly,match,line,self,self,ve.tif,SAT,3,33,48,598,1,b,202
6.2.2,win,10/21/2020,14:20:22,18238,1,Female,20,6,Right,12,7,6,weekly,match,line,self,self,ve.tif,SAT,3,34,48,444,1,b,203
6.2.2,win,10/21/2020,14:20:22,18238,1,Female,20,6,Right,12,7,6,weekly,match,happy,friend,friend,he.tif,SAT,3,35,47,584,0,b,204
6.2.2,win,10/21/2020,14:20:22,18238,1,Female,20,6,Right,12,7,6,weekly,unmatch,sad,self,friend,ve.tif,SAT,3,36,47,768,1,v,205
6.2.2,win,10/21/2020,14:20:22,18238,1,Female,20,6,Right,12,7,6,weekly,unmatch,happy,self,friend,ve.tif,SAT,3,37,47,446,1,v,206
6.2.2,win,10/21/2020,14:20:22,18238,1,Female,20,6,Right,12,7,6,weekly,match,neutral,self,self,ve.tif,SAT,3,38,48,683,1,b,207
6.2.2,win,10/21/2020,14:20:22,18238,1,Female,20,6,Right,12,7,6,weekly,unmatch,happy,friend,self,he.tif,SAT,3,39,47,740,1,v,208
6.2.2,win,10/21/2020,14:20:22,18238,1,Female,20,6,Right,12,7,6,weekly,unmatch,happy,friend,self,he.tif,SAT,3,40,47,785,1,v,209
6.2.2,win,10/21/2020,14:20:22,18238,1,Female,20,6,Right,12,7,6,weekly,unmatch,happy,self,friend,ve.tif,SAT,3,41,48,611,0,v,210
6.2.2,win,10/21/2020,14:20:22,18238,1,Female,20,6,Right,12,7,6,weekly,unmatch,line,friend,self,he.tif,SAT,3,42,47,658,1,v,211
6.2.2,win,10/21/2020,14:20:22,18238,1,Female,20,6,Right,12,7,6,weekly,match,sad,self,self,ve.tif,SAT,3,43,48,401,1,b,212
6.2.2,win,10/21/2020,14:20:22,18238,1,Female,20,6,Right,12,7,6,weekly,match,line,friend,friend,he.tif,SAT,3,44,48,409,1,b,213
6.2.2,win,10/21/2020,14:20:22,18238,1,Female,20,6,Right,12,7,6,weekly,match,happy,self,self,ve.tif,SAT,3,45,48,371,1,b,214
6.2.2,win,10/21/2020,14:20:22,18238,1,Female,20,6,Right,12,7,6,weekly,unmatch,line,self,friend,ve.tif,SAT,3,46,47,635,1,v,215
6.2.2,win,10/21/2020,14:20:22,18238,1,Female,20,6,Right,12,7,6,weekly,unmatch,line,self,friend,ve.tif,SAT,3,47,47,800,1,v,216
6.2.2,win,10/21/2020,14:20:22,18238,1,Female,20,6,Right,12,7,6,weekly,unmatch,happy,friend,self,he.tif,SAT,3,48,47,701,1,v,217
6.2.2,win,10/21/2020,14:20:22,18238,1,Female,20,6,Right,12,7,6,weekly,match,sad,friend,friend,he.tif,SAT,3,49,48,475,1,b,218
6.2.2,win,10/21/2020,14:20:22,18238,1,Female,20,6,Right,12,7,6,weekly,unmatch,happy,self,friend,ve.tif,SAT,3,50,47,758,1,v,219
6.2.2,win,10/21/2020,14:20:22,18238,1,Female,20,6,Right,12,7,6,weekly,unmatch,line,friend,self,he.tif,SAT,3,51,47,883,1,v,220
6.2.2,win,10/21/2020,14:20:22,18238,1,Female,20,6,Right,12,7,6,weekly,match,sad,friend,friend,he.tif,SAT,3,52,47,621,0,b,221
6.2.2,win,10/21/2020,14:20:22,18238,1,Female,20,6,Right,12,7,6,weekly,match,happy,friend,friend,he.tif,SAT,3,53,48,483,1,b,222
6.2.2,win,10/21/2020,14:20:22,18238,1,Female,20,6,Right,12,7,6,weekly,unmatch,line,self,friend,ve.tif,SAT,3,54,47,668,1,v,223
6.2.2,win,10/21/2020,14:20:22,18238,1,Female,20,6,Right,12,7,6,weekly,match,line,self,self,ve.tif,SAT,3,55,48,477,1,b,224
6.2.2,win,10/21/2020,14:20:22,18238,1,Female,20,6,Right,12,7,6,weekly,match,neutral,self,self,ve.tif,SAT,3,56,48,603,1,b,225
6.2.2,win,10/21/2020,14:20:22,18238,1,Female,20,6,Right,12,7,6,weekly,match,neutral,self,self,ve.tif,SAT,3,57,48,418,1,b,226
6.2.2,win,10/21/2020,14:20:22,18238,1,Female,20,6,Right,12,7,6,weekly,unmatch,sad,friend,self,he.tif,SAT,3,58,47,526,1,v,227
6.2.2,win,10/21/2020,14:20:22,18238,1,Female,20,6,Right,12,7,6,weekly,match,happy,self,self,ve.tif,SAT,3,59,48,473,1,b,228
6.2.2,win,10/21/2020,14:20:22,18238,1,Female,20,6,Right,12,7,6,weekly,match,sad,friend,friend,he.tif,SAT,3,60,47,718,0,b,229
6.2.2,win,10/21/2020,14:20:22,18238,1,Female,20,6,Right,12,7,6,weekly,match,happy,self,self,ve.tif,SAT,3,61,48,559,1,b,230
6.2.2,win,10/21/2020,14:20:22,18238,1,Female,20,6,Right,12,7,6,weekly,unmatch,neutral,friend,self,he.tif,SAT,3,62,47,648,1,v,231
6.2.2,win,10/21/2020,14:20:22,18238,1,Female,20,6,Right,12,7,6,weekly,match,line,friend,friend,he.tif,SAT,3,63,48,737,1,b,232
6.2.2,win,10/21/2020,14:20:22,18238,1,Female,20,6,Right,12,7,6,weekly,unmatch,line,friend,self,he.tif,SAT,3,64,47,1012,1,v,233
6.2.2,win,10/21/2020,14:20:22,18238,1,Female,20,6,Right,12,7,6,weekly,unmatch,happy,friend,self,he.tif,SAT,3,65,47,708,1,v,234
6.2.2,win,10/21/2020,14:20:22,18238,1,Female,20,6,Right,12,7,6,weekly,match,neutral,friend,friend,he.tif,SAT,3,66,47,897,0,b,235
6.2.2,win,10/21/2020,14:20:22,18238,1,Female,20,6,Right,12,7,6,weekly,unmatch,sad,self,friend,ve.tif,SAT,3,67,47,710,1,v,236
6.2.2,win,10/21/2020,14:20:22,18238,1,Female,20,6,Right,12,7,6,weekly,match,happy,self,self,ve.tif,SAT,3,68,48,511,1,b,237
6.2.2,win,10/21/2020,14:20:22,18238,1,Female,20,6,Right,12,7,6,weekly,unmatch,line,self,friend,ve.tif,SAT,3,69,47,959,1,v,238
6.2.2,win,10/21/2020,14:20:22,18238,1,Female,20,6,Right,12,7,6,weekly,match,sad,self,self,ve.tif,SAT,3,70,48,753,1,b,239
6.2.2,win,10/21/2020,14:20:22,18238,1,Female,20,6,Right,12,7,6,weekly,unmatch,happy,friend,self,he.tif,SAT,3,71,47,607,1,v,240
6.2.2,win,10/21/2020,14:20:22,18238,1,Female,20,6,Right,12,7,6,weekly,unmatch,sad,self,friend,ve.tif,SAT,3,72,47,685,1,v,241
6.2.2,win,10/21/2020,14:20:22,18238,1,Female,20,6,Right,12,7,6,weekly,match,neutral,friend,friend,he.tif,SAT,3,73,48,378,1,b,242
6.2.2,win,10/21/2020,14:20:22,18238,1,Female,20,6,Right,12,7,6,weekly,match,happy,friend,friend,he.tif,SAT,3,74,48,396,1,b,243
6.2.2,win,10/21/2020,14:20:22,18238,1,Female,20,6,Right,12,7,6,weekly,match,sad,friend,friend,he.tif,SAT,3,75,48,392,1,b,244
6.2.2,win,10/21/2020,14:20:22,18238,1,Female,20,6,Right,12,7,6,weekly,match,neutral,friend,friend,he.tif,SAT,3,76,48,474,1,b,245
6.2.2,win,10/21/2020,14:20:22,18238,1,Female,20,6,Right,12,7,6,weekly,unmatch,happy,self,friend,ve.tif,SAT,3,77,47,616,1,v,246
6.2.2,win,10/21/2020,14:20:22,18238,1,Female,20,6,Right,12,7,6,weekly,match,sad,self,self,ve.tif,SAT,3,78,48,416,1,b,247
6.2.2,win,10/21/2020,14:20:22,18238,1,Female,20,6,Right,12,7,6,weekly,unmatch,sad,friend,self,he.tif,SAT,3,79,47,675,1,v,248
6.2.2,win,10/21/2020,14:20:22,18238,1,Female,20,6,Right,12,7,6,weekly,match,neutral,self,self,ve.tif,SAT,3,80,48,620,1,b,249
6.2.2,win,10/21/2020,14:20:22,18238,1,Female,20,6,Right,12,7,6,weekly,unmatch,happy,friend,self,he.tif,SAT,4,1,47,655,1,v,250
6.2.2,win,10/21/2020,14:20:22,18238,1,Female,20,6,Right,12,7,6,weekly,unmatch,happy,friend,self,he.tif,SAT,4,2,47,691,1,v,251
6.2.2,win,10/21/2020,14:20:22,18238,1,Female,20,6,Right,12,7,6,weekly,unmatch,line,friend,self,he.tif,SAT,4,3,47,722,1,v,252
6.2.2,win,10/21/2020,14:20:22,18238,1,Female,20,6,Right,12,7,6,weekly,match,line,friend,friend,he.tif,SAT,4,4,48,785,1,b,253
6.2.2,win,10/21/2020,14:20:22,18238,1,Female,20,6,Right,12,7,6,weekly,unmatch,line,friend,self,he.tif,SAT,4,5,47,600,1,v,254
6.2.2,win,10/21/2020,14:20:22,18238,1,Female,20,6,Right,12,7,6,weekly,unmatch,sad,friend,self,he.tif,SAT,4,6,47,681,1,v,255
6.2.2,win,10/21/2020,14:20:22,18238,1,Female,20,6,Right,12,7,6,weekly,match,happy,friend,friend,he.tif,SAT,4,7,48,562,1,b,256
6.2.2,win,10/21/2020,14:20:22,18238,1,Female,20,6,Right,12,7,6,weekly,match,line,friend,friend,he.tif,SAT,4,8,48,534,1,b,257
6.2.2,win,10/21/2020,14:20:22,18238,1,Female,20,6,Right,12,7,6,weekly,unmatch,happy,self,friend,ve.tif,SAT,4,9,47,575,1,v,258
6.2.2,win,10/21/2020,14:20:22,18238,1,Female,20,6,Right,12,7,6,weekly,unmatch,line,self,friend,ve.tif,SAT,4,10,47,636,1,v,259
6.2.2,win,10/21/2020,14:20:22,18238,1,Female,20,6,Right,12,7,6,weekly,match,neutral,friend,friend,he.tif,SAT,4,11,48,489,1,b,260
6.2.2,win,10/21/2020,14:20:22,18238,1,Female,20,6,Right,12,7,6,weekly,unmatch,line,self,friend,ve.tif,SAT,4,12,47,583,1,v,261
6.2.2,win,10/21/2020,14:20:22,18238,1,Female,20,6,Right,12,7,6,weekly,match,line,friend,friend,he.tif,SAT,4,13,48,575,1,b,262
6.2.2,win,10/21/2020,14:20:22,18238,1,Female,20,6,Right,12,7,6,weekly,unmatch,neutral,friend,self,he.tif,SAT,4,14,47,711,1,v,263
6.2.2,win,10/21/2020,14:20:22,18238,1,Female,20,6,Right,12,7,6,weekly,match,neutral,self,self,ve.tif,SAT,4,15,48,727,1,b,264
6.2.2,win,10/21/2020,14:20:22,18238,1,Female,20,6,Right,12,7,6,weekly,match,neutral,self,self,ve.tif,SAT,4,16,48,366,1,b,265
6.2.2,win,10/21/2020,14:20:22,18238,1,Female,20,6,Right,12,7,6,weekly,match,sad,friend,friend,he.tif,SAT,4,17,48,642,1,b,266
6.2.2,win,10/21/2020,14:20:22,18238,1,Female,20,6,Right,12,7,6,weekly,unmatch,line,friend,self,he.tif,SAT,4,18,47,630,1,v,267
6.2.2,win,10/21/2020,14:20:22,18238,1,Female,20,6,Right,12,7,6,weekly,match,line,self,self,ve.tif,SAT,4,19,48,694,1,b,268
6.2.2,win,10/21/2020,14:20:22,18238,1,Female,20,6,Right,12,7,6,weekly,match,line,friend,friend,he.tif,SAT,4,20,48,565,1,b,269
6.2.2,win,10/21/2020,14:20:22,18238,1,Female,20,6,Right,12,7,6,weekly,unmatch,neutral,self,friend,ve.tif,SAT,4,21,47,722,1,v,270
6.2.2,win,10/21/2020,14:20:22,18238,1,Female,20,6,Right,12,7,6,weekly,unmatch,line,self,friend,ve.tif,SAT,4,22,47,919,1,v,271
6.2.2,win,10/21/2020,14:20:22,18238,1,Female,20,6,Right,12,7,6,weekly,unmatch,sad,friend,self,he.tif,SAT,4,23,47,886,1,v,272
6.2.2,win,10/21/2020,14:20:22,18238,1,Female,20,6,Right,12,7,6,weekly,unmatch,sad,self,friend,ve.tif,SAT,4,24,47,716,1,v,273
6.2.2,win,10/21/2020,14:20:22,18238,1,Female,20,6,Right,12,7,6,weekly,match,happy,friend,friend,he.tif,SAT,4,25,47,502,0,b,274
6.2.2,win,10/21/2020,14:20:22,18238,1,Female,20,6,Right,12,7,6,weekly,match,happy,self,self,ve.tif,SAT,4,26,48,507,1,b,275
6.2.2,win,10/21/2020,14:20:22,18238,1,Female,20,6,Right,12,7,6,weekly,match,sad,friend,friend,he.tif,SAT,4,27,48,621,1,b,276
6.2.2,win,10/21/2020,14:20:22,18238,1,Female,20,6,Right,12,7,6,weekly,match,happy,friend,friend,he.tif,SAT,4,28,47,567,0,b,277
6.2.2,win,10/21/2020,14:20:22,18238,1,Female,20,6,Right,12,7,6,weekly,unmatch,neutral,friend,self,he.tif,SAT,4,29,48,629,0,v,278
6.2.2,win,10/21/2020,14:20:22,18238,1,Female,20,6,Right,12,7,6,weekly,match,happy,self,self,ve.tif,SAT,4,30,48,494,1,b,279
6.2.2,win,10/21/2020,14:20:22,18238,1,Female,20,6,Right,12,7,6,weekly,unmatch,sad,friend,self,he.tif,SAT,4,31,48,798,0,v,280
6.2.2,win,10/21/2020,14:20:22,18238,1,Female,20,6,Right,12,7,6,weekly,match,neutral,friend,friend,he.tif,SAT,4,32,47,622,0,b,281
6.2.2,win,10/21/2020,14:20:22,18238,1,Female,20,6,Right,12,7,6,weekly,unmatch,neutral,friend,self,he.tif,SAT,4,33,47,755,1,v,282
6.2.2,win,10/21/2020,14:20:22,18238,1,Female,20,6,Right,12,7,6,weekly,match,neutral,self,self,ve.tif,SAT,4,34,48,568,1,b,283
6.2.2,win,10/21/2020,14:20:22,18238,1,Female,20,6,Right,12,7,6,weekly,match,sad,self,self,ve.tif,SAT,4,35,48,556,1,b,284
6.2.2,win,10/21/2020,14:20:22,18238,1,Female,20,6,Right,12,7,6,weekly,unmatch,happy,self,friend,ve.tif,SAT,4,36,47,571,1,v,285
6.2.2,win,10/21/2020,14:20:22,18238,1,Female,20,6,Right,12,7,6,weekly,match,happy,friend,friend,he.tif,SAT,4,37,48,599,1,b,286
6.2.2,win,10/21/2020,14:20:22,18238,1,Female,20,6,Right,12,7,6,weekly,unmatch,happy,friend,self,he.tif,SAT,4,38,47,555,1,v,287
6.2.2,win,10/21/2020,14:20:22,18238,1,Female,20,6,Right,12,7,6,weekly,unmatch,sad,self,friend,ve.tif,SAT,4,39,47,728,1,v,288
6.2.2,win,10/21/2020,14:20:22,18238,1,Female,20,6,Right,12,7,6,weekly,match,neutral,self,self,ve.tif,SAT,4,40,48,559,1,b,289
6.2.2,win,10/21/2020,14:20:22,18238,1,Female,20,6,Right,12,7,6,weekly,unmatch,line,friend,self,he.tif,SAT,4,41,47,778,1,v,290
6.2.2,win,10/21/2020,14:20:22,18238,1,Female,20,6,Right,12,7,6,weekly,match,neutral,friend,friend,he.tif,SAT,4,42,48,483,1,b,291
6.2.2,win,10/21/2020,14:20:22,18238,1,Female,20,6,Right,12,7,6,weekly,match,neutral,self,self,ve.tif,SAT,4,43,48,593,1,b,292
6.2.2,win,10/21/2020,14:20:22,18238,1,Female,20,6,Right,12,7,6,weekly,match,sad,self,self,ve.tif,SAT,4,44,48,410,1,b,293
6.2.2,win,10/21/2020,14:20:22,18238,1,Female,20,6,Right,12,7,6,weekly,unmatch,neutral,self,friend,ve.tif,SAT,4,45,47,543,1,v,294
6.2.2,win,10/21/2020,14:20:22,18238,1,Female,20,6,Right,12,7,6,weekly,match,line,friend,friend,he.tif,SAT,4,46,48,479,1,b,295
6.2.2,win,10/21/2020,14:20:22,18238,1,Female,20,6,Right,12,7,6,weekly,match,line,self,self,ve.tif,SAT,4,47,48,518,1,b,296
6.2.2,win,10/21/2020,14:20:22,18238,1,Female,20,6,Right,12,7,6,weekly,unmatch,neutral,self,friend,ve.tif,SAT,4,48,47,583,1,v,297
6.2.2,win,10/21/2020,14:20:22,18238,1,Female,20,6,Right,12,7,6,weekly,unmatch,neutral,friend,self,he.tif,SAT,4,49,48,391,0,v,298
6.2.2,win,10/21/2020,14:20:22,18238,1,Female,20,6,Right,12,7,6,weekly,unmatch,line,self,friend,ve.tif,SAT,4,50,47,569,1,v,299
6.2.2,win,10/21/2020,14:20:22,18238,1,Female,20,6,Right,12,7,6,weekly,unmatch,happy,friend,self,he.tif,SAT,4,51,47,523,1,v,300
6.2.2,win,10/21/2020,14:20:22,18238,1,Female,20,6,Right,12,7,6,weekly,unmatch,sad,friend,self,he.tif,SAT,4,52,48,537,0,v,301
6.2.2,win,10/21/2020,14:20:22,18238,1,Female,20,6,Right,12,7,6,weekly,match,sad,friend,friend,he.tif,SAT,4,53,48,569,1,b,302
6.2.2,win,10/21/2020,14:20:22,18238,1,Female,20,6,Right,12,7,6,weekly,unmatch,happy,self,friend,ve.tif,SAT,4,54,47,696,1,v,303
6.2.2,win,10/21/2020,14:20:22,18238,1,Female,20,6,Right,12,7,6,weekly,match,sad,self,self,ve.tif,SAT,4,55,48,708,1,b,304
6.2.2,win,10/21/2020,14:20:22,18238,1,Female,20,6,Right,12,7,6,weekly,unmatch,happy,friend,self,he.tif,SAT,4,56,47,665,1,v,305
6.2.2,win,10/21/2020,14:20:22,18238,1,Female,20,6,Right,12,7,6,weekly,match,happy,self,self,ve.tif,SAT,4,57,48,521,1,b,306
6.2.2,win,10/21/2020,14:20:22,18238,1,Female,20,6,Right,12,7,6,weekly,match,sad,self,self,ve.tif,SAT,4,58,48,647,1,b,307
6.2.2,win,10/21/2020,14:20:22,18238,1,Female,20,6,Right,12,7,6,weekly,unmatch,sad,self,friend,ve.tif,SAT,4,59,47,642,1,v,308
6.2.2,win,10/21/2020,14:20:22,18238,1,Female,20,6,Right,12,7,6,weekly,match,sad,friend,friend,he.tif,SAT,4,60,48,632,1,b,309
6.2.2,win,10/21/2020,14:20:22,18238,1,Female,20,6,Right,12,7,6,weekly,match,neutral,friend,friend,he.tif,SAT,4,61,48,386,1,b,310
6.2.2,win,10/21/2020,14:20:22,18238,1,Female,20,6,Right,12,7,6,weekly,unmatch,happy,self,friend,ve.tif,SAT,4,62,47,598,1,v,311
6.2.2,win,10/21/2020,14:20:22,18238,1,Female,20,6,Right,12,7,6,weekly,match,happy,friend,friend,he.tif,SAT,4,63,48,430,1,b,312
6.2.2,win,10/21/2020,14:20:22,18238,1,Female,20,6,Right,12,7,6,weekly,unmatch,neutral,self,friend,ve.tif,SAT,4,64,47,522,1,v,313
6.2.2,win,10/21/2020,14:20:22,18238,1,Female,20,6,Right,12,7,6,weekly,unmatch,neutral,friend,self,he.tif,SAT,4,65,47,523,1,v,314
6.2.2,win,10/21/2020,14:20:22,18238,1,Female,20,6,Right,12,7,6,weekly,match,sad,self,self,ve.tif,SAT,4,66,48,591,1,b,315
6.2.2,win,10/21/2020,14:20:22,18238,1,Female,20,6,Right,12,7,6,weekly,match,happy,self,self,ve.tif,SAT,4,67,48,369,1,b,316
6.2.2,win,10/21/2020,14:20:22,18238,1,Female,20,6,Right,12,7,6,weekly,unmatch,neutral,self,friend,ve.tif,SAT,4,68,47,513,1,v,317
6.2.2,win,10/21/2020,14:20:22,18238,1,Female,20,6,Right,12,7,6,weekly,unmatch,sad,friend,self,he.tif,SAT,4,69,47,567,1,v,318
6.2.2,win,10/21/2020,14:20:22,18238,1,Female,20,6,Right,12,7,6,weekly,match,line,self,self,ve.tif,SAT,4,70,48,599,1,b,319
6.2.2,win,10/21/2020,14:20:22,18238,1,Female,20,6,Right,12,7,6,weekly,unmatch,sad,self,friend,ve.tif,SAT,4,71,47,548,1,v,320
6.2.2,win,10/21/2020,14:20:22,18238,1,Female,20,6,Right,12,7,6,weekly,match,sad,friend,friend,he.tif,SAT,4,72,48,586,1,b,321
6.2.2,win,10/21/2020,14:20:22,18238,1,Female,20,6,Right,12,7,6,weekly,unmatch,sad,self,friend,ve.tif,SAT,4,73,47,588,1,v,322
6.2.2,win,10/21/2020,14:20:22,18238,1,Female,20,6,Right,12,7,6,weekly,unmatch,line,friend,self,he.tif,SAT,4,74,47,784,1,v,323
6.2.2,win,10/21/2020,14:20:22,18238,1,Female,20,6,Right,12,7,6,weekly,match,neutral,friend,friend,he.tif,SAT,4,75,48,510,1,b,324
6.2.2,win,10/21/2020,14:20:22,18238,1,Female,20,6,Right,12,7,6,weekly,match,happy,self,self,ve.tif,SAT,4,76,47,433,0,b,325
6.2.2,win,10/21/2020,14:20:22,18238,1,Female,20,6,Right,12,7,6,weekly,match,line,self,self,ve.tif,SAT,4,77,48,484,1,b,326
6.2.2,win,10/21/2020,14:20:22,18238,1,Female,20,6,Right,12,7,6,weekly,match,line,self,self,ve.tif,SAT,4,78,48,850,1,b,327
6.2.2,win,10/21/2020,14:20:22,18238,1,Female,20,6,Right,12,7,6,weekly,unmatch,line,self,friend,ve.tif,SAT,4,79,47,523,1,v,328
6.2.2,win,10/21/2020,14:20:22,18238,1,Female,20,6,Right,12,7,6,weekly,unmatch,happy,self,friend,ve.tif,SAT,4,80,47,752,1,v,329
6.2.2,win,10/21/2020,14:20:22,18238,1,Female,20,6,Right,12,7,6,weekly,unmatch,happy,self,friend,ve.tif,BDI,4,80,0,129490,1,v,330
6.2.2,win,10/21/2020,14:20:22,18238,1,Female,20,6,Right,12,7,6,weekly,unmatch,happy,self,friend,ve.tif,BDI,4,80,0,129490,1,v,331
6.2.2,win,10/21/2020,14:20:22,18238,1,Female,20,6,Right,12,7,6,weekly,unmatch,happy,self,friend,ve.tif,BDI,4,80,0,129490,1,v,332
6.2.2,win,10/21/2020,14:20:22,18238,1,Female,20,6,Right,12,7,6,weekly,unmatch,happy,self,friend,ve.tif,BDI,4,80,0,129490,1,v,333
6.2.2,win,10/21/2020,14:20:22,18238,1,Female,20,6,Right,12,7,6,weekly,unmatch,happy,self,friend,ve.tif,BDI,4,80,0,129490,1,v,334
6.2.2,win,10/21/2020,14:20:22,18238,1,Female,20,6,Right,12,7,6,weekly,unmatch,happy,self,friend,ve.tif,BDI,4,80,0,129490,1,v,335
6.2.2,win,10/21/2020,14:20:22,18238,1,Female,20,6,Right,12,7,6,weekly,unmatch,happy,self,friend,ve.tif,BDI,4,80,0,129490,1,v,336
6.2.2,win,10/21/2020,14:20:22,18238,1,Female,20,6,Right,12,7,6,weekly,unmatch,happy,self,friend,ve.tif,BDI,4,80,1,129490,1,v,337
6.2.2,win,10/21/2020,14:20:22,18238,1,Female,20,6,Right,12,7,6,weekly,unmatch,happy,self,friend,ve.tif,BDI,4,80,1,129490,1,v,338
6.2.2,win,10/21/2020,14:20:22,18238,1,Female,20,6,Right,12,7,6,weekly,unmatch,happy,self,friend,ve.tif,BDI,4,80,1,129490,1,v,339
6.2.2,win,10/21/2020,14:20:22,18238,1,Female,20,6,Right,12,7,6,weekly,unmatch,happy,self,friend,ve.tif,BDI,4,80,1,129490,1,v,340
6.2.2,win,10/21/2020,14:20:22,18238,1,Female,20,6,Right,12,7,6,weekly,unmatch,happy,self,friend,ve.tif,BDI,4,80,0,129490,1,v,341
6.2.2,win,10/21/2020,14:20:22,18238,1,Female,20,6,Right,12,7,6,weekly,unmatch,happy,self,friend,ve.tif,BDI,4,80,0,129490,1,v,342
6.2.2,win,10/21/2020,14:20:22,18238,1,Female,20,6,Right,12,7,6,weekly,unmatch,happy,self,friend,ve.tif,BDI,4,80,0,129490,1,v,343
6.2.2,win,10/21/2020,14:20:22,18238,1,Female,20,6,Right,12,7,6,weekly,unmatch,happy,self,friend,ve.tif,BDI,4,80,1,129490,1,v,344
6.2.2,win,10/21/2020,14:20:22,18238,1,Female,20,6,Right,12,7,6,weekly,unmatch,happy,self,friend,ve.tif,BDI,4,80,1,129490,1,v,345
6.2.2,win,10/21/2020,14:20:22,18238,1,Female,20,6,Right,12,7,6,weekly,unmatch,happy,self,friend,ve.tif,BDI,4,80,0,129490,1,v,346
6.2.2,win,10/21/2020,14:20:22,18238,1,Female,20,6,Right,12,7,6,weekly,unmatch,happy,self,friend,ve.tif,BDI,4,80,0,129490,1,v,347
6.2.2,win,10/21/2020,14:20:22,18238,1,Female,20,6,Right,12,7,6,weekly,unmatch,happy,self,friend,ve.tif,BDI,4,80,0,129490,1,v,348
6.2.2,win,10/21/2020,14:20:22,18238,1,Female,20,6,Right,12,7,6,weekly,unmatch,happy,self,friend,ve.tif,BDI,4,80,0,129490,1,v,349
6.2.2,win,10/21/2020,14:20:22,18238,1,Female,20,6,Right,12,7,6,weekly,unmatch,happy,self,friend,ve.tif,PWB,4,80,1,102786,1,v,350
6.2.2,win,10/21/2020,14:20:22,18238,1,Female,20,6,Right,12,7,6,weekly,unmatch,happy,self,friend,ve.tif,PWB,4,80,1,102786,1,v,351
6.2.2,win,10/21/2020,14:20:22,18238,1,Female,20,6,Right,12,7,6,weekly,unmatch,happy,self,friend,ve.tif,PWB,4,80,1,102786,1,v,352
6.2.2,win,10/21/2020,14:20:22,18238,1,Female,20,6,Right,12,7,6,weekly,unmatch,happy,self,friend,ve.tif,PWB,4,80,7,102786,1,v,353
6.2.2,win,10/21/2020,14:20:22,18238,1,Female,20,6,Right,12,7,6,weekly,unmatch,happy,self,friend,ve.tif,PWB,4,80,7,102786,1,v,354
6.2.2,win,10/21/2020,14:20:22,18238,1,Female,20,6,Right,12,7,6,weekly,unmatch,happy,self,friend,ve.tif,PWB,4,80,7,102786,1,v,355
6.2.2,win,10/21/2020,14:20:22,18238,1,Female,20,6,Right,12,7,6,weekly,unmatch,happy,self,friend,ve.tif,PWB,4,80,3,102786,1,v,356
6.2.2,win,10/21/2020,14:20:22,18238,1,Female,20,6,Right,12,7,6,weekly,unmatch,happy,self,friend,ve.tif,PWB,4,80,2,102786,1,v,357
6.2.2,win,10/21/2020,14:20:22,18238,1,Female,20,6,Right,12,7,6,weekly,unmatch,happy,self,friend,ve.tif,PWB,4,80,2,102786,1,v,358
6.2.2,win,10/21/2020,14:20:22,18238,1,Female,20,6,Right,12,7,6,weekly,unmatch,happy,self,friend,ve.tif,PWB,4,80,7,102786,1,v,359
6.2.2,win,10/21/2020,14:20:22,18238,1,Female,20,6,Right,12,7,6,weekly,unmatch,happy,self,friend,ve.tif,PWB,4,80,1,102786,1,v,360
6.2.2,win,10/21/2020,14:20:22,18238,1,Female,20,6,Right,12,7,6,weekly,unmatch,happy,self,friend,ve.tif,PWB,4,80,1,102786,1,v,361
