Shape,.thisRepN,.thisTrialN,.thisN,.thisIndex,resp,rt,P1key,P2key,StrangerKey,WeKey,OtherKey,P1Shape,P2Shape,StrangerShape,StrangerTeamShape,corr,PairNumber,P2Age,P1Age
Other,0,0,0,4,v,9.144702864,n,c,m,b,v,TRIANGLE,DIAMOND,CIRCLE,PENTAGON,1,1,21,24
Other,0,1,1,4,v,4.486624558,n,c,m,b,v,TRIANGLE,DIAMOND,CIRCLE,PENTAGON,1,1,21,24
P2,0,2,2,1,c,4.206934329,n,c,m,b,v,TRIANGLE,DIAMOND,CIRCLE,PENTAGON,1,1,21,24
P1,0,3,3,0,n,3.762490806,n,c,m,b,v,TRIANGLE,DIAMOND,CIRCLE,PENTAGON,1,1,21,24
We,0,4,4,3,b,3.111511301,n,c,m,b,v,TRIANGLE,DIAMOND,CIRCLE,PENTAGON,1,1,21,24
Other,1,0,5,4,v,1.992664717,n,c,m,b,v,TRIANGLE,DIAMOND,CIRCLE,PENTAGON,1,1,21,24
P2,1,1,6,1,c,3.588994391,n,c,m,b,v,TRIANGLE,DIAMOND,CIRCLE,PENTAGON,1,1,21,24
We,1,2,7,3,b,3.889249073,n,c,m,b,v,TRIANGLE,DIAMOND,CIRCLE,PENTAGON,1,1,21,24
Other,1,3,8,4,v,2.417294686,n,c,m,b,v,TRIANGLE,DIAMOND,CIRCLE,PENTAGON,1,1,21,24
Stranger,1,4,9,2,m,4.746522946,n,c,m,b,v,TRIANGLE,DIAMOND,CIRCLE,PENTAGON,1,1,21,24
P1,2,0,10,0,n,5.752120738,n,c,m,b,v,TRIANGLE,DIAMOND,CIRCLE,PENTAGON,1,1,21,24
P2,2,1,11,1,c,4.765729306,n,c,m,b,v,TRIANGLE,DIAMOND,CIRCLE,PENTAGON,1,1,21,24
We,2,2,12,3,b,3.594757602,n,c,m,b,v,TRIANGLE,DIAMOND,CIRCLE,PENTAGON,1,1,21,24
We,2,3,13,3,b,1.495024207,n,c,m,b,v,TRIANGLE,DIAMOND,CIRCLE,PENTAGON,1,1,21,24
P2,2,4,14,1,c,1.287189746,n,c,m,b,v,TRIANGLE,DIAMOND,CIRCLE,PENTAGON,1,1,21,24
P2,3,0,15,1,c,1.43936765,n,c,m,b,v,TRIANGLE,DIAMOND,CIRCLE,PENTAGON,1,1,21,24
Stranger,3,1,16,2,m,2.145277685,n,c,m,b,v,TRIANGLE,DIAMOND,CIRCLE,PENTAGON,1,1,21,24
P2,3,2,17,1,c,1.447465676,n,c,m,b,v,TRIANGLE,DIAMOND,CIRCLE,PENTAGON,1,1,21,24
Stranger,3,3,18,2,m,4.680925462,n,c,m,b,v,TRIANGLE,DIAMOND,CIRCLE,PENTAGON,1,1,21,24
Stranger,3,4,19,2,m,1.339179846,n,c,m,b,v,TRIANGLE,DIAMOND,CIRCLE,PENTAGON,1,1,21,24
P2,4,0,20,1,c,2.385268557,n,c,m,b,v,TRIANGLE,DIAMOND,CIRCLE,PENTAGON,1,1,21,24
P2,4,1,21,1,c,1.165409443,n,c,m,b,v,TRIANGLE,DIAMOND,CIRCLE,PENTAGON,1,1,21,24
Stranger,4,2,22,2,m,4.394247764,n,c,m,b,v,TRIANGLE,DIAMOND,CIRCLE,PENTAGON,1,1,21,24
P2,4,3,23,1,c,1.398227294,n,c,m,b,v,TRIANGLE,DIAMOND,CIRCLE,PENTAGON,1,1,21,24
P1,4,4,24,0,n,2.265650544,n,c,m,b,v,TRIANGLE,DIAMOND,CIRCLE,PENTAGON,1,1,21,24
We,5,0,25,3,b,2.184976646,n,c,m,b,v,TRIANGLE,DIAMOND,CIRCLE,PENTAGON,1,1,21,24
Other,5,1,26,4,v,1.452993589,n,c,m,b,v,TRIANGLE,DIAMOND,CIRCLE,PENTAGON,1,1,21,24
P1,5,2,27,0,n,2.270543628,n,c,m,b,v,TRIANGLE,DIAMOND,CIRCLE,PENTAGON,1,1,21,24
Stranger,5,3,28,2,m,3.871263812,n,c,m,b,v,TRIANGLE,DIAMOND,CIRCLE,PENTAGON,1,1,21,24
P1,5,4,29,0,n,2.400213505,n,c,m,b,v,TRIANGLE,DIAMOND,CIRCLE,PENTAGON,1,1,21,24
P2,6,0,30,1,c,1.531713649,n,c,m,b,v,TRIANGLE,DIAMOND,CIRCLE,PENTAGON,1,1,21,24
Stranger,6,1,31,2,m,2.681792036,n,c,m,b,v,TRIANGLE,DIAMOND,CIRCLE,PENTAGON,1,1,21,24
We,6,2,32,3,b,2.041990744,n,c,m,b,v,TRIANGLE,DIAMOND,CIRCLE,PENTAGON,1,1,21,24
We,6,3,33,3,b,2.356067183,n,c,m,b,v,TRIANGLE,DIAMOND,CIRCLE,PENTAGON,1,1,21,24
Other,6,4,34,4,v,1.953693362,n,c,m,b,v,TRIANGLE,DIAMOND,CIRCLE,PENTAGON,1,1,21,24
P1,7,0,35,0,n,2.239157066,n,c,m,b,v,TRIANGLE,DIAMOND,CIRCLE,PENTAGON,1,1,21,24
P1,7,1,36,0,n,0.88129041,n,c,m,b,v,TRIANGLE,DIAMOND,CIRCLE,PENTAGON,1,1,21,24
Stranger,7,2,37,2,m,1.161375433,n,c,m,b,v,TRIANGLE,DIAMOND,CIRCLE,PENTAGON,1,1,21,24
We,7,3,38,3,b,1.544844516,n,c,m,b,v,TRIANGLE,DIAMOND,CIRCLE,PENTAGON,1,1,21,24
Stranger,7,4,39,2,m,2.151009707,n,c,m,b,v,TRIANGLE,DIAMOND,CIRCLE,PENTAGON,1,1,21,24
Other,8,0,40,4,v,1.51633956,n,c,m,b,v,TRIANGLE,DIAMOND,CIRCLE,PENTAGON,1,1,21,24
Other,8,1,41,4,v,0.763085367,n,c,m,b,v,TRIANGLE,DIAMOND,CIRCLE,PENTAGON,1,1,21,24
Other,8,2,42,4,v,0.776539176,n,c,m,b,v,TRIANGLE,DIAMOND,CIRCLE,PENTAGON,1,1,21,24
We,8,3,43,3,b,1.269200932,n,c,m,b,v,TRIANGLE,DIAMOND,CIRCLE,PENTAGON,1,1,21,24
Stranger,8,4,44,2,m,2.206162506,n,c,m,b,v,TRIANGLE,DIAMOND,CIRCLE,PENTAGON,1,1,21,24
We,9,0,45,3,b,1.7292191,n,c,m,b,v,TRIANGLE,DIAMOND,CIRCLE,PENTAGON,1,1,21,24
Other,9,1,46,4,v,1.222349478,n,c,m,b,v,TRIANGLE,DIAMOND,CIRCLE,PENTAGON,1,1,21,24
P1,9,2,47,0,m,3.217182406,n,c,m,b,v,TRIANGLE,DIAMOND,CIRCLE,PENTAGON,0,1,21,24
P1,9,3,48,0,n,2.476116706,n,c,m,b,v,TRIANGLE,DIAMOND,CIRCLE,PENTAGON,1,1,21,24
P1,9,4,49,0,n,0.772897196,n,c,m,b,v,TRIANGLE,DIAMOND,CIRCLE,PENTAGON,1,1,21,24
Other,0,0,0,4,b,16.85458481,m,c,v,n,b,TRIANGLE,CIRCLE,PENTAGON,DIAMOND,1,10,36,26
We,0,1,1,3,n,7.152890234,m,c,v,n,b,TRIANGLE,CIRCLE,PENTAGON,DIAMOND,1,10,36,26
Other,0,2,2,4,b,3.710719983,m,c,v,n,b,TRIANGLE,CIRCLE,PENTAGON,DIAMOND,1,10,36,26
P1,0,3,3,0,m,4.774210104,m,c,v,n,b,TRIANGLE,CIRCLE,PENTAGON,DIAMOND,1,10,36,26
P1,0,4,4,0,m,19.3332882,m,c,v,n,b,TRIANGLE,CIRCLE,PENTAGON,DIAMOND,1,10,36,26
Other,1,0,5,4,b,5.466486456,m,c,v,n,b,TRIANGLE,CIRCLE,PENTAGON,DIAMOND,1,10,36,26
We,1,1,6,3,n,4.763606309,m,c,v,n,b,TRIANGLE,CIRCLE,PENTAGON,DIAMOND,1,10,36,26
Stranger,1,2,7,2,v,4.680533573,m,c,v,n,b,TRIANGLE,CIRCLE,PENTAGON,DIAMOND,1,10,36,26
Other,1,3,8,4,b,3.864851453,m,c,v,n,b,TRIANGLE,CIRCLE,PENTAGON,DIAMOND,1,10,36,26
Stranger,1,4,9,2,v,4.601830822,m,c,v,n,b,TRIANGLE,CIRCLE,PENTAGON,DIAMOND,1,10,36,26
P2,2,0,10,1,c,4.717505323,m,c,v,n,b,TRIANGLE,CIRCLE,PENTAGON,DIAMOND,1,10,36,26
Stranger,2,1,11,2,v,5.822300462,m,c,v,n,b,TRIANGLE,CIRCLE,PENTAGON,DIAMOND,1,10,36,26
Other,2,2,12,4,b,4.177371464,m,c,v,n,b,TRIANGLE,CIRCLE,PENTAGON,DIAMOND,1,10,36,26
P2,2,3,13,1,c,7.670139809,m,c,v,n,b,TRIANGLE,CIRCLE,PENTAGON,DIAMOND,1,10,36,26
Stranger,2,4,14,2,v,4.205553106,m,c,v,n,b,TRIANGLE,CIRCLE,PENTAGON,DIAMOND,1,10,36,26
P1,3,0,15,0,m,3.521216868,m,c,v,n,b,TRIANGLE,CIRCLE,PENTAGON,DIAMOND,1,10,36,26
P1,3,1,16,0,m,1.856082664,m,c,v,n,b,TRIANGLE,CIRCLE,PENTAGON,DIAMOND,1,10,36,26
We,3,2,17,3,n,4.289544529,m,c,v,n,b,TRIANGLE,CIRCLE,PENTAGON,DIAMOND,1,10,36,26
We,3,3,18,3,n,3.02586696,m,c,v,n,b,TRIANGLE,CIRCLE,PENTAGON,DIAMOND,1,10,36,26
Other,3,4,19,4,b,10.77281885,m,c,v,n,b,TRIANGLE,CIRCLE,PENTAGON,DIAMOND,1,10,36,26
P1,4,0,20,0,m,2.979979952,m,c,v,n,b,TRIANGLE,CIRCLE,PENTAGON,DIAMOND,1,10,36,26
We,4,1,21,3,n,3.368921195,m,c,v,n,b,TRIANGLE,CIRCLE,PENTAGON,DIAMOND,1,10,36,26
P1,4,2,22,0,m,3.325760247,m,c,v,n,b,TRIANGLE,CIRCLE,PENTAGON,DIAMOND,1,10,36,26
Stranger,4,3,23,2,v,5.284450886,m,c,v,n,b,TRIANGLE,CIRCLE,PENTAGON,DIAMOND,1,10,36,26
P2,4,4,24,1,c,18.05915211,m,c,v,n,b,TRIANGLE,CIRCLE,PENTAGON,DIAMOND,1,10,36,26
P1,5,0,25,0,m,3.925555111,m,c,v,n,b,TRIANGLE,CIRCLE,PENTAGON,DIAMOND,1,10,36,26
P2,5,1,26,1,c,3.076576781,m,c,v,n,b,TRIANGLE,CIRCLE,PENTAGON,DIAMOND,1,10,36,26
P2,5,2,27,1,c,2.341349117,m,c,v,n,b,TRIANGLE,CIRCLE,PENTAGON,DIAMOND,1,10,36,26
Stranger,5,3,28,2,v,2.067557298,m,c,v,n,b,TRIANGLE,CIRCLE,PENTAGON,DIAMOND,1,10,36,26
We,5,4,29,3,n,3.884398931,m,c,v,n,b,TRIANGLE,CIRCLE,PENTAGON,DIAMOND,1,10,36,26
P1,6,0,30,0,m,2.654537516,m,c,v,n,b,TRIANGLE,CIRCLE,PENTAGON,DIAMOND,1,10,36,26
P2,6,1,31,1,c,2.464026884,m,c,v,n,b,TRIANGLE,CIRCLE,PENTAGON,DIAMOND,1,10,36,26
P2,6,2,32,1,c,1.46554566,m,c,v,n,b,TRIANGLE,CIRCLE,PENTAGON,DIAMOND,1,10,36,26
Stranger,6,3,33,2,v,3.578224063,m,c,v,n,b,TRIANGLE,CIRCLE,PENTAGON,DIAMOND,1,10,36,26
Other,6,4,34,4,b,4.119107637,m,c,v,n,b,TRIANGLE,CIRCLE,PENTAGON,DIAMOND,1,10,36,26
We,7,0,35,3,n,2.700274896,m,c,v,n,b,TRIANGLE,CIRCLE,PENTAGON,DIAMOND,1,10,36,26
P1,7,1,36,0,m,3.467841392,m,c,v,n,b,TRIANGLE,CIRCLE,PENTAGON,DIAMOND,1,10,36,26
P2,7,2,37,1,c,2.348728228,m,c,v,n,b,TRIANGLE,CIRCLE,PENTAGON,DIAMOND,1,10,36,26
Stranger,7,3,38,2,v,3.466264976,m,c,v,n,b,TRIANGLE,CIRCLE,PENTAGON,DIAMOND,1,10,36,26
We,7,4,39,3,n,2.651135963,m,c,v,n,b,TRIANGLE,CIRCLE,PENTAGON,DIAMOND,1,10,36,26
Other,8,0,40,4,b,3.836633489,m,c,v,n,b,TRIANGLE,CIRCLE,PENTAGON,DIAMOND,1,10,36,26
P1,8,1,41,0,m,1.83886408,m,c,v,n,b,TRIANGLE,CIRCLE,PENTAGON,DIAMOND,1,10,36,26
P2,8,2,42,1,c,1.697021391,m,c,v,n,b,TRIANGLE,CIRCLE,PENTAGON,DIAMOND,1,10,36,26
Other,8,3,43,4,b,1.880485329,m,c,v,n,b,TRIANGLE,CIRCLE,PENTAGON,DIAMOND,1,10,36,26
Stranger,8,4,44,2,v,4.6486681,m,c,v,n,b,TRIANGLE,CIRCLE,PENTAGON,DIAMOND,1,10,36,26
P2,9,0,45,1,c,2.892183496,m,c,v,n,b,TRIANGLE,CIRCLE,PENTAGON,DIAMOND,1,10,36,26
Stranger,9,1,46,2,v,3.156386932,m,c,v,n,b,TRIANGLE,CIRCLE,PENTAGON,DIAMOND,1,10,36,26
We,9,2,47,3,n,3.297915365,m,c,v,n,b,TRIANGLE,CIRCLE,PENTAGON,DIAMOND,1,10,36,26
We,9,3,48,3,n,1.289221982,m,c,v,n,b,TRIANGLE,CIRCLE,PENTAGON,DIAMOND,1,10,36,26
Other,9,4,49,4,b,2.753359408,m,c,v,n,b,TRIANGLE,CIRCLE,PENTAGON,DIAMOND,1,10,36,26
P1,0,0,0,0,c,8.452192513,c,n,v,b,m,TRIANGLE,CIRCLE,DIAMOND,PENTAGON,1,11,22,21
P2,0,1,1,1,n,15.77394914,c,n,v,b,m,TRIANGLE,CIRCLE,DIAMOND,PENTAGON,1,11,22,21
P1,0,2,2,0,v,2.547520471,c,n,v,b,m,TRIANGLE,CIRCLE,DIAMOND,PENTAGON,0,11,22,21
P2,0,3,3,1,n,12.68102549,c,n,v,b,m,TRIANGLE,CIRCLE,DIAMOND,PENTAGON,1,11,22,21
Other,0,4,4,4,m,5.035542987,c,n,v,b,m,TRIANGLE,CIRCLE,DIAMOND,PENTAGON,1,11,22,21
P1,1,0,5,0,c,3.21371391,c,n,v,b,m,TRIANGLE,CIRCLE,DIAMOND,PENTAGON,1,11,22,21
Stranger,1,1,6,2,v,2.329182723,c,n,v,b,m,TRIANGLE,CIRCLE,DIAMOND,PENTAGON,1,11,22,21
P1,1,2,7,0,c,2.727970545,c,n,v,b,m,TRIANGLE,CIRCLE,DIAMOND,PENTAGON,1,11,22,21
Stranger,1,3,8,2,v,5.445188852,c,n,v,b,m,TRIANGLE,CIRCLE,DIAMOND,PENTAGON,1,11,22,21
Other,1,4,9,4,m,3.191501962,c,n,v,b,m,TRIANGLE,CIRCLE,DIAMOND,PENTAGON,1,11,22,21
P2,2,0,10,1,n,2.595762825,c,n,v,b,m,TRIANGLE,CIRCLE,DIAMOND,PENTAGON,1,11,22,21
P2,2,1,11,1,n,4.087290724,c,n,v,b,m,TRIANGLE,CIRCLE,DIAMOND,PENTAGON,1,11,22,21
We,2,2,12,3,b,4.559433801,c,n,v,b,m,TRIANGLE,CIRCLE,DIAMOND,PENTAGON,1,11,22,21
P1,2,3,13,0,c,2.837059473,c,n,v,b,m,TRIANGLE,CIRCLE,DIAMOND,PENTAGON,1,11,22,21
Other,2,4,14,4,m,4.623312005,c,n,v,b,m,TRIANGLE,CIRCLE,DIAMOND,PENTAGON,1,11,22,21
We,3,0,15,3,b,2.658222531,c,n,v,b,m,TRIANGLE,CIRCLE,DIAMOND,PENTAGON,1,11,22,21
We,3,1,16,3,b,2.675666147,c,n,v,b,m,TRIANGLE,CIRCLE,DIAMOND,PENTAGON,1,11,22,21
Stranger,3,2,17,2,v,2.918416036,c,n,v,b,m,TRIANGLE,CIRCLE,DIAMOND,PENTAGON,1,11,22,21
Stranger,3,3,18,2,v,2.013256422,c,n,v,b,m,TRIANGLE,CIRCLE,DIAMOND,PENTAGON,1,11,22,21
P2,3,4,19,1,n,2.792750066,c,n,v,b,m,TRIANGLE,CIRCLE,DIAMOND,PENTAGON,1,11,22,21
We,4,0,20,3,b,3.637034285,c,n,v,b,m,TRIANGLE,CIRCLE,DIAMOND,PENTAGON,1,11,22,21
We,4,1,21,3,b,2.23896578,c,n,v,b,m,TRIANGLE,CIRCLE,DIAMOND,PENTAGON,1,11,22,21
P2,4,2,22,1,m,2.159408692,c,n,v,b,m,TRIANGLE,CIRCLE,DIAMOND,PENTAGON,0,11,22,21
Other,4,3,23,4,m,5.908897137,c,n,v,b,m,TRIANGLE,CIRCLE,DIAMOND,PENTAGON,1,11,22,21
P2,4,4,24,1,n,3.972619397,c,n,v,b,m,TRIANGLE,CIRCLE,DIAMOND,PENTAGON,1,11,22,21
Stranger,5,0,25,2,v,2.657617705,c,n,v,b,m,TRIANGLE,CIRCLE,DIAMOND,PENTAGON,1,11,22,21
P1,5,1,26,0,c,2.611006644,c,n,v,b,m,TRIANGLE,CIRCLE,DIAMOND,PENTAGON,1,11,22,21
P2,5,2,27,1,n,3.222459011,c,n,v,b,m,TRIANGLE,CIRCLE,DIAMOND,PENTAGON,1,11,22,21
We,5,3,28,3,b,5.697386182,c,n,v,b,m,TRIANGLE,CIRCLE,DIAMOND,PENTAGON,1,11,22,21
P1,5,4,29,0,c,2.552980879,c,n,v,b,m,TRIANGLE,CIRCLE,DIAMOND,PENTAGON,1,11,22,21
P2,6,0,30,1,n,2.62254176,c,n,v,b,m,TRIANGLE,CIRCLE,DIAMOND,PENTAGON,1,11,22,21
P1,6,1,31,0,c,3.027332833,c,n,v,b,m,TRIANGLE,CIRCLE,DIAMOND,PENTAGON,1,11,22,21
We,6,2,32,3,b,2.662081651,c,n,v,b,m,TRIANGLE,CIRCLE,DIAMOND,PENTAGON,1,11,22,21
P1,6,3,33,0,c,2.023599258,c,n,v,b,m,TRIANGLE,CIRCLE,DIAMOND,PENTAGON,1,11,22,21
Stranger,6,4,34,2,v,1.794261736,c,n,v,b,m,TRIANGLE,CIRCLE,DIAMOND,PENTAGON,1,11,22,21
Other,7,0,35,4,m,2.214316762,c,n,v,b,m,TRIANGLE,CIRCLE,DIAMOND,PENTAGON,1,11,22,21
We,7,1,36,3,b,1.879435175,c,n,v,b,m,TRIANGLE,CIRCLE,DIAMOND,PENTAGON,1,11,22,21
Stranger,7,2,37,2,v,2.679512634,c,n,v,b,m,TRIANGLE,CIRCLE,DIAMOND,PENTAGON,1,11,22,21
We,7,3,38,3,b,3.687770558,c,n,v,b,m,TRIANGLE,CIRCLE,DIAMOND,PENTAGON,1,11,22,21
Other,7,4,39,4,m,1.984006465,c,n,v,b,m,TRIANGLE,CIRCLE,DIAMOND,PENTAGON,1,11,22,21
Stranger,8,0,40,2,v,10.47615814,c,n,v,b,m,TRIANGLE,CIRCLE,DIAMOND,PENTAGON,1,11,22,21
Stranger,8,1,41,2,v,1.477398191,c,n,v,b,m,TRIANGLE,CIRCLE,DIAMOND,PENTAGON,1,11,22,21
P2,8,2,42,1,n,3.910191669,c,n,v,b,m,TRIANGLE,CIRCLE,DIAMOND,PENTAGON,1,11,22,21
Other,8,3,43,4,m,1.701786565,c,n,v,b,m,TRIANGLE,CIRCLE,DIAMOND,PENTAGON,1,11,22,21
Other,8,4,44,4,m,1.789197307,c,n,v,b,m,TRIANGLE,CIRCLE,DIAMOND,PENTAGON,1,11,22,21
Stranger,9,0,45,2,v,2.977304033,c,n,v,b,m,TRIANGLE,CIRCLE,DIAMOND,PENTAGON,1,11,22,21
P1,9,1,46,0,c,1.624072775,c,n,v,b,m,TRIANGLE,CIRCLE,DIAMOND,PENTAGON,1,11,22,21
Other,9,2,47,4,m,1.762853435,c,n,v,b,m,TRIANGLE,CIRCLE,DIAMOND,PENTAGON,1,11,22,21
Other,9,3,48,4,m,2.376375712,c,n,v,b,m,TRIANGLE,CIRCLE,DIAMOND,PENTAGON,1,11,22,21
We,9,4,49,3,b,1.877144575,c,n,v,b,m,TRIANGLE,CIRCLE,DIAMOND,PENTAGON,1,11,22,21
P1,0,0,0,0,c,5.257746961,c,m,b,n,v,CIRCLE,DIAMOND,STAR,TRIANGLE,1,12,24,21
Stranger,0,1,1,2,b,4.149284572,c,m,b,n,v,CIRCLE,DIAMOND,STAR,TRIANGLE,1,12,24,21
We,0,2,2,3,n,12.10691874,c,m,b,n,v,CIRCLE,DIAMOND,STAR,TRIANGLE,1,12,24,21
Other,0,3,3,4,v,4.753184909,c,m,b,n,v,CIRCLE,DIAMOND,STAR,TRIANGLE,1,12,24,21
Other,0,4,4,4,v,6.894828227,c,m,b,n,v,CIRCLE,DIAMOND,STAR,TRIANGLE,1,12,24,21
P1,1,0,5,0,c,2.647149719,c,m,b,n,v,CIRCLE,DIAMOND,STAR,TRIANGLE,1,12,24,21
P2,1,1,6,1,m,1.880448613,c,m,b,n,v,CIRCLE,DIAMOND,STAR,TRIANGLE,1,12,24,21
P1,1,2,7,0,c,2.232853171,c,m,b,n,v,CIRCLE,DIAMOND,STAR,TRIANGLE,1,12,24,21
P1,1,3,8,0,c,1.163066861,c,m,b,n,v,CIRCLE,DIAMOND,STAR,TRIANGLE,1,12,24,21
Other,1,4,9,4,v,2.71180488,c,m,b,n,v,CIRCLE,DIAMOND,STAR,TRIANGLE,1,12,24,21
Stranger,2,0,10,2,b,3.975332822,c,m,b,n,v,CIRCLE,DIAMOND,STAR,TRIANGLE,1,12,24,21
Other,2,1,11,4,v,4.036228351,c,m,b,n,v,CIRCLE,DIAMOND,STAR,TRIANGLE,1,12,24,21
P2,2,2,12,1,m,1.664378172,c,m,b,n,v,CIRCLE,DIAMOND,STAR,TRIANGLE,1,12,24,21
We,2,3,13,3,n,3.129220308,c,m,b,n,v,CIRCLE,DIAMOND,STAR,TRIANGLE,1,12,24,21
We,2,4,14,3,n,2.216087812,c,m,b,n,v,CIRCLE,DIAMOND,STAR,TRIANGLE,1,12,24,21
P1,3,0,15,0,c,2.106972038,c,m,b,n,v,CIRCLE,DIAMOND,STAR,TRIANGLE,1,12,24,21
P1,3,1,16,0,c,0.914421896,c,m,b,n,v,CIRCLE,DIAMOND,STAR,TRIANGLE,1,12,24,21
We,3,2,17,3,n,2.696939669,c,m,b,n,v,CIRCLE,DIAMOND,STAR,TRIANGLE,1,12,24,21
We,3,3,18,3,n,1.095448765,c,m,b,n,v,CIRCLE,DIAMOND,STAR,TRIANGLE,1,12,24,21
Stranger,3,4,19,2,b,4.167610161,c,m,b,n,v,CIRCLE,DIAMOND,STAR,TRIANGLE,1,12,24,21
P2,4,0,20,1,m,1.48447331,c,m,b,n,v,CIRCLE,DIAMOND,STAR,TRIANGLE,1,12,24,21
P2,4,1,21,1,m,0.90863144,c,m,b,n,v,CIRCLE,DIAMOND,STAR,TRIANGLE,1,12,24,21
Other,4,2,22,4,v,7.684110415,c,m,b,n,v,CIRCLE,DIAMOND,STAR,TRIANGLE,1,12,24,21
Stranger,4,3,23,2,b,2.556541929,c,m,b,n,v,CIRCLE,DIAMOND,STAR,TRIANGLE,1,12,24,21
P2,4,4,24,1,m,1.330064695,c,m,b,n,v,CIRCLE,DIAMOND,STAR,TRIANGLE,1,12,24,21
Other,5,0,25,4,v,3.25614133,c,m,b,n,v,CIRCLE,DIAMOND,STAR,TRIANGLE,1,12,24,21
Other,5,1,26,4,v,3.23375883,c,m,b,n,v,CIRCLE,DIAMOND,STAR,TRIANGLE,1,12,24,21
Stranger,5,2,27,2,b,2.555976188,c,m,b,n,v,CIRCLE,DIAMOND,STAR,TRIANGLE,1,12,24,21
P1,5,3,28,0,c,1.297547811,c,m,b,n,v,CIRCLE,DIAMOND,STAR,TRIANGLE,1,12,24,21
P2,5,4,29,1,m,1.322822578,c,m,b,n,v,CIRCLE,DIAMOND,STAR,TRIANGLE,1,12,24,21
We,6,0,30,3,n,3.88954824,c,m,b,n,v,CIRCLE,DIAMOND,STAR,TRIANGLE,1,12,24,21
P1,6,1,31,0,c,1.329890196,c,m,b,n,v,CIRCLE,DIAMOND,STAR,TRIANGLE,1,12,24,21
P2,6,2,32,1,m,1.3046707,c,m,b,n,v,CIRCLE,DIAMOND,STAR,TRIANGLE,1,12,24,21
Stranger,6,3,33,2,b,4.864147533,c,m,b,n,v,CIRCLE,DIAMOND,STAR,TRIANGLE,1,12,24,21
P2,6,4,34,1,m,2.343184518,c,m,b,n,v,CIRCLE,DIAMOND,STAR,TRIANGLE,1,12,24,21
P1,7,0,35,0,c,2.613202888,c,m,b,n,v,CIRCLE,DIAMOND,STAR,TRIANGLE,1,12,24,21
Stranger,7,1,36,2,b,2.392300158,c,m,b,n,v,CIRCLE,DIAMOND,STAR,TRIANGLE,1,12,24,21
We,7,2,37,3,n,2.356385669,c,m,b,n,v,CIRCLE,DIAMOND,STAR,TRIANGLE,1,12,24,21
P2,7,3,38,1,m,1.954033244,c,m,b,n,v,CIRCLE,DIAMOND,STAR,TRIANGLE,1,12,24,21
We,7,4,39,3,n,2.23940716,c,m,b,n,v,CIRCLE,DIAMOND,STAR,TRIANGLE,1,12,24,21
Stranger,8,0,40,2,b,2.353502087,c,m,b,n,v,CIRCLE,DIAMOND,STAR,TRIANGLE,1,12,24,21
P2,8,1,41,1,m,2.383023663,c,m,b,n,v,CIRCLE,DIAMOND,STAR,TRIANGLE,1,12,24,21
Other,8,2,42,4,v,3.211194329,c,m,b,n,v,CIRCLE,DIAMOND,STAR,TRIANGLE,1,12,24,21
We,8,3,43,3,n,2.726717861,c,m,b,n,v,CIRCLE,DIAMOND,STAR,TRIANGLE,1,12,24,21
Stranger,8,4,44,2,b,4.309664065,c,m,b,n,v,CIRCLE,DIAMOND,STAR,TRIANGLE,1,12,24,21
Other,9,0,45,4,v,2.999132636,c,m,b,n,v,CIRCLE,DIAMOND,STAR,TRIANGLE,1,12,24,21
Other,9,1,46,4,v,1.802586775,c,m,b,n,v,CIRCLE,DIAMOND,STAR,TRIANGLE,1,12,24,21
Stranger,9,2,47,2,b,1.902087715,c,m,b,n,v,CIRCLE,DIAMOND,STAR,TRIANGLE,1,12,24,21
P1,9,3,48,0,c,2.109670856,c,m,b,n,v,CIRCLE,DIAMOND,STAR,TRIANGLE,1,12,24,21
We,9,4,49,3,n,2.325092254,c,m,b,n,v,CIRCLE,DIAMOND,STAR,TRIANGLE,1,12,24,21
P2,0,0,0,1,m,18.61642876,n,m,c,b,v,STAR,PENTAGON,CIRCLE,DIAMOND,1,13,26,24
P2,0,1,1,1,m,6.122148347,n,m,c,b,v,STAR,PENTAGON,CIRCLE,DIAMOND,1,13,26,24
P2,0,2,2,1,m,5.009079887,n,m,c,b,v,STAR,PENTAGON,CIRCLE,DIAMOND,1,13,26,24
P1,0,3,3,0,n,8.964742844,n,m,c,b,v,STAR,PENTAGON,CIRCLE,DIAMOND,1,13,26,24
Stranger,0,4,4,2,c,4.169789428,n,m,c,b,v,STAR,PENTAGON,CIRCLE,DIAMOND,1,13,26,24
P1,1,0,5,0,n,4.558640658,n,m,c,b,v,STAR,PENTAGON,CIRCLE,DIAMOND,1,13,26,24
We,1,1,6,3,b,6.326319671,n,m,c,b,v,STAR,PENTAGON,CIRCLE,DIAMOND,1,13,26,24
Other,1,2,7,4,v,4.453299913,n,m,c,b,v,STAR,PENTAGON,CIRCLE,DIAMOND,1,13,26,24
Stranger,1,3,8,2,c,4.878631373,n,m,c,b,v,STAR,PENTAGON,CIRCLE,DIAMOND,1,13,26,24
Other,1,4,9,4,v,7.973957751,n,m,c,b,v,STAR,PENTAGON,CIRCLE,DIAMOND,1,13,26,24
We,2,0,10,3,b,4.89910346,n,m,c,b,v,STAR,PENTAGON,CIRCLE,DIAMOND,1,13,26,24
Stranger,2,1,11,2,c,3.866594077,n,m,c,b,v,STAR,PENTAGON,CIRCLE,DIAMOND,1,13,26,24
P1,2,2,12,0,n,5.41957772,n,m,c,b,v,STAR,PENTAGON,CIRCLE,DIAMOND,1,13,26,24
We,2,3,13,3,b,4.446546946,n,m,c,b,v,STAR,PENTAGON,CIRCLE,DIAMOND,1,13,26,24
P2,2,4,14,1,m,2.008077898,n,m,c,b,v,STAR,PENTAGON,CIRCLE,DIAMOND,1,13,26,24
P2,3,0,15,1,m,1.747501837,n,m,c,b,v,STAR,PENTAGON,CIRCLE,DIAMOND,1,13,26,24
We,3,1,16,3,b,4.010884494,n,m,c,b,v,STAR,PENTAGON,CIRCLE,DIAMOND,1,13,26,24
P1,3,2,17,0,n,4.358449262,n,m,c,b,v,STAR,PENTAGON,CIRCLE,DIAMOND,1,13,26,24
P1,3,3,18,0,n,2.596037997,n,m,c,b,v,STAR,PENTAGON,CIRCLE,DIAMOND,1,13,26,24
We,3,4,19,3,b,2.311947953,n,m,c,b,v,STAR,PENTAGON,CIRCLE,DIAMOND,1,13,26,24
P2,4,0,20,1,m,2.549767643,n,m,c,b,v,STAR,PENTAGON,CIRCLE,DIAMOND,1,13,26,24
Stranger,4,1,21,2,c,2.331246316,n,m,c,b,v,STAR,PENTAGON,CIRCLE,DIAMOND,1,13,26,24
P1,4,2,22,0,n,2.025394785,n,m,c,b,v,STAR,PENTAGON,CIRCLE,DIAMOND,1,13,26,24
Other,4,3,23,4,v,6.180308737,n,m,c,b,v,STAR,PENTAGON,CIRCLE,DIAMOND,1,13,26,24
Stranger,4,4,24,2,c,4.36062695,n,m,c,b,v,STAR,PENTAGON,CIRCLE,DIAMOND,1,13,26,24
We,5,0,25,3,b,5.270216952,n,m,c,b,v,STAR,PENTAGON,CIRCLE,DIAMOND,1,13,26,24
P2,5,1,26,1,m,2.303106522,n,m,c,b,v,STAR,PENTAGON,CIRCLE,DIAMOND,1,13,26,24
P1,5,2,27,0,n,2.030591865,n,m,c,b,v,STAR,PENTAGON,CIRCLE,DIAMOND,1,13,26,24
We,5,3,28,3,b,3.096722768,n,m,c,b,v,STAR,PENTAGON,CIRCLE,DIAMOND,1,13,26,24
We,5,4,29,3,b,3.450146686,n,m,c,b,v,STAR,PENTAGON,CIRCLE,DIAMOND,1,13,26,24
Other,6,0,30,4,v,5.13168817,n,m,c,b,v,STAR,PENTAGON,CIRCLE,DIAMOND,1,13,26,24
P1,6,1,31,0,n,2.361970042,n,m,c,b,v,STAR,PENTAGON,CIRCLE,DIAMOND,1,13,26,24
P2,6,2,32,1,m,2.807197189,n,m,c,b,v,STAR,PENTAGON,CIRCLE,DIAMOND,1,13,26,24
Other,6,3,33,4,v,3.13695197,n,m,c,b,v,STAR,PENTAGON,CIRCLE,DIAMOND,1,13,26,24
Other,6,4,34,4,v,1.61521871,n,m,c,b,v,STAR,PENTAGON,CIRCLE,DIAMOND,1,13,26,24
Stranger,7,0,35,2,c,2.618051758,n,m,c,b,v,STAR,PENTAGON,CIRCLE,DIAMOND,1,13,26,24
Other,7,1,36,4,v,2.828903406,n,m,c,b,v,STAR,PENTAGON,CIRCLE,DIAMOND,1,13,26,24
P2,7,2,37,1,m,3.335122412,n,m,c,b,v,STAR,PENTAGON,CIRCLE,DIAMOND,1,13,26,24
P1,7,3,38,0,n,1.901333262,n,m,c,b,v,STAR,PENTAGON,CIRCLE,DIAMOND,1,13,26,24
Stranger,7,4,39,2,c,3.37272307,n,m,c,b,v,STAR,PENTAGON,CIRCLE,DIAMOND,1,13,26,24
P1,8,0,40,0,n,2.801715857,n,m,c,b,v,STAR,PENTAGON,CIRCLE,DIAMOND,1,13,26,24
P2,8,1,41,1,m,1.64515561,n,m,c,b,v,STAR,PENTAGON,CIRCLE,DIAMOND,1,13,26,24
Other,8,2,42,4,v,3.063258376,n,m,c,b,v,STAR,PENTAGON,CIRCLE,DIAMOND,1,13,26,24
Stranger,8,3,43,2,c,2.616043042,n,m,c,b,v,STAR,PENTAGON,CIRCLE,DIAMOND,1,13,26,24
Stranger,8,4,44,2,c,1.852775862,n,m,c,b,v,STAR,PENTAGON,CIRCLE,DIAMOND,1,13,26,24
Stranger,9,0,45,2,c,1.43820651,n,m,c,b,v,STAR,PENTAGON,CIRCLE,DIAMOND,1,13,26,24
We,9,1,46,3,b,3.168297893,n,m,c,b,v,STAR,PENTAGON,CIRCLE,DIAMOND,1,13,26,24
We,9,2,47,3,b,1.469092102,n,m,c,b,v,STAR,PENTAGON,CIRCLE,DIAMOND,1,13,26,24
Other,9,3,48,4,v,4.60601999,n,m,c,b,v,STAR,PENTAGON,CIRCLE,DIAMOND,1,13,26,24
Other,9,4,49,4,v,1.231571667,n,m,c,b,v,STAR,PENTAGON,CIRCLE,DIAMOND,1,13,26,24
P1,0,0,0,0,v,18.25443316,v,n,m,c,b,DIAMOND,TRIANGLE,PENTAGON,CIRCLE,1,14,27,26
Stranger,0,1,1,2,m,3.777073901,v,n,m,c,b,DIAMOND,TRIANGLE,PENTAGON,CIRCLE,1,14,27,26
Stranger,0,2,2,2,m,2.053227139,v,n,m,c,b,DIAMOND,TRIANGLE,PENTAGON,CIRCLE,1,14,27,26
P1,0,3,3,0,v,1.262729396,v,n,m,c,b,DIAMOND,TRIANGLE,PENTAGON,CIRCLE,1,14,27,26
P2,0,4,4,1,n,3.831250128,v,n,m,c,b,DIAMOND,TRIANGLE,PENTAGON,CIRCLE,1,14,27,26
We,1,0,5,3,c,3.753765166,v,n,m,c,b,DIAMOND,TRIANGLE,PENTAGON,CIRCLE,1,14,27,26
Stranger,1,1,6,2,m,2.09726225,v,n,m,c,b,DIAMOND,TRIANGLE,PENTAGON,CIRCLE,1,14,27,26
We,1,2,7,3,c,11.41696224,v,n,m,c,b,DIAMOND,TRIANGLE,PENTAGON,CIRCLE,1,14,27,26
We,1,3,8,3,c,1.482334869,v,n,m,c,b,DIAMOND,TRIANGLE,PENTAGON,CIRCLE,1,14,27,26
P2,1,4,9,1,n,3.145857646,v,n,m,c,b,DIAMOND,TRIANGLE,PENTAGON,CIRCLE,1,14,27,26
Other,2,0,10,4,b,2.823495947,v,n,m,c,b,DIAMOND,TRIANGLE,PENTAGON,CIRCLE,1,14,27,26
Stranger,2,1,11,2,m,1.858262441,v,n,m,c,b,DIAMOND,TRIANGLE,PENTAGON,CIRCLE,1,14,27,26
P2,2,2,12,1,n,1.203793907,v,n,m,c,b,DIAMOND,TRIANGLE,PENTAGON,CIRCLE,1,14,27,26
Other,2,3,13,4,b,1.311384406,v,n,m,c,b,DIAMOND,TRIANGLE,PENTAGON,CIRCLE,1,14,27,26
P1,2,4,14,0,v,1.205943569,v,n,m,c,b,DIAMOND,TRIANGLE,PENTAGON,CIRCLE,1,14,27,26
Stranger,3,0,15,2,m,1.473415251,v,n,m,c,b,DIAMOND,TRIANGLE,PENTAGON,CIRCLE,1,14,27,26
P1,3,1,16,0,v,0.930223028,v,n,m,c,b,DIAMOND,TRIANGLE,PENTAGON,CIRCLE,1,14,27,26
Other,3,2,17,4,b,1.56032359,v,n,m,c,b,DIAMOND,TRIANGLE,PENTAGON,CIRCLE,1,14,27,26
P1,3,3,18,0,v,0.949888194,v,n,m,c,b,DIAMOND,TRIANGLE,PENTAGON,CIRCLE,1,14,27,26
Stranger,3,4,19,2,m,1.307257607,v,n,m,c,b,DIAMOND,TRIANGLE,PENTAGON,CIRCLE,1,14,27,26
Stranger,4,0,20,2,m,1.186667277,v,n,m,c,b,DIAMOND,TRIANGLE,PENTAGON,CIRCLE,1,14,27,26
Other,4,1,21,4,b,1.391019031,v,n,m,c,b,DIAMOND,TRIANGLE,PENTAGON,CIRCLE,1,14,27,26
P2,4,2,22,1,n,1.266862117,v,n,m,c,b,DIAMOND,TRIANGLE,PENTAGON,CIRCLE,1,14,27,26
P1,4,3,23,0,v,0.971698285,v,n,m,c,b,DIAMOND,TRIANGLE,PENTAGON,CIRCLE,1,14,27,26
P2,4,4,24,1,n,1.584398624,v,n,m,c,b,DIAMOND,TRIANGLE,PENTAGON,CIRCLE,1,14,27,26
We,5,0,25,3,c,4.236691834,v,n,m,c,b,DIAMOND,TRIANGLE,PENTAGON,CIRCLE,1,14,27,26
P2,5,1,26,1,n,2.320765935,v,n,m,c,b,DIAMOND,TRIANGLE,PENTAGON,CIRCLE,1,14,27,26
Stranger,5,2,27,2,m,1.599739593,v,n,m,c,b,DIAMOND,TRIANGLE,PENTAGON,CIRCLE,1,14,27,26
P2,5,3,28,1,n,1.13127429,v,n,m,c,b,DIAMOND,TRIANGLE,PENTAGON,CIRCLE,1,14,27,26
We,5,4,29,3,c,0.889176125,v,n,m,c,b,DIAMOND,TRIANGLE,PENTAGON,CIRCLE,1,14,27,26
Other,6,0,30,4,c,0.945236317,v,n,m,c,b,DIAMOND,TRIANGLE,PENTAGON,CIRCLE,0,14,27,26
P1,6,1,31,0,v,2.246007037,v,n,m,c,b,DIAMOND,TRIANGLE,PENTAGON,CIRCLE,1,14,27,26
We,6,2,32,3,c,1.175290846,v,n,m,c,b,DIAMOND,TRIANGLE,PENTAGON,CIRCLE,1,14,27,26
P2,6,3,33,1,n,2.787886564,v,n,m,c,b,DIAMOND,TRIANGLE,PENTAGON,CIRCLE,1,14,27,26
We,6,4,34,3,c,1.358771728,v,n,m,c,b,DIAMOND,TRIANGLE,PENTAGON,CIRCLE,1,14,27,26
We,7,0,35,3,c,1.108106102,v,n,m,c,b,DIAMOND,TRIANGLE,PENTAGON,CIRCLE,1,14,27,26
We,7,1,36,3,c,0.739501989,v,n,m,c,b,DIAMOND,TRIANGLE,PENTAGON,CIRCLE,1,14,27,26
P1,7,2,37,0,v,0.657729941,v,n,m,c,b,DIAMOND,TRIANGLE,PENTAGON,CIRCLE,1,14,27,26
Stranger,7,3,38,2,m,1.378937494,v,n,m,c,b,DIAMOND,TRIANGLE,PENTAGON,CIRCLE,1,14,27,26
Other,7,4,39,4,c,1.031105554,v,n,m,c,b,DIAMOND,TRIANGLE,PENTAGON,CIRCLE,0,14,27,26
Stranger,8,0,40,2,m,6.56921044,v,n,m,c,b,DIAMOND,TRIANGLE,PENTAGON,CIRCLE,1,14,27,26
P1,8,1,41,0,v,1.134337114,v,n,m,c,b,DIAMOND,TRIANGLE,PENTAGON,CIRCLE,1,14,27,26
P2,8,2,42,1,n,1.308410016,v,n,m,c,b,DIAMOND,TRIANGLE,PENTAGON,CIRCLE,1,14,27,26
P2,8,3,43,1,n,1.571845701,v,n,m,c,b,DIAMOND,TRIANGLE,PENTAGON,CIRCLE,1,14,27,26
Other,8,4,44,4,b,1.161250728,v,n,m,c,b,DIAMOND,TRIANGLE,PENTAGON,CIRCLE,1,14,27,26
P1,9,0,45,0,v,1.16548886,v,n,m,c,b,DIAMOND,TRIANGLE,PENTAGON,CIRCLE,1,14,27,26
Other,9,1,46,4,b,2.154152697,v,n,m,c,b,DIAMOND,TRIANGLE,PENTAGON,CIRCLE,1,14,27,26
Other,9,2,47,4,b,0.863849589,v,n,m,c,b,DIAMOND,TRIANGLE,PENTAGON,CIRCLE,1,14,27,26
We,9,3,48,3,c,0.776444992,v,n,m,c,b,DIAMOND,TRIANGLE,PENTAGON,CIRCLE,1,14,27,26
Other,9,4,49,4,c,0.725159063,v,n,m,c,b,DIAMOND,TRIANGLE,PENTAGON,CIRCLE,0,14,27,26
Other,0,0,0,4,m,12.05222515,c,n,v,b,m,TRIANGLE,STAR,CIRCLE,PENTAGON,1,15,22,24
Stranger,0,1,1,2,v,10.76646495,c,n,v,b,m,TRIANGLE,STAR,CIRCLE,PENTAGON,1,15,22,24
P1,0,2,2,0,c,4.074144596,c,n,v,b,m,TRIANGLE,STAR,CIRCLE,PENTAGON,1,15,22,24
Other,0,3,3,4,m,3.267093072,c,n,v,b,m,TRIANGLE,STAR,CIRCLE,PENTAGON,1,15,22,24
P1,0,4,4,0,c,2.156074563,c,n,v,b,m,TRIANGLE,STAR,CIRCLE,PENTAGON,1,15,22,24
We,1,0,5,3,b,3.601365361,c,n,v,b,m,TRIANGLE,STAR,CIRCLE,PENTAGON,1,15,22,24
We,1,1,6,3,b,1.293124318,c,n,v,b,m,TRIANGLE,STAR,CIRCLE,PENTAGON,1,15,22,24
Stranger,1,2,7,2,v,2.501201758,c,n,v,b,m,TRIANGLE,STAR,CIRCLE,PENTAGON,1,15,22,24
Other,1,3,8,4,m,1.724742949,c,n,v,b,m,TRIANGLE,STAR,CIRCLE,PENTAGON,1,15,22,24
We,1,4,9,3,b,1.955575225,c,n,v,b,m,TRIANGLE,STAR,CIRCLE,PENTAGON,1,15,22,24
P1,2,0,10,0,c,2.145103586,c,n,v,b,m,TRIANGLE,STAR,CIRCLE,PENTAGON,1,15,22,24
P1,2,1,11,0,c,1.289123064,c,n,v,b,m,TRIANGLE,STAR,CIRCLE,PENTAGON,1,15,22,24
Stranger,2,2,12,2,v,4.097263434,c,n,v,b,m,TRIANGLE,STAR,CIRCLE,PENTAGON,1,15,22,24
Stranger,2,3,13,2,v,1.080844673,c,n,v,b,m,TRIANGLE,STAR,CIRCLE,PENTAGON,1,15,22,24
Other,2,4,14,4,m,1.513008122,c,n,v,b,m,TRIANGLE,STAR,CIRCLE,PENTAGON,1,15,22,24
P1,3,0,15,0,c,1.528423313,c,n,v,b,m,TRIANGLE,STAR,CIRCLE,PENTAGON,1,15,22,24
We,3,1,16,3,b,1.958980338,c,n,v,b,m,TRIANGLE,STAR,CIRCLE,PENTAGON,1,15,22,24
P1,3,2,17,0,c,1.586813589,c,n,v,b,m,TRIANGLE,STAR,CIRCLE,PENTAGON,1,15,22,24
We,3,3,18,3,b,1.47098173,c,n,v,b,m,TRIANGLE,STAR,CIRCLE,PENTAGON,1,15,22,24
Other,3,4,19,4,m,1.199716458,c,n,v,b,m,TRIANGLE,STAR,CIRCLE,PENTAGON,1,15,22,24
Other,4,0,20,4,m,1.099167929,c,n,v,b,m,TRIANGLE,STAR,CIRCLE,PENTAGON,1,15,22,24
P2,4,1,21,1,n,4.122727359,c,n,v,b,m,TRIANGLE,STAR,CIRCLE,PENTAGON,1,15,22,24
P2,4,2,22,1,n,0.769561729,c,n,v,b,m,TRIANGLE,STAR,CIRCLE,PENTAGON,1,15,22,24
We,4,3,23,3,b,1.806384714,c,n,v,b,m,TRIANGLE,STAR,CIRCLE,PENTAGON,1,15,22,24
Other,4,4,24,4,m,1.505847318,c,n,v,b,m,TRIANGLE,STAR,CIRCLE,PENTAGON,1,15,22,24
P1,5,0,25,0,c,1.105297131,c,n,v,b,m,TRIANGLE,STAR,CIRCLE,PENTAGON,1,15,22,24
Other,5,1,26,4,m,1.440682744,c,n,v,b,m,TRIANGLE,STAR,CIRCLE,PENTAGON,1,15,22,24
Stranger,5,2,27,2,v,1.330797693,c,n,v,b,m,TRIANGLE,STAR,CIRCLE,PENTAGON,1,15,22,24
Stranger,5,3,28,2,v,1.737041623,c,n,v,b,m,TRIANGLE,STAR,CIRCLE,PENTAGON,1,15,22,24
We,5,4,29,3,b,0.895201101,c,n,v,b,m,TRIANGLE,STAR,CIRCLE,PENTAGON,1,15,22,24
Other,6,0,30,4,m,1.079212588,c,n,v,b,m,TRIANGLE,STAR,CIRCLE,PENTAGON,1,15,22,24
P2,6,1,31,1,n,0.951262477,c,n,v,b,m,TRIANGLE,STAR,CIRCLE,PENTAGON,1,15,22,24
We,6,2,32,3,b,1.404841616,c,n,v,b,m,TRIANGLE,STAR,CIRCLE,PENTAGON,1,15,22,24
Stranger,6,3,33,2,v,0.91195307,c,n,v,b,m,TRIANGLE,STAR,CIRCLE,PENTAGON,1,15,22,24
P2,6,4,34,1,n,1.030902629,c,n,v,b,m,TRIANGLE,STAR,CIRCLE,PENTAGON,1,15,22,24
P1,7,0,35,0,c,1.033058608,c,n,v,b,m,TRIANGLE,STAR,CIRCLE,PENTAGON,1,15,22,24
P1,7,1,36,0,c,0.749009853,c,n,v,b,m,TRIANGLE,STAR,CIRCLE,PENTAGON,1,15,22,24
Stranger,7,2,37,2,c,0.762428957,c,n,v,b,m,TRIANGLE,STAR,CIRCLE,PENTAGON,0,15,22,24
P2,7,3,38,1,n,4.936022181,c,n,v,b,m,TRIANGLE,STAR,CIRCLE,PENTAGON,1,15,22,24
P2,7,4,39,1,n,0.878167248,c,n,v,b,m,TRIANGLE,STAR,CIRCLE,PENTAGON,1,15,22,24
P2,8,0,40,1,n,0.7589741,c,n,v,b,m,TRIANGLE,STAR,CIRCLE,PENTAGON,1,15,22,24
P2,8,1,41,1,n,0.836383656,c,n,v,b,m,TRIANGLE,STAR,CIRCLE,PENTAGON,1,15,22,24
We,8,2,42,3,b,1.182185952,c,n,v,b,m,TRIANGLE,STAR,CIRCLE,PENTAGON,1,15,22,24
Stranger,8,3,43,2,v,1.914373167,c,n,v,b,m,TRIANGLE,STAR,CIRCLE,PENTAGON,1,15,22,24
P2,8,4,44,1,n,2.023525478,c,n,v,b,m,TRIANGLE,STAR,CIRCLE,PENTAGON,1,15,22,24
Other,9,0,45,4,m,1.410312694,c,n,v,b,m,TRIANGLE,STAR,CIRCLE,PENTAGON,1,15,22,24
P1,9,1,46,0,c,1.733747448,c,n,v,b,m,TRIANGLE,STAR,CIRCLE,PENTAGON,1,15,22,24
We,9,2,47,3,b,1.179898506,c,n,v,b,m,TRIANGLE,STAR,CIRCLE,PENTAGON,1,15,22,24
P2,9,3,48,1,n,1.224014156,c,n,v,b,m,TRIANGLE,STAR,CIRCLE,PENTAGON,1,15,22,24
Stranger,9,4,49,2,v,1.570797914,c,n,v,b,m,TRIANGLE,STAR,CIRCLE,PENTAGON,1,15,22,24
Other,0,0,0,4,m,6.462139887,c,b,v,n,m,STAR,CIRCLE,DIAMOND,TRIANGLE,1,16,25,22
P1,0,1,1,0,c,7.687190776,c,b,v,n,m,STAR,CIRCLE,DIAMOND,TRIANGLE,1,16,25,22
Stranger,0,2,2,2,v,12.68779126,c,b,v,n,m,STAR,CIRCLE,DIAMOND,TRIANGLE,1,16,25,22
Stranger,0,3,3,2,v,5.712539026,c,b,v,n,m,STAR,CIRCLE,DIAMOND,TRIANGLE,1,16,25,22
Stranger,0,4,4,2,v,6.697529685,c,b,v,n,m,STAR,CIRCLE,DIAMOND,TRIANGLE,1,16,25,22
P1,1,0,5,0,c,3.737293502,c,b,v,n,m,STAR,CIRCLE,DIAMOND,TRIANGLE,1,16,25,22
Other,1,1,6,4,m,7.599383882,c,b,v,n,m,STAR,CIRCLE,DIAMOND,TRIANGLE,1,16,25,22
Stranger,1,2,7,2,v,3.16114058,c,b,v,n,m,STAR,CIRCLE,DIAMOND,TRIANGLE,1,16,25,22
We,1,3,8,3,n,4.375017568,c,b,v,n,m,STAR,CIRCLE,DIAMOND,TRIANGLE,1,16,25,22
Stranger,1,4,9,2,v,4.723965991,c,b,v,n,m,STAR,CIRCLE,DIAMOND,TRIANGLE,1,16,25,22
Stranger,2,0,10,2,v,2.914952727,c,b,v,n,m,STAR,CIRCLE,DIAMOND,TRIANGLE,1,16,25,22
P1,2,1,11,0,c,4.601951633,c,b,v,n,m,STAR,CIRCLE,DIAMOND,TRIANGLE,1,16,25,22
P2,2,2,12,1,b,6.285563587,c,b,v,n,m,STAR,CIRCLE,DIAMOND,TRIANGLE,1,16,25,22
P1,2,3,13,0,c,3.03786485,c,b,v,n,m,STAR,CIRCLE,DIAMOND,TRIANGLE,1,16,25,22
We,2,4,14,3,n,2.929951014,c,b,v,n,m,STAR,CIRCLE,DIAMOND,TRIANGLE,1,16,25,22
P2,3,0,15,1,m,3.016845535,c,b,v,n,m,STAR,CIRCLE,DIAMOND,TRIANGLE,0,16,25,22
Other,3,1,16,4,m,9.275874512,c,b,v,n,m,STAR,CIRCLE,DIAMOND,TRIANGLE,1,16,25,22
P2,3,2,17,1,b,4.755248413,c,b,v,n,m,STAR,CIRCLE,DIAMOND,TRIANGLE,1,16,25,22
We,3,3,18,3,n,3.040800946,c,b,v,n,m,STAR,CIRCLE,DIAMOND,TRIANGLE,1,16,25,22
Stranger,3,4,19,2,v,3.395024627,c,b,v,n,m,STAR,CIRCLE,DIAMOND,TRIANGLE,1,16,25,22
P1,4,0,20,0,c,3.095259452,c,b,v,n,m,STAR,CIRCLE,DIAMOND,TRIANGLE,1,16,25,22
Other,4,1,21,4,m,4.662798327,c,b,v,n,m,STAR,CIRCLE,DIAMOND,TRIANGLE,1,16,25,22
We,4,2,22,3,n,3.047741058,c,b,v,n,m,STAR,CIRCLE,DIAMOND,TRIANGLE,1,16,25,22
Other,4,3,23,4,m,4.041312601,c,b,v,n,m,STAR,CIRCLE,DIAMOND,TRIANGLE,1,16,25,22
P2,4,4,24,1,b,4.19566546,c,b,v,n,m,STAR,CIRCLE,DIAMOND,TRIANGLE,1,16,25,22
P2,5,0,25,1,b,3.833096193,c,b,v,n,m,STAR,CIRCLE,DIAMOND,TRIANGLE,1,16,25,22
P1,5,1,26,0,c,2.171349996,c,b,v,n,m,STAR,CIRCLE,DIAMOND,TRIANGLE,1,16,25,22
Other,5,2,27,4,m,4.336185469,c,b,v,n,m,STAR,CIRCLE,DIAMOND,TRIANGLE,1,16,25,22
Stranger,5,3,28,2,v,3.918218477,c,b,v,n,m,STAR,CIRCLE,DIAMOND,TRIANGLE,1,16,25,22
P2,5,4,29,1,b,2.811496923,c,b,v,n,m,STAR,CIRCLE,DIAMOND,TRIANGLE,1,16,25,22
Stranger,6,0,30,2,v,3.719087896,c,b,v,n,m,STAR,CIRCLE,DIAMOND,TRIANGLE,1,16,25,22
P2,6,1,31,1,b,2.333881047,c,b,v,n,m,STAR,CIRCLE,DIAMOND,TRIANGLE,1,16,25,22
P2,6,2,32,1,b,1.436063635,c,b,v,n,m,STAR,CIRCLE,DIAMOND,TRIANGLE,1,16,25,22
We,6,3,33,3,n,2.654192177,c,b,v,n,m,STAR,CIRCLE,DIAMOND,TRIANGLE,1,16,25,22
P1,6,4,34,0,c,3.583750764,c,b,v,n,m,STAR,CIRCLE,DIAMOND,TRIANGLE,1,16,25,22
Other,7,0,35,4,m,3.675904753,c,b,v,n,m,STAR,CIRCLE,DIAMOND,TRIANGLE,1,16,25,22
We,7,1,36,3,n,2.820915168,c,b,v,n,m,STAR,CIRCLE,DIAMOND,TRIANGLE,1,16,25,22
Other,7,2,37,4,m,4.303854074,c,b,v,n,m,STAR,CIRCLE,DIAMOND,TRIANGLE,1,16,25,22
Other,7,3,38,4,m,1.455387697,c,b,v,n,m,STAR,CIRCLE,DIAMOND,TRIANGLE,1,16,25,22
Stranger,7,4,39,2,v,3.970731035,c,b,v,n,m,STAR,CIRCLE,DIAMOND,TRIANGLE,1,16,25,22
We,8,0,40,3,n,2.04768855,c,b,v,n,m,STAR,CIRCLE,DIAMOND,TRIANGLE,1,16,25,22
We,8,1,41,3,n,0.985155289,c,b,v,n,m,STAR,CIRCLE,DIAMOND,TRIANGLE,1,16,25,22
P2,8,2,42,1,b,4.637337561,c,b,v,n,m,STAR,CIRCLE,DIAMOND,TRIANGLE,1,16,25,22
We,8,3,43,3,n,3.471335073,c,b,v,n,m,STAR,CIRCLE,DIAMOND,TRIANGLE,1,16,25,22
P1,8,4,44,0,c,2.382485128,c,b,v,n,m,STAR,CIRCLE,DIAMOND,TRIANGLE,1,16,25,22
P2,9,0,45,1,b,3.626777173,c,b,v,n,m,STAR,CIRCLE,DIAMOND,TRIANGLE,1,16,25,22
P1,9,1,46,0,c,2.245677382,c,b,v,n,m,STAR,CIRCLE,DIAMOND,TRIANGLE,1,16,25,22
Other,9,2,47,4,m,4.423121049,c,b,v,n,m,STAR,CIRCLE,DIAMOND,TRIANGLE,1,16,25,22
We,9,3,48,3,n,4.946088681,c,b,v,n,m,STAR,CIRCLE,DIAMOND,TRIANGLE,1,16,25,22
P1,9,4,49,0,c,1.46368946,c,b,v,n,m,STAR,CIRCLE,DIAMOND,TRIANGLE,1,16,25,22
P1,0,0,0,0,m,9.350649992,m,c,b,n,v,STAR,TRIANGLE,CIRCLE,DIAMOND,1,17,25,36
Stranger,0,1,1,2,b,6.588337895,m,c,b,n,v,STAR,TRIANGLE,CIRCLE,DIAMOND,1,17,25,36
P1,0,2,2,0,m,8.256729292,m,c,b,n,v,STAR,TRIANGLE,CIRCLE,DIAMOND,1,17,25,36
P1,0,3,3,0,m,4.738540662,m,c,b,n,v,STAR,TRIANGLE,CIRCLE,DIAMOND,1,17,25,36
P1,0,4,4,0,m,2.082389903,m,c,b,n,v,STAR,TRIANGLE,CIRCLE,DIAMOND,1,17,25,36
P2,1,0,5,1,c,6.282688685,m,c,b,n,v,STAR,TRIANGLE,CIRCLE,DIAMOND,1,17,25,36
Other,1,1,6,4,v,8.347163551,m,c,b,n,v,STAR,TRIANGLE,CIRCLE,DIAMOND,1,17,25,36
P1,1,2,7,0,m,2.470939487,m,c,b,n,v,STAR,TRIANGLE,CIRCLE,DIAMOND,1,17,25,36
Stranger,1,3,8,2,b,4.095824404,m,c,b,n,v,STAR,TRIANGLE,CIRCLE,DIAMOND,1,17,25,36
P2,1,4,9,1,c,3.111352507,m,c,b,n,v,STAR,TRIANGLE,CIRCLE,DIAMOND,1,17,25,36
Stranger,2,0,10,2,b,3.046880404,m,c,b,n,v,STAR,TRIANGLE,CIRCLE,DIAMOND,1,17,25,36
P2,2,1,11,1,c,1.84840242,m,c,b,n,v,STAR,TRIANGLE,CIRCLE,DIAMOND,1,17,25,36
Stranger,2,2,12,2,b,3.209827174,m,c,b,n,v,STAR,TRIANGLE,CIRCLE,DIAMOND,1,17,25,36
We,2,3,13,3,n,6.645455744,m,c,b,n,v,STAR,TRIANGLE,CIRCLE,DIAMOND,1,17,25,36
P2,2,4,14,1,c,2.663163513,m,c,b,n,v,STAR,TRIANGLE,CIRCLE,DIAMOND,1,17,25,36
P2,3,0,15,1,c,1.495934394,m,c,b,n,v,STAR,TRIANGLE,CIRCLE,DIAMOND,1,17,25,36
We,3,1,16,3,n,2.793216305,m,c,b,n,v,STAR,TRIANGLE,CIRCLE,DIAMOND,1,17,25,36
Other,3,2,17,4,v,2.821448932,m,c,b,n,v,STAR,TRIANGLE,CIRCLE,DIAMOND,1,17,25,36
Other,3,3,18,4,v,5.696271471,m,c,b,n,v,STAR,TRIANGLE,CIRCLE,DIAMOND,1,17,25,36
We,3,4,19,3,n,2.376300654,m,c,b,n,v,STAR,TRIANGLE,CIRCLE,DIAMOND,1,17,25,36
We,4,0,20,3,n,2.131416811,m,c,b,n,v,STAR,TRIANGLE,CIRCLE,DIAMOND,1,17,25,36
P2,4,1,21,1,c,2.073687028,m,c,b,n,v,STAR,TRIANGLE,CIRCLE,DIAMOND,1,17,25,36
We,4,2,22,3,n,3.458353007,m,c,b,n,v,STAR,TRIANGLE,CIRCLE,DIAMOND,1,17,25,36
We,4,3,23,3,n,1.587842426,m,c,b,n,v,STAR,TRIANGLE,CIRCLE,DIAMOND,1,17,25,36
P1,4,4,24,0,m,2.336011364,m,c,b,n,v,STAR,TRIANGLE,CIRCLE,DIAMOND,1,17,25,36
Other,5,0,25,4,v,2.590275946,m,c,b,n,v,STAR,TRIANGLE,CIRCLE,DIAMOND,1,17,25,36
Other,5,1,26,4,v,3.698319671,m,c,b,n,v,STAR,TRIANGLE,CIRCLE,DIAMOND,1,17,25,36
We,5,2,27,3,n,1.433864228,m,c,b,n,v,STAR,TRIANGLE,CIRCLE,DIAMOND,1,17,25,36
P2,5,3,28,1,c,1.579950856,m,c,b,n,v,STAR,TRIANGLE,CIRCLE,DIAMOND,1,17,25,36
P2,5,4,29,1,c,1.112024054,m,c,b,n,v,STAR,TRIANGLE,CIRCLE,DIAMOND,1,17,25,36
Stranger,6,0,30,2,b,2.647461306,m,c,b,n,v,STAR,TRIANGLE,CIRCLE,DIAMOND,1,17,25,36
Stranger,6,1,31,2,b,0.936897838,m,c,b,n,v,STAR,TRIANGLE,CIRCLE,DIAMOND,1,17,25,36
Other,6,2,32,4,v,1.630968323,m,c,b,n,v,STAR,TRIANGLE,CIRCLE,DIAMOND,1,17,25,36
We,6,3,33,3,n,1.771015762,m,c,b,n,v,STAR,TRIANGLE,CIRCLE,DIAMOND,1,17,25,36
P1,6,4,34,0,m,1.183654197,m,c,b,n,v,STAR,TRIANGLE,CIRCLE,DIAMOND,1,17,25,36
Stranger,7,0,35,2,v,3.419944129,m,c,b,n,v,STAR,TRIANGLE,CIRCLE,DIAMOND,0,17,25,36
Stranger,7,1,36,2,b,3.870777463,m,c,b,n,v,STAR,TRIANGLE,CIRCLE,DIAMOND,1,17,25,36
P1,7,2,37,0,c,2.879373744,m,c,b,n,v,STAR,TRIANGLE,CIRCLE,DIAMOND,0,17,25,36
Other,7,3,38,4,v,9.014703769,m,c,b,n,v,STAR,TRIANGLE,CIRCLE,DIAMOND,1,17,25,36
We,7,4,39,3,n,1.881683693,m,c,b,n,v,STAR,TRIANGLE,CIRCLE,DIAMOND,1,17,25,36
P1,8,0,40,0,m,5.033882942,m,c,b,n,v,STAR,TRIANGLE,CIRCLE,DIAMOND,1,17,25,36
P1,8,1,41,0,m,1.436109036,m,c,b,n,v,STAR,TRIANGLE,CIRCLE,DIAMOND,1,17,25,36
Stranger,8,2,42,2,b,3.566200123,m,c,b,n,v,STAR,TRIANGLE,CIRCLE,DIAMOND,1,17,25,36
Stranger,8,3,43,2,b,1.051036023,m,c,b,n,v,STAR,TRIANGLE,CIRCLE,DIAMOND,1,17,25,36
Other,8,4,44,4,v,1.468479121,m,c,b,n,v,STAR,TRIANGLE,CIRCLE,DIAMOND,1,17,25,36
P2,9,0,45,1,c,1.901238316,m,c,b,n,v,STAR,TRIANGLE,CIRCLE,DIAMOND,1,17,25,36
Other,9,1,46,4,v,4.060773657,m,c,b,n,v,STAR,TRIANGLE,CIRCLE,DIAMOND,1,17,25,36
Other,9,2,47,4,v,1.094265751,m,c,b,n,v,STAR,TRIANGLE,CIRCLE,DIAMOND,1,17,25,36
We,9,3,48,3,n,1.992170413,m,c,b,n,v,STAR,TRIANGLE,CIRCLE,DIAMOND,1,17,25,36
P2,9,4,49,1,c,2.340451236,m,c,b,n,v,STAR,TRIANGLE,CIRCLE,DIAMOND,1,17,25,36
P1,0,0,0,0,v,6.506726923,v,m,n,b,c,TRIANGLE,STAR,PENTAGON,DIAMOND,1,18,29,24
Stranger,0,1,1,2,n,4.898399341,v,m,n,b,c,TRIANGLE,STAR,PENTAGON,DIAMOND,1,18,29,24
P2,0,2,2,1,m,27.78619131,v,m,n,b,c,TRIANGLE,STAR,PENTAGON,DIAMOND,1,18,29,24
P1,0,3,3,0,v,5.713719859,v,m,n,b,c,TRIANGLE,STAR,PENTAGON,DIAMOND,1,18,29,24
Other,0,4,4,4,c,7.080602269,v,m,n,b,c,TRIANGLE,STAR,PENTAGON,DIAMOND,1,18,29,24
We,1,0,5,3,b,8.183160308,v,m,n,b,c,TRIANGLE,STAR,PENTAGON,DIAMOND,1,18,29,24
P1,1,1,6,0,v,3.979841734,v,m,n,b,c,TRIANGLE,STAR,PENTAGON,DIAMOND,1,18,29,24
P1,1,2,7,0,v,6.26419014,v,m,n,b,c,TRIANGLE,STAR,PENTAGON,DIAMOND,1,18,29,24
Other,1,3,8,4,c,5.257235025,v,m,n,b,c,TRIANGLE,STAR,PENTAGON,DIAMOND,1,18,29,24
Other,1,4,9,4,c,3.25087921,v,m,n,b,c,TRIANGLE,STAR,PENTAGON,DIAMOND,1,18,29,24
We,2,0,10,3,b,3.804539439,v,m,n,b,c,TRIANGLE,STAR,PENTAGON,DIAMOND,1,18,29,24
We,2,1,11,3,b,9.71217305,v,m,n,b,c,TRIANGLE,STAR,PENTAGON,DIAMOND,1,18,29,24
Stranger,2,2,12,2,n,4.74535365,v,m,n,b,c,TRIANGLE,STAR,PENTAGON,DIAMOND,1,18,29,24
P2,2,3,13,1,m,3.671565554,v,m,n,b,c,TRIANGLE,STAR,PENTAGON,DIAMOND,1,18,29,24
We,2,4,14,3,b,5.80860465,v,m,n,b,c,TRIANGLE,STAR,PENTAGON,DIAMOND,1,18,29,24
We,3,0,15,3,b,4.94637096,v,m,n,b,c,TRIANGLE,STAR,PENTAGON,DIAMOND,1,18,29,24
P1,3,1,16,0,v,5.128049599,v,m,n,b,c,TRIANGLE,STAR,PENTAGON,DIAMOND,1,18,29,24
Other,3,2,17,4,c,4.695071292,v,m,n,b,c,TRIANGLE,STAR,PENTAGON,DIAMOND,1,18,29,24
P2,3,3,18,1,m,3.719311745,v,m,n,b,c,TRIANGLE,STAR,PENTAGON,DIAMOND,1,18,29,24
P1,3,4,19,0,v,3.390287869,v,m,n,b,c,TRIANGLE,STAR,PENTAGON,DIAMOND,1,18,29,24
P2,4,0,20,1,m,4.1785487,v,m,n,b,c,TRIANGLE,STAR,PENTAGON,DIAMOND,1,18,29,24
Stranger,4,1,21,2,n,5.606905923,v,m,n,b,c,TRIANGLE,STAR,PENTAGON,DIAMOND,1,18,29,24
P2,4,2,22,1,m,3.716408812,v,m,n,b,c,TRIANGLE,STAR,PENTAGON,DIAMOND,1,18,29,24
P1,4,3,23,0,v,2.523268861,v,m,n,b,c,TRIANGLE,STAR,PENTAGON,DIAMOND,1,18,29,24
Stranger,4,4,24,2,n,3.106154627,v,m,n,b,c,TRIANGLE,STAR,PENTAGON,DIAMOND,1,18,29,24
P2,5,0,25,1,m,4.369767971,v,m,n,b,c,TRIANGLE,STAR,PENTAGON,DIAMOND,1,18,29,24
P2,5,1,26,1,m,2.572758074,v,m,n,b,c,TRIANGLE,STAR,PENTAGON,DIAMOND,1,18,29,24
We,5,2,27,3,b,4.385797463,v,m,n,b,c,TRIANGLE,STAR,PENTAGON,DIAMOND,1,18,29,24
Other,5,3,28,4,c,3.693948888,v,m,n,b,c,TRIANGLE,STAR,PENTAGON,DIAMOND,1,18,29,24
P1,5,4,29,0,v,6.118313149,v,m,n,b,c,TRIANGLE,STAR,PENTAGON,DIAMOND,1,18,29,24
Other,6,0,30,4,c,3.229180846,v,m,n,b,c,TRIANGLE,STAR,PENTAGON,DIAMOND,1,18,29,24
Other,6,1,31,4,c,4.423481498,v,m,n,b,c,TRIANGLE,STAR,PENTAGON,DIAMOND,1,18,29,24
P2,6,2,32,1,m,2.466399337,v,m,n,b,c,TRIANGLE,STAR,PENTAGON,DIAMOND,1,18,29,24
Other,6,3,33,4,c,3.147141916,v,m,n,b,c,TRIANGLE,STAR,PENTAGON,DIAMOND,1,18,29,24
Other,6,4,34,4,c,2.138701185,v,m,n,b,c,TRIANGLE,STAR,PENTAGON,DIAMOND,1,18,29,24
Stranger,7,0,35,2,n,4.000917505,v,m,n,b,c,TRIANGLE,STAR,PENTAGON,DIAMOND,1,18,29,24
We,7,1,36,3,b,2.636471775,v,m,n,b,c,TRIANGLE,STAR,PENTAGON,DIAMOND,1,18,29,24
Stranger,7,2,37,2,n,2.526739114,v,m,n,b,c,TRIANGLE,STAR,PENTAGON,DIAMOND,1,18,29,24
Stranger,7,3,38,2,n,2.901235947,v,m,n,b,c,TRIANGLE,STAR,PENTAGON,DIAMOND,1,18,29,24
We,7,4,39,3,b,4.219211467,v,m,n,b,c,TRIANGLE,STAR,PENTAGON,DIAMOND,1,18,29,24
P2,8,0,40,1,m,4.766100161,v,m,n,b,c,TRIANGLE,STAR,PENTAGON,DIAMOND,1,18,29,24
P1,8,1,41,0,v,2.8110966,v,m,n,b,c,TRIANGLE,STAR,PENTAGON,DIAMOND,1,18,29,24
We,8,2,42,3,b,2.182572062,v,m,n,b,c,TRIANGLE,STAR,PENTAGON,DIAMOND,1,18,29,24
Stranger,8,3,43,2,n,3.034767284,v,m,n,b,c,TRIANGLE,STAR,PENTAGON,DIAMOND,1,18,29,24
Other,8,4,44,4,c,2.97234417,v,m,n,b,c,TRIANGLE,STAR,PENTAGON,DIAMOND,1,18,29,24
P2,9,0,45,1,m,6.161238095,v,m,n,b,c,TRIANGLE,STAR,PENTAGON,DIAMOND,1,18,29,24
We,9,1,46,3,b,2.05504083,v,m,n,b,c,TRIANGLE,STAR,PENTAGON,DIAMOND,1,18,29,24
Stranger,9,2,47,2,n,2.496548696,v,m,n,b,c,TRIANGLE,STAR,PENTAGON,DIAMOND,1,18,29,24
Stranger,9,3,48,2,n,1.849797233,v,m,n,b,c,TRIANGLE,STAR,PENTAGON,DIAMOND,1,18,29,24
P1,9,4,49,0,v,3.259271776,v,m,n,b,c,TRIANGLE,STAR,PENTAGON,DIAMOND,1,18,29,24
Stranger,0,0,0,2,m,9.87233888,c,v,m,n,b,TRIANGLE,STAR,DIAMOND,CIRCLE,1,19,26,23
We,0,1,1,3,n,14.52763056,c,v,m,n,b,TRIANGLE,STAR,DIAMOND,CIRCLE,1,19,26,23
Other,0,2,2,4,b,6.838615436,c,v,m,n,b,TRIANGLE,STAR,DIAMOND,CIRCLE,1,19,26,23
P1,0,3,3,0,c,3.58506188,c,v,m,n,b,TRIANGLE,STAR,DIAMOND,CIRCLE,1,19,26,23
We,0,4,4,3,n,7.64543403,c,v,m,n,b,TRIANGLE,STAR,DIAMOND,CIRCLE,1,19,26,23
P2,1,0,5,1,v,8.569051338,c,v,m,n,b,TRIANGLE,STAR,DIAMOND,CIRCLE,1,19,26,23
Stranger,1,1,6,2,m,4.398402104,c,v,m,n,b,TRIANGLE,STAR,DIAMOND,CIRCLE,1,19,26,23
P2,1,2,7,1,v,2.521786798,c,v,m,n,b,TRIANGLE,STAR,DIAMOND,CIRCLE,1,19,26,23
Other,1,3,8,4,b,7.055080704,c,v,m,n,b,TRIANGLE,STAR,DIAMOND,CIRCLE,1,19,26,23
P1,1,4,9,0,c,2.880768951,c,v,m,n,b,TRIANGLE,STAR,DIAMOND,CIRCLE,1,19,26,23
Stranger,2,0,10,2,m,5.705065939,c,v,m,n,b,TRIANGLE,STAR,DIAMOND,CIRCLE,1,19,26,23
We,2,1,11,3,n,3.168744345,c,v,m,n,b,TRIANGLE,STAR,DIAMOND,CIRCLE,1,19,26,23
We,2,2,12,3,n,8.301744681,c,v,m,n,b,TRIANGLE,STAR,DIAMOND,CIRCLE,1,19,26,23
Other,2,3,13,4,b,3.933604058,c,v,m,n,b,TRIANGLE,STAR,DIAMOND,CIRCLE,1,19,26,23
P2,2,4,14,1,v,2.701761104,c,v,m,n,b,TRIANGLE,STAR,DIAMOND,CIRCLE,1,19,26,23
Other,3,0,15,4,b,4.029306076,c,v,m,n,b,TRIANGLE,STAR,DIAMOND,CIRCLE,1,19,26,23
Other,3,1,16,4,b,2.392243292,c,v,m,n,b,TRIANGLE,STAR,DIAMOND,CIRCLE,1,19,26,23
Stranger,3,2,17,2,m,2.948410869,c,v,m,n,b,TRIANGLE,STAR,DIAMOND,CIRCLE,1,19,26,23
Stranger,3,3,18,2,m,1.912117305,c,v,m,n,b,TRIANGLE,STAR,DIAMOND,CIRCLE,1,19,26,23
P1,3,4,19,0,c,2.198853434,c,v,m,n,b,TRIANGLE,STAR,DIAMOND,CIRCLE,1,19,26,23
P2,4,0,20,1,v,1.866405891,c,v,m,n,b,TRIANGLE,STAR,DIAMOND,CIRCLE,1,19,26,23
We,4,1,21,3,n,4.059229217,c,v,m,n,b,TRIANGLE,STAR,DIAMOND,CIRCLE,1,19,26,23
P1,4,2,22,0,c,2.788822625,c,v,m,n,b,TRIANGLE,STAR,DIAMOND,CIRCLE,1,19,26,23
P2,4,3,23,1,v,1.953074984,c,v,m,n,b,TRIANGLE,STAR,DIAMOND,CIRCLE,1,19,26,23
P1,4,4,24,0,c,1.790552619,c,v,m,n,b,TRIANGLE,STAR,DIAMOND,CIRCLE,1,19,26,23
Stranger,5,0,25,2,m,4.274756451,c,v,m,n,b,TRIANGLE,STAR,DIAMOND,CIRCLE,1,19,26,23
P2,5,1,26,1,v,1.955673924,c,v,m,n,b,TRIANGLE,STAR,DIAMOND,CIRCLE,1,19,26,23
We,5,2,27,3,n,3.985159237,c,v,m,n,b,TRIANGLE,STAR,DIAMOND,CIRCLE,1,19,26,23
P1,5,3,28,0,c,2.029469126,c,v,m,n,b,TRIANGLE,STAR,DIAMOND,CIRCLE,1,19,26,23
We,5,4,29,3,n,2.551697305,c,v,m,n,b,TRIANGLE,STAR,DIAMOND,CIRCLE,1,19,26,23
We,6,0,30,3,n,1.181801026,c,v,m,n,b,TRIANGLE,STAR,DIAMOND,CIRCLE,1,19,26,23
We,6,1,31,3,n,1.513897991,c,v,m,n,b,TRIANGLE,STAR,DIAMOND,CIRCLE,1,19,26,23
Other,6,2,32,4,b,2.90470857,c,v,m,n,b,TRIANGLE,STAR,DIAMOND,CIRCLE,1,19,26,23
P2,6,3,33,1,v,3.904072949,c,v,m,n,b,TRIANGLE,STAR,DIAMOND,CIRCLE,1,19,26,23
P1,6,4,34,0,c,1.599624707,c,v,m,n,b,TRIANGLE,STAR,DIAMOND,CIRCLE,1,19,26,23
Stranger,7,0,35,2,m,1.881432603,c,v,m,n,b,TRIANGLE,STAR,DIAMOND,CIRCLE,1,19,26,23
Stranger,7,1,36,2,m,1.113525857,c,v,m,n,b,TRIANGLE,STAR,DIAMOND,CIRCLE,1,19,26,23
P1,7,2,37,0,c,1.790379304,c,v,m,n,b,TRIANGLE,STAR,DIAMOND,CIRCLE,1,19,26,23
P2,7,3,38,1,v,1.276535795,c,v,m,n,b,TRIANGLE,STAR,DIAMOND,CIRCLE,1,19,26,23
Stranger,7,4,39,2,m,1.685377085,c,v,m,n,b,TRIANGLE,STAR,DIAMOND,CIRCLE,1,19,26,23
We,8,0,40,3,n,1.709375923,c,v,m,n,b,TRIANGLE,STAR,DIAMOND,CIRCLE,1,19,26,23
P1,8,1,41,0,c,1.764785887,c,v,m,n,b,TRIANGLE,STAR,DIAMOND,CIRCLE,1,19,26,23
Other,8,2,42,4,b,4.15364578,c,v,m,n,b,TRIANGLE,STAR,DIAMOND,CIRCLE,1,19,26,23
P2,8,3,43,1,v,2.095230632,c,v,m,n,b,TRIANGLE,STAR,DIAMOND,CIRCLE,1,19,26,23
P2,8,4,44,1,v,1.271378974,c,v,m,n,b,TRIANGLE,STAR,DIAMOND,CIRCLE,1,19,26,23
P1,9,0,45,0,c,1.552137503,c,v,m,n,b,TRIANGLE,STAR,DIAMOND,CIRCLE,1,19,26,23
Other,9,1,46,4,b,2.605652447,c,v,m,n,b,TRIANGLE,STAR,DIAMOND,CIRCLE,1,19,26,23
Stranger,9,2,47,2,m,2.033159281,c,v,m,n,b,TRIANGLE,STAR,DIAMOND,CIRCLE,1,19,26,23
Other,9,3,48,4,b,1.947359133,c,v,m,n,b,TRIANGLE,STAR,DIAMOND,CIRCLE,1,19,26,23
Other,9,4,49,4,b,1.064772937,c,v,m,n,b,TRIANGLE,STAR,DIAMOND,CIRCLE,1,19,26,23
We,0,0,0,3,c,12.06788492,v,m,b,c,n,STAR,PENTAGON,TRIANGLE,DIAMOND,1,2,23,24
P2,0,1,1,1,m,6.974829478,v,m,b,c,n,STAR,PENTAGON,TRIANGLE,DIAMOND,1,2,23,24
P2,0,2,2,1,m,3.25154493,v,m,b,c,n,STAR,PENTAGON,TRIANGLE,DIAMOND,1,2,23,24
Stranger,0,3,3,2,b,9.276893504,v,m,b,c,n,STAR,PENTAGON,TRIANGLE,DIAMOND,1,2,23,24
Other,0,4,4,4,n,2.868315881,v,m,b,c,n,STAR,PENTAGON,TRIANGLE,DIAMOND,1,2,23,24
Stranger,1,0,5,2,b,2.061244085,v,m,b,c,n,STAR,PENTAGON,TRIANGLE,DIAMOND,1,2,23,24
Stranger,1,1,6,2,b,8.694536004,v,m,b,c,n,STAR,PENTAGON,TRIANGLE,DIAMOND,1,2,23,24
P2,1,2,7,1,m,2.054707866,v,m,b,c,n,STAR,PENTAGON,TRIANGLE,DIAMOND,1,2,23,24
We,1,3,8,3,c,2.512233301,v,m,b,c,n,STAR,PENTAGON,TRIANGLE,DIAMOND,1,2,23,24
Stranger,1,4,9,2,b,2.103232854,v,m,b,c,n,STAR,PENTAGON,TRIANGLE,DIAMOND,1,2,23,24
Stranger,2,0,10,2,b,2.862654922,v,m,b,c,n,STAR,PENTAGON,TRIANGLE,DIAMOND,1,2,23,24
P2,2,1,11,1,m,1.959457758,v,m,b,c,n,STAR,PENTAGON,TRIANGLE,DIAMOND,1,2,23,24
P2,2,2,12,1,m,2.88695808,v,m,b,c,n,STAR,PENTAGON,TRIANGLE,DIAMOND,1,2,23,24
We,2,3,13,3,c,1.823165202,v,m,b,c,n,STAR,PENTAGON,TRIANGLE,DIAMOND,1,2,23,24
Stranger,2,4,14,2,b,7.154102133,v,m,b,c,n,STAR,PENTAGON,TRIANGLE,DIAMOND,1,2,23,24
P1,3,0,15,0,v,2.653951124,v,m,b,c,n,STAR,PENTAGON,TRIANGLE,DIAMOND,1,2,23,24
P2,3,1,16,1,m,6.623585501,v,m,b,c,n,STAR,PENTAGON,TRIANGLE,DIAMOND,1,2,23,24
P1,3,2,17,0,v,4.770675292,v,m,b,c,n,STAR,PENTAGON,TRIANGLE,DIAMOND,1,2,23,24
Other,3,3,18,4,n,4.25573449,v,m,b,c,n,STAR,PENTAGON,TRIANGLE,DIAMOND,1,2,23,24
Other,3,4,19,4,n,2.033297368,v,m,b,c,n,STAR,PENTAGON,TRIANGLE,DIAMOND,1,2,23,24
Stranger,4,0,20,2,b,2.347469347,v,m,b,c,n,STAR,PENTAGON,TRIANGLE,DIAMOND,1,2,23,24
We,4,1,21,3,c,2.248993373,v,m,b,c,n,STAR,PENTAGON,TRIANGLE,DIAMOND,1,2,23,24
Other,4,2,22,4,n,4.266536069,v,m,b,c,n,STAR,PENTAGON,TRIANGLE,DIAMOND,1,2,23,24
Stranger,4,3,23,2,b,2.027413349,v,m,b,c,n,STAR,PENTAGON,TRIANGLE,DIAMOND,1,2,23,24
Other,4,4,24,4,n,7.558374915,v,m,b,c,n,STAR,PENTAGON,TRIANGLE,DIAMOND,1,2,23,24
Stranger,5,0,25,2,b,1.270048951,v,m,b,c,n,STAR,PENTAGON,TRIANGLE,DIAMOND,1,2,23,24
We,5,1,26,3,c,1.470875808,v,m,b,c,n,STAR,PENTAGON,TRIANGLE,DIAMOND,1,2,23,24
We,5,2,27,3,c,1.551686306,v,m,b,c,n,STAR,PENTAGON,TRIANGLE,DIAMOND,1,2,23,24
P2,5,3,28,1,m,1.853164851,v,m,b,c,n,STAR,PENTAGON,TRIANGLE,DIAMOND,1,2,23,24
P2,5,4,29,1,m,0.750613412,v,m,b,c,n,STAR,PENTAGON,TRIANGLE,DIAMOND,1,2,23,24
Other,6,0,30,4,n,0.940005046,v,m,b,c,n,STAR,PENTAGON,TRIANGLE,DIAMOND,1,2,23,24
P1,6,1,31,0,v,1.410137061,v,m,b,c,n,STAR,PENTAGON,TRIANGLE,DIAMOND,1,2,23,24
We,6,2,32,3,c,0.917420823,v,m,b,c,n,STAR,PENTAGON,TRIANGLE,DIAMOND,1,2,23,24
We,6,3,33,3,c,0.714467602,v,m,b,c,n,STAR,PENTAGON,TRIANGLE,DIAMOND,1,2,23,24
P1,6,4,34,0,v,0.777266387,v,m,b,c,n,STAR,PENTAGON,TRIANGLE,DIAMOND,1,2,23,24
Other,7,0,35,4,n,1.173762112,v,m,b,c,n,STAR,PENTAGON,TRIANGLE,DIAMOND,1,2,23,24
P2,7,1,36,1,m,0.866788027,v,m,b,c,n,STAR,PENTAGON,TRIANGLE,DIAMOND,1,2,23,24
Other,7,2,37,4,n,0.699545552,v,m,b,c,n,STAR,PENTAGON,TRIANGLE,DIAMOND,1,2,23,24
Other,7,3,38,4,n,0.538933257,v,m,b,c,n,STAR,PENTAGON,TRIANGLE,DIAMOND,1,2,23,24
P1,7,4,39,0,v,1.040987571,v,m,b,c,n,STAR,PENTAGON,TRIANGLE,DIAMOND,1,2,23,24
We,8,0,40,3,c,0.803620108,v,m,b,c,n,STAR,PENTAGON,TRIANGLE,DIAMOND,1,2,23,24
P1,8,1,41,0,v,0.87853198,v,m,b,c,n,STAR,PENTAGON,TRIANGLE,DIAMOND,1,2,23,24
We,8,2,42,3,c,0.839318616,v,m,b,c,n,STAR,PENTAGON,TRIANGLE,DIAMOND,1,2,23,24
Stranger,8,3,43,2,b,1.377365165,v,m,b,c,n,STAR,PENTAGON,TRIANGLE,DIAMOND,1,2,23,24
P1,8,4,44,0,v,0.742135989,v,m,b,c,n,STAR,PENTAGON,TRIANGLE,DIAMOND,1,2,23,24
P1,9,0,45,0,v,0.660226383,v,m,b,c,n,STAR,PENTAGON,TRIANGLE,DIAMOND,1,2,23,24
P2,9,1,46,1,m,1.477644166,v,m,b,c,n,STAR,PENTAGON,TRIANGLE,DIAMOND,1,2,23,24
Other,9,2,47,4,n,1.350500185,v,m,b,c,n,STAR,PENTAGON,TRIANGLE,DIAMOND,1,2,23,24
P1,9,3,48,0,v,2.347918623,v,m,b,c,n,STAR,PENTAGON,TRIANGLE,DIAMOND,1,2,23,24
P1,9,4,49,0,v,0.825431718,v,m,b,c,n,STAR,PENTAGON,TRIANGLE,DIAMOND,1,2,23,24
P1,0,0,0,0,n,3.662156928,n,b,v,m,c,TRIANGLE,STAR,PENTAGON,CIRCLE,1,3,26,30
We,0,1,1,3,m,4.999184749,n,b,v,m,c,TRIANGLE,STAR,PENTAGON,CIRCLE,1,3,26,30
We,0,2,2,3,m,2.010796841,n,b,v,m,c,TRIANGLE,STAR,PENTAGON,CIRCLE,1,3,26,30
Other,0,3,3,4,c,9.893672746,n,b,v,m,c,TRIANGLE,STAR,PENTAGON,CIRCLE,1,3,26,30
We,0,4,4,3,m,2.632316777,n,b,v,m,c,TRIANGLE,STAR,PENTAGON,CIRCLE,1,3,26,30
We,1,0,5,3,m,2.634325886,n,b,v,m,c,TRIANGLE,STAR,PENTAGON,CIRCLE,1,3,26,30
Other,1,1,6,4,c,1.868691726,n,b,v,m,c,TRIANGLE,STAR,PENTAGON,CIRCLE,1,3,26,30
We,1,2,7,3,m,1.821519304,n,b,v,m,c,TRIANGLE,STAR,PENTAGON,CIRCLE,1,3,26,30
P2,1,3,8,1,b,4.496404803,n,b,v,m,c,TRIANGLE,STAR,PENTAGON,CIRCLE,1,3,26,30
P1,1,4,9,0,n,1.958843063,n,b,v,m,c,TRIANGLE,STAR,PENTAGON,CIRCLE,1,3,26,30
Stranger,2,0,10,2,v,2.180288855,n,b,v,m,c,TRIANGLE,STAR,PENTAGON,CIRCLE,1,3,26,30
P1,2,1,11,0,n,4.792455318,n,b,v,m,c,TRIANGLE,STAR,PENTAGON,CIRCLE,1,3,26,30
Other,2,2,12,4,c,2.100845137,n,b,v,m,c,TRIANGLE,STAR,PENTAGON,CIRCLE,1,3,26,30
Other,2,3,13,4,c,1.244295712,n,b,v,m,c,TRIANGLE,STAR,PENTAGON,CIRCLE,1,3,26,30
We,2,4,14,3,m,1.590495005,n,b,v,m,c,TRIANGLE,STAR,PENTAGON,CIRCLE,1,3,26,30
We,3,0,15,3,m,2.754630447,n,b,v,m,c,TRIANGLE,STAR,PENTAGON,CIRCLE,1,3,26,30
Stranger,3,1,16,2,v,2.224173823,n,b,v,m,c,TRIANGLE,STAR,PENTAGON,CIRCLE,1,3,26,30
P2,3,2,17,1,b,2.370982126,n,b,v,m,c,TRIANGLE,STAR,PENTAGON,CIRCLE,1,3,26,30
P2,3,3,18,1,b,1.407882389,n,b,v,m,c,TRIANGLE,STAR,PENTAGON,CIRCLE,1,3,26,30
Stranger,3,4,19,2,v,7.011287571,n,b,v,m,c,TRIANGLE,STAR,PENTAGON,CIRCLE,1,3,26,30
P1,4,0,20,0,n,2.425091879,n,b,v,m,c,TRIANGLE,STAR,PENTAGON,CIRCLE,1,3,26,30
P1,4,1,21,0,n,1.251983941,n,b,v,m,c,TRIANGLE,STAR,PENTAGON,CIRCLE,1,3,26,30
Stranger,4,2,22,2,v,1.805322462,n,b,v,m,c,TRIANGLE,STAR,PENTAGON,CIRCLE,1,3,26,30
Stranger,4,3,23,2,v,0.960905469,n,b,v,m,c,TRIANGLE,STAR,PENTAGON,CIRCLE,1,3,26,30
We,4,4,24,3,m,4.390277316,n,b,v,m,c,TRIANGLE,STAR,PENTAGON,CIRCLE,1,3,26,30
Other,5,0,25,4,c,1.266433817,n,b,v,m,c,TRIANGLE,STAR,PENTAGON,CIRCLE,1,3,26,30
Stranger,5,1,26,2,v,2.12152566,n,b,v,m,c,TRIANGLE,STAR,PENTAGON,CIRCLE,1,3,26,30
We,5,2,27,3,m,2.20840257,n,b,v,m,c,TRIANGLE,STAR,PENTAGON,CIRCLE,1,3,26,30
P2,5,3,28,1,b,2.819904989,n,b,v,m,c,TRIANGLE,STAR,PENTAGON,CIRCLE,1,3,26,30
P1,5,4,29,0,n,1.774849455,n,b,v,m,c,TRIANGLE,STAR,PENTAGON,CIRCLE,1,3,26,30
P2,6,0,30,1,b,1.411578456,n,b,v,m,c,TRIANGLE,STAR,PENTAGON,CIRCLE,1,3,26,30
P2,6,1,31,1,b,0.918988157,n,b,v,m,c,TRIANGLE,STAR,PENTAGON,CIRCLE,1,3,26,30
Other,6,2,32,4,c,1.213787568,n,b,v,m,c,TRIANGLE,STAR,PENTAGON,CIRCLE,1,3,26,30
P1,6,3,33,0,n,2.008124082,n,b,v,m,c,TRIANGLE,STAR,PENTAGON,CIRCLE,1,3,26,30
P2,6,4,34,1,b,1.156035442,n,b,v,m,c,TRIANGLE,STAR,PENTAGON,CIRCLE,1,3,26,30
Stranger,7,0,35,2,v,1.203428554,n,b,v,m,c,TRIANGLE,STAR,PENTAGON,CIRCLE,1,3,26,30
P1,7,1,36,0,n,2.478656419,n,b,v,m,c,TRIANGLE,STAR,PENTAGON,CIRCLE,1,3,26,30
Stranger,7,2,37,2,v,2.981942097,n,b,v,m,c,TRIANGLE,STAR,PENTAGON,CIRCLE,1,3,26,30
P2,7,3,38,1,b,2.138126771,n,b,v,m,c,TRIANGLE,STAR,PENTAGON,CIRCLE,1,3,26,30
We,7,4,39,3,m,2.592226574,n,b,v,m,c,TRIANGLE,STAR,PENTAGON,CIRCLE,1,3,26,30
Other,8,0,40,4,c,1.332416226,n,b,v,m,c,TRIANGLE,STAR,PENTAGON,CIRCLE,1,3,26,30
P2,8,1,41,1,b,2.492462385,n,b,v,m,c,TRIANGLE,STAR,PENTAGON,CIRCLE,1,3,26,30
Stranger,8,2,42,2,v,2.260600727,n,b,v,m,c,TRIANGLE,STAR,PENTAGON,CIRCLE,1,3,26,30
Stranger,8,3,43,2,v,0.854192501,n,b,v,m,c,TRIANGLE,STAR,PENTAGON,CIRCLE,1,3,26,30
Other,8,4,44,4,c,1.167579629,n,b,v,m,c,TRIANGLE,STAR,PENTAGON,CIRCLE,1,3,26,30
P1,9,0,45,0,n,1.372376146,n,b,v,m,c,TRIANGLE,STAR,PENTAGON,CIRCLE,1,3,26,30
P1,9,1,46,0,n,1.057107032,n,b,v,m,c,TRIANGLE,STAR,PENTAGON,CIRCLE,1,3,26,30
P2,9,2,47,1,b,1.266453162,n,b,v,m,c,TRIANGLE,STAR,PENTAGON,CIRCLE,1,3,26,30
Other,9,3,48,4,c,1.065456148,n,b,v,m,c,TRIANGLE,STAR,PENTAGON,CIRCLE,1,3,26,30
Other,9,4,49,4,c,1.258306971,n,b,v,m,c,TRIANGLE,STAR,PENTAGON,CIRCLE,1,3,26,30
Stranger,0,0,0,2,m,8.405797874,b,v,m,c,n,STAR,CIRCLE,DIAMOND,TRIANGLE,1,4,25,21
Other,0,1,1,4,n,4.225608112,b,v,m,c,n,STAR,CIRCLE,DIAMOND,TRIANGLE,1,4,25,21
P1,0,2,2,0,b,6.006495555,b,v,m,c,n,STAR,CIRCLE,DIAMOND,TRIANGLE,1,4,25,21
We,0,3,3,3,c,3.474177475,b,v,m,c,n,STAR,CIRCLE,DIAMOND,TRIANGLE,1,4,25,21
Other,0,4,4,4,n,3.683141049,b,v,m,c,n,STAR,CIRCLE,DIAMOND,TRIANGLE,1,4,25,21
P2,1,0,5,1,v,7.129656454,b,v,m,c,n,STAR,CIRCLE,DIAMOND,TRIANGLE,1,4,25,21
Stranger,1,1,6,2,m,2.728031163,b,v,m,c,n,STAR,CIRCLE,DIAMOND,TRIANGLE,1,4,25,21
Stranger,1,2,7,2,m,2.294749667,b,v,m,c,n,STAR,CIRCLE,DIAMOND,TRIANGLE,1,4,25,21
We,1,3,8,3,c,3.559120682,b,v,m,c,n,STAR,CIRCLE,DIAMOND,TRIANGLE,1,4,25,21
P1,1,4,9,0,b,3.236671045,b,v,m,c,n,STAR,CIRCLE,DIAMOND,TRIANGLE,1,4,25,21
P1,2,0,10,0,b,1.390866744,b,v,m,c,n,STAR,CIRCLE,DIAMOND,TRIANGLE,1,4,25,21
P2,2,1,11,1,v,1.251030907,b,v,m,c,n,STAR,CIRCLE,DIAMOND,TRIANGLE,1,4,25,21
Other,2,2,12,4,n,4.284448687,b,v,m,c,n,STAR,CIRCLE,DIAMOND,TRIANGLE,1,4,25,21
Stranger,2,3,13,2,m,4.540855117,b,v,m,c,n,STAR,CIRCLE,DIAMOND,TRIANGLE,1,4,25,21
P2,2,4,14,1,v,3.781012988,b,v,m,c,n,STAR,CIRCLE,DIAMOND,TRIANGLE,1,4,25,21
We,3,0,15,3,c,2.233351612,b,v,m,c,n,STAR,CIRCLE,DIAMOND,TRIANGLE,1,4,25,21
Other,3,1,16,4,n,5.515471801,b,v,m,c,n,STAR,CIRCLE,DIAMOND,TRIANGLE,1,4,25,21
P2,3,2,17,1,v,3.258270255,b,v,m,c,n,STAR,CIRCLE,DIAMOND,TRIANGLE,1,4,25,21
We,3,3,18,3,c,2.498180195,b,v,m,c,n,STAR,CIRCLE,DIAMOND,TRIANGLE,1,4,25,21
Stranger,3,4,19,2,m,2.105707426,b,v,m,c,n,STAR,CIRCLE,DIAMOND,TRIANGLE,1,4,25,21
We,4,0,20,3,c,4.209243088,b,v,m,c,n,STAR,CIRCLE,DIAMOND,TRIANGLE,1,4,25,21
P1,4,1,21,0,b,1.908806406,b,v,m,c,n,STAR,CIRCLE,DIAMOND,TRIANGLE,1,4,25,21
Other,4,2,22,4,n,5.17235309,b,v,m,c,n,STAR,CIRCLE,DIAMOND,TRIANGLE,1,4,25,21
Other,4,3,23,4,n,3.665380031,b,v,m,c,n,STAR,CIRCLE,DIAMOND,TRIANGLE,1,4,25,21
Stranger,4,4,24,2,m,4.234293987,b,v,m,c,n,STAR,CIRCLE,DIAMOND,TRIANGLE,1,4,25,21
Other,5,0,25,4,n,1.324503358,b,v,m,c,n,STAR,CIRCLE,DIAMOND,TRIANGLE,1,4,25,21
We,5,1,26,3,c,1.763343957,b,v,m,c,n,STAR,CIRCLE,DIAMOND,TRIANGLE,1,4,25,21
Stranger,5,2,27,2,m,1.544133491,b,v,m,c,n,STAR,CIRCLE,DIAMOND,TRIANGLE,1,4,25,21
We,5,3,28,3,c,2.584170002,b,v,m,c,n,STAR,CIRCLE,DIAMOND,TRIANGLE,1,4,25,21
P1,5,4,29,0,b,1.836388056,b,v,m,c,n,STAR,CIRCLE,DIAMOND,TRIANGLE,1,4,25,21
Other,6,0,30,4,v,3.726680176,b,v,m,c,n,STAR,CIRCLE,DIAMOND,TRIANGLE,0,4,25,21
Other,6,1,31,4,n,4.56551359,b,v,m,c,n,STAR,CIRCLE,DIAMOND,TRIANGLE,1,4,25,21
P2,6,2,32,1,v,2.328610801,b,v,m,c,n,STAR,CIRCLE,DIAMOND,TRIANGLE,1,4,25,21
We,6,3,33,3,c,4.983427709,b,v,m,c,n,STAR,CIRCLE,DIAMOND,TRIANGLE,1,4,25,21
P1,6,4,34,0,b,1.499758583,b,v,m,c,n,STAR,CIRCLE,DIAMOND,TRIANGLE,1,4,25,21
Other,7,0,35,4,n,6.091236232,b,v,m,c,n,STAR,CIRCLE,DIAMOND,TRIANGLE,1,4,25,21
Stranger,7,1,36,2,m,1.5556078,b,v,m,c,n,STAR,CIRCLE,DIAMOND,TRIANGLE,1,4,25,21
We,7,2,37,3,c,1.921094386,b,v,m,c,n,STAR,CIRCLE,DIAMOND,TRIANGLE,1,4,25,21
P2,7,3,38,1,b,1.535900445,b,v,m,c,n,STAR,CIRCLE,DIAMOND,TRIANGLE,0,4,25,21
We,7,4,39,3,c,3.422050776,b,v,m,c,n,STAR,CIRCLE,DIAMOND,TRIANGLE,1,4,25,21
P1,8,0,40,0,b,1.824992706,b,v,m,c,n,STAR,CIRCLE,DIAMOND,TRIANGLE,1,4,25,21
Stranger,8,1,41,2,m,1.363824106,b,v,m,c,n,STAR,CIRCLE,DIAMOND,TRIANGLE,1,4,25,21
P1,8,2,42,0,b,2.616520652,b,v,m,c,n,STAR,CIRCLE,DIAMOND,TRIANGLE,1,4,25,21
P2,8,3,43,1,v,1.005301696,b,v,m,c,n,STAR,CIRCLE,DIAMOND,TRIANGLE,1,4,25,21
P1,8,4,44,0,b,1.088728892,b,v,m,c,n,STAR,CIRCLE,DIAMOND,TRIANGLE,1,4,25,21
P1,9,0,45,0,b,0.896789649,b,v,m,c,n,STAR,CIRCLE,DIAMOND,TRIANGLE,1,4,25,21
P2,9,1,46,1,v,1.000901316,b,v,m,c,n,STAR,CIRCLE,DIAMOND,TRIANGLE,1,4,25,21
P2,9,2,47,1,v,1.516345876,b,v,m,c,n,STAR,CIRCLE,DIAMOND,TRIANGLE,1,4,25,21
Stranger,9,3,48,2,m,2.491171407,b,v,m,c,n,STAR,CIRCLE,DIAMOND,TRIANGLE,1,4,25,21
P2,9,4,49,1,v,1.475313299,b,v,m,c,n,STAR,CIRCLE,DIAMOND,TRIANGLE,1,4,25,21
P1,0,0,0,0,b,5.765174225,b,c,m,n,v,TRIANGLE,PENTAGON,DIAMOND,CIRCLE,1,5,20,21
P2,0,1,1,1,c,2.938092266,b,c,m,n,v,TRIANGLE,PENTAGON,DIAMOND,CIRCLE,1,5,20,21
P2,0,2,2,1,c,2.768285206,b,c,m,n,v,TRIANGLE,PENTAGON,DIAMOND,CIRCLE,1,5,20,21
P2,0,3,3,1,c,2.09311427,b,c,m,n,v,TRIANGLE,PENTAGON,DIAMOND,CIRCLE,1,5,20,21
Other,0,4,4,4,v,4.10105872,b,c,m,n,v,TRIANGLE,PENTAGON,DIAMOND,CIRCLE,1,5,20,21
P1,1,0,5,0,b,3.612864854,b,c,m,n,v,TRIANGLE,PENTAGON,DIAMOND,CIRCLE,1,5,20,21
P1,1,1,6,0,b,3.177725849,b,c,m,n,v,TRIANGLE,PENTAGON,DIAMOND,CIRCLE,1,5,20,21
Other,1,2,7,4,v,3.350591382,b,c,m,n,v,TRIANGLE,PENTAGON,DIAMOND,CIRCLE,1,5,20,21
P2,1,3,8,1,c,2.252039607,b,c,m,n,v,TRIANGLE,PENTAGON,DIAMOND,CIRCLE,1,5,20,21
Stranger,1,4,9,2,m,4.669624862,b,c,m,n,v,TRIANGLE,PENTAGON,DIAMOND,CIRCLE,1,5,20,21
P1,2,0,10,0,b,2.572606469,b,c,m,n,v,TRIANGLE,PENTAGON,DIAMOND,CIRCLE,1,5,20,21
We,2,1,11,3,n,3.617451972,b,c,m,n,v,TRIANGLE,PENTAGON,DIAMOND,CIRCLE,1,5,20,21
P1,2,2,12,0,b,3.452325991,b,c,m,n,v,TRIANGLE,PENTAGON,DIAMOND,CIRCLE,1,5,20,21
We,2,3,13,3,n,3.357865867,b,c,m,n,v,TRIANGLE,PENTAGON,DIAMOND,CIRCLE,1,5,20,21
Other,2,4,14,4,v,3.171414663,b,c,m,n,v,TRIANGLE,PENTAGON,DIAMOND,CIRCLE,1,5,20,21
Other,3,0,15,4,v,2.592303954,b,c,m,n,v,TRIANGLE,PENTAGON,DIAMOND,CIRCLE,1,5,20,21
P2,3,1,16,1,c,4.308469962,b,c,m,n,v,TRIANGLE,PENTAGON,DIAMOND,CIRCLE,1,5,20,21
We,3,2,17,3,n,2.88404805,b,c,m,n,v,TRIANGLE,PENTAGON,DIAMOND,CIRCLE,1,5,20,21
Stranger,3,3,18,2,m,1.900255156,b,c,m,n,v,TRIANGLE,PENTAGON,DIAMOND,CIRCLE,1,5,20,21
Other,3,4,19,4,v,1.947707882,b,c,m,n,v,TRIANGLE,PENTAGON,DIAMOND,CIRCLE,1,5,20,21
Stranger,4,0,20,2,m,6.379149241,b,c,m,n,v,TRIANGLE,PENTAGON,DIAMOND,CIRCLE,1,5,20,21
We,4,1,21,3,n,2.968185481,b,c,m,n,v,TRIANGLE,PENTAGON,DIAMOND,CIRCLE,1,5,20,21
P1,4,2,22,0,b,2.317006605,b,c,m,n,v,TRIANGLE,PENTAGON,DIAMOND,CIRCLE,1,5,20,21
Other,4,3,23,4,v,6.411578851,b,c,m,n,v,TRIANGLE,PENTAGON,DIAMOND,CIRCLE,1,5,20,21
Other,4,4,24,4,v,6.789695309,b,c,m,n,v,TRIANGLE,PENTAGON,DIAMOND,CIRCLE,1,5,20,21
Other,5,0,25,4,v,1.746030242,b,c,m,n,v,TRIANGLE,PENTAGON,DIAMOND,CIRCLE,1,5,20,21
P1,5,1,26,0,b,6.439553598,b,c,m,n,v,TRIANGLE,PENTAGON,DIAMOND,CIRCLE,1,5,20,21
P2,5,2,27,1,c,1.986027826,b,c,m,n,v,TRIANGLE,PENTAGON,DIAMOND,CIRCLE,1,5,20,21
We,5,3,28,3,n,5.022095072,b,c,m,n,v,TRIANGLE,PENTAGON,DIAMOND,CIRCLE,1,5,20,21
Stranger,5,4,29,2,m,3.488981087,b,c,m,n,v,TRIANGLE,PENTAGON,DIAMOND,CIRCLE,1,5,20,21
We,6,0,30,3,n,2.62519113,b,c,m,n,v,TRIANGLE,PENTAGON,DIAMOND,CIRCLE,1,5,20,21
We,6,1,31,3,n,2.085921508,b,c,m,n,v,TRIANGLE,PENTAGON,DIAMOND,CIRCLE,1,5,20,21
P2,6,2,32,1,c,2.366024691,b,c,m,n,v,TRIANGLE,PENTAGON,DIAMOND,CIRCLE,1,5,20,21
Stranger,6,3,33,2,m,1.530929192,b,c,m,n,v,TRIANGLE,PENTAGON,DIAMOND,CIRCLE,1,5,20,21
P1,6,4,34,0,b,1.785007124,b,c,m,n,v,TRIANGLE,PENTAGON,DIAMOND,CIRCLE,1,5,20,21
Other,7,0,35,4,v,3.405156728,b,c,m,n,v,TRIANGLE,PENTAGON,DIAMOND,CIRCLE,1,5,20,21
Stranger,7,1,36,2,m,1.232484643,b,c,m,n,v,TRIANGLE,PENTAGON,DIAMOND,CIRCLE,1,5,20,21
Stranger,7,2,37,2,m,0.936845505,b,c,m,n,v,TRIANGLE,PENTAGON,DIAMOND,CIRCLE,1,5,20,21
Stranger,7,3,38,2,m,0.670921762,b,c,m,n,v,TRIANGLE,PENTAGON,DIAMOND,CIRCLE,1,5,20,21
P2,7,4,39,1,c,3.183714093,b,c,m,n,v,TRIANGLE,PENTAGON,DIAMOND,CIRCLE,1,5,20,21
P2,8,0,40,1,c,1.099893682,b,c,m,n,v,TRIANGLE,PENTAGON,DIAMOND,CIRCLE,1,5,20,21
We,8,1,41,3,n,1.451318081,b,c,m,n,v,TRIANGLE,PENTAGON,DIAMOND,CIRCLE,1,5,20,21
P2,8,2,42,1,c,1.996767817,b,c,m,n,v,TRIANGLE,PENTAGON,DIAMOND,CIRCLE,1,5,20,21
P1,8,3,43,0,b,1.368212248,b,c,m,n,v,TRIANGLE,PENTAGON,DIAMOND,CIRCLE,1,5,20,21
We,8,4,44,3,n,2.284973764,b,c,m,n,v,TRIANGLE,PENTAGON,DIAMOND,CIRCLE,1,5,20,21
Stranger,9,0,45,2,m,0.989176312,b,c,m,n,v,TRIANGLE,PENTAGON,DIAMOND,CIRCLE,1,5,20,21
We,9,1,46,3,b,1.569215974,b,c,m,n,v,TRIANGLE,PENTAGON,DIAMOND,CIRCLE,0,5,20,21
Stranger,9,2,47,2,m,8.958094137,b,c,m,n,v,TRIANGLE,PENTAGON,DIAMOND,CIRCLE,1,5,20,21
P1,9,3,48,0,b,1.667872369,b,c,m,n,v,TRIANGLE,PENTAGON,DIAMOND,CIRCLE,1,5,20,21
Other,9,4,49,4,v,2.220685419,b,c,m,n,v,TRIANGLE,PENTAGON,DIAMOND,CIRCLE,1,5,20,21
Stranger,0,0,0,2,b,7.375680971,n,c,b,m,v,STAR,TRIANGLE,PENTAGON,DIAMOND,1,6,29,31
P2,0,1,1,1,c,7.396817877,n,c,b,m,v,STAR,TRIANGLE,PENTAGON,DIAMOND,1,6,29,31
Other,0,2,2,4,v,4.552516559,n,c,b,m,v,STAR,TRIANGLE,PENTAGON,DIAMOND,1,6,29,31
P1,0,3,3,0,n,2.878048752,n,c,b,m,v,STAR,TRIANGLE,PENTAGON,DIAMOND,1,6,29,31
We,0,4,4,3,m,2.55090856,n,c,b,m,v,STAR,TRIANGLE,PENTAGON,DIAMOND,1,6,29,31
Stranger,1,0,5,2,b,3.758324144,n,c,b,m,v,STAR,TRIANGLE,PENTAGON,DIAMOND,1,6,29,31
Stranger,1,1,6,2,b,2.163854348,n,c,b,m,v,STAR,TRIANGLE,PENTAGON,DIAMOND,1,6,29,31
Stranger,1,2,7,2,b,1.817342377,n,c,b,m,v,STAR,TRIANGLE,PENTAGON,DIAMOND,1,6,29,31
Other,1,3,8,4,v,2.412132747,n,c,b,m,v,STAR,TRIANGLE,PENTAGON,DIAMOND,1,6,29,31
Stranger,1,4,9,2,b,2.807462644,n,c,b,m,v,STAR,TRIANGLE,PENTAGON,DIAMOND,1,6,29,31
Other,2,0,10,4,v,4.17734961,n,c,b,m,v,STAR,TRIANGLE,PENTAGON,DIAMOND,1,6,29,31
P2,2,1,11,1,c,4.00618801,n,c,b,m,v,STAR,TRIANGLE,PENTAGON,DIAMOND,1,6,29,31
We,2,2,12,3,m,3.729767075,n,c,b,m,v,STAR,TRIANGLE,PENTAGON,DIAMOND,1,6,29,31
We,2,3,13,3,m,1.303994176,n,c,b,m,v,STAR,TRIANGLE,PENTAGON,DIAMOND,1,6,29,31
Stranger,2,4,14,2,b,4.271482844,n,c,b,m,v,STAR,TRIANGLE,PENTAGON,DIAMOND,1,6,29,31
P2,3,0,15,1,c,2.528302229,n,c,b,m,v,STAR,TRIANGLE,PENTAGON,DIAMOND,1,6,29,31
Other,3,1,16,4,v,4.311189702,n,c,b,m,v,STAR,TRIANGLE,PENTAGON,DIAMOND,1,6,29,31
P1,3,2,17,0,n,3.958792529,n,c,b,m,v,STAR,TRIANGLE,PENTAGON,DIAMOND,1,6,29,31
P2,3,3,18,1,c,2.500281291,n,c,b,m,v,STAR,TRIANGLE,PENTAGON,DIAMOND,1,6,29,31
P2,3,4,19,1,c,1.325645893,n,c,b,m,v,STAR,TRIANGLE,PENTAGON,DIAMOND,1,6,29,31
P1,4,0,20,0,n,4.292490652,n,c,b,m,v,STAR,TRIANGLE,PENTAGON,DIAMOND,1,6,29,31
P1,4,1,21,0,n,0.980682702,n,c,b,m,v,STAR,TRIANGLE,PENTAGON,DIAMOND,1,6,29,31
We,4,2,22,3,m,4.073526538,n,c,b,m,v,STAR,TRIANGLE,PENTAGON,DIAMOND,1,6,29,31
P1,4,3,23,0,n,3.266132589,n,c,b,m,v,STAR,TRIANGLE,PENTAGON,DIAMOND,1,6,29,31
Other,4,4,24,4,v,2.809373844,n,c,b,m,v,STAR,TRIANGLE,PENTAGON,DIAMOND,1,6,29,31
Other,5,0,25,4,v,1.108850386,n,c,b,m,v,STAR,TRIANGLE,PENTAGON,DIAMOND,1,6,29,31
Other,5,1,26,4,v,1.300354565,n,c,b,m,v,STAR,TRIANGLE,PENTAGON,DIAMOND,1,6,29,31
Stranger,5,2,27,2,b,3.707759253,n,c,b,m,v,STAR,TRIANGLE,PENTAGON,DIAMOND,1,6,29,31
P1,5,3,28,0,n,2.67530793,n,c,b,m,v,STAR,TRIANGLE,PENTAGON,DIAMOND,1,6,29,31
Other,5,4,29,4,v,2.660139133,n,c,b,m,v,STAR,TRIANGLE,PENTAGON,DIAMOND,1,6,29,31
Stranger,6,0,30,2,b,1.95757972,n,c,b,m,v,STAR,TRIANGLE,PENTAGON,DIAMOND,1,6,29,31
P2,6,1,31,1,c,2.739028956,n,c,b,m,v,STAR,TRIANGLE,PENTAGON,DIAMOND,1,6,29,31
P1,6,2,32,0,n,1.953272117,n,c,b,m,v,STAR,TRIANGLE,PENTAGON,DIAMOND,1,6,29,31
We,6,3,33,3,m,2.65461122,n,c,b,m,v,STAR,TRIANGLE,PENTAGON,DIAMOND,1,6,29,31
P1,6,4,34,0,n,3.088263429,n,c,b,m,v,STAR,TRIANGLE,PENTAGON,DIAMOND,1,6,29,31
We,7,0,35,3,m,2.288374919,n,c,b,m,v,STAR,TRIANGLE,PENTAGON,DIAMOND,1,6,29,31
P2,7,1,36,1,c,2.914457495,n,c,b,m,v,STAR,TRIANGLE,PENTAGON,DIAMOND,1,6,29,31
P1,7,2,37,0,n,6.777415225,n,c,b,m,v,STAR,TRIANGLE,PENTAGON,DIAMOND,1,6,29,31
P2,7,3,38,1,c,2.534366669,n,c,b,m,v,STAR,TRIANGLE,PENTAGON,DIAMOND,1,6,29,31
We,7,4,39,3,m,2.668294405,n,c,b,m,v,STAR,TRIANGLE,PENTAGON,DIAMOND,1,6,29,31
Other,8,0,40,4,v,2.395442413,n,c,b,m,v,STAR,TRIANGLE,PENTAGON,DIAMOND,1,6,29,31
P2,8,1,41,1,c,3.015596359,n,c,b,m,v,STAR,TRIANGLE,PENTAGON,DIAMOND,1,6,29,31
P2,8,2,42,1,c,1.338423814,n,c,b,m,v,STAR,TRIANGLE,PENTAGON,DIAMOND,1,6,29,31
P1,8,3,43,0,n,1.840514054,n,c,b,m,v,STAR,TRIANGLE,PENTAGON,DIAMOND,1,6,29,31
We,8,4,44,3,m,3.202672522,n,c,b,m,v,STAR,TRIANGLE,PENTAGON,DIAMOND,1,6,29,31
Stranger,9,0,45,2,b,2.174224021,n,c,b,m,v,STAR,TRIANGLE,PENTAGON,DIAMOND,1,6,29,31
We,9,1,46,3,m,3.187127882,n,c,b,m,v,STAR,TRIANGLE,PENTAGON,DIAMOND,1,6,29,31
Other,9,2,47,4,v,2.97529573,n,c,b,m,v,STAR,TRIANGLE,PENTAGON,DIAMOND,1,6,29,31
We,9,3,48,3,m,2.148051512,n,c,b,m,v,STAR,TRIANGLE,PENTAGON,DIAMOND,1,6,29,31
Stranger,9,4,49,2,b,1.769520913,n,c,b,m,v,STAR,TRIANGLE,PENTAGON,DIAMOND,1,6,29,31
Stranger,0,0,0,2,b,21.32730087,m,c,b,n,v,STAR,CIRCLE,DIAMOND,TRIANGLE,1,7,29,27
Stranger,0,1,1,2,b,5.446469214,m,c,b,n,v,STAR,CIRCLE,DIAMOND,TRIANGLE,1,7,29,27
We,0,2,2,3,n,7.848209784,m,c,b,n,v,STAR,CIRCLE,DIAMOND,TRIANGLE,1,7,29,27
P2,0,3,3,1,c,6.3799791,m,c,b,n,v,STAR,CIRCLE,DIAMOND,TRIANGLE,1,7,29,27
P2,0,4,4,1,c,2.457023257,m,c,b,n,v,STAR,CIRCLE,DIAMOND,TRIANGLE,1,7,29,27
We,1,0,5,3,n,2.85067804,m,c,b,n,v,STAR,CIRCLE,DIAMOND,TRIANGLE,1,7,29,27
Stranger,1,1,6,2,b,2.427678967,m,c,b,n,v,STAR,CIRCLE,DIAMOND,TRIANGLE,1,7,29,27
Stranger,1,2,7,2,b,2.020953721,m,c,b,n,v,STAR,CIRCLE,DIAMOND,TRIANGLE,1,7,29,27
Other,1,3,8,4,v,6.559886584,m,c,b,n,v,STAR,CIRCLE,DIAMOND,TRIANGLE,1,7,29,27
P1,1,4,9,0,m,4.613706556,m,c,b,n,v,STAR,CIRCLE,DIAMOND,TRIANGLE,1,7,29,27
Stranger,2,0,10,2,b,1.896608833,m,c,b,n,v,STAR,CIRCLE,DIAMOND,TRIANGLE,1,7,29,27
P2,2,1,11,1,c,2.392074815,m,c,b,n,v,STAR,CIRCLE,DIAMOND,TRIANGLE,1,7,29,27
P1,2,2,12,0,m,5.492302493,m,c,b,n,v,STAR,CIRCLE,DIAMOND,TRIANGLE,1,7,29,27
Other,2,3,13,4,v,4.660609334,m,c,b,n,v,STAR,CIRCLE,DIAMOND,TRIANGLE,1,7,29,27
Other,2,4,14,4,v,1.190292949,m,c,b,n,v,STAR,CIRCLE,DIAMOND,TRIANGLE,1,7,29,27
Stranger,3,0,15,2,b,2.178381603,m,c,b,n,v,STAR,CIRCLE,DIAMOND,TRIANGLE,1,7,29,27
P2,3,1,16,1,c,1.737089724,m,c,b,n,v,STAR,CIRCLE,DIAMOND,TRIANGLE,1,7,29,27
P2,3,2,17,1,c,0.975217956,m,c,b,n,v,STAR,CIRCLE,DIAMOND,TRIANGLE,1,7,29,27
Stranger,3,3,18,2,b,1.875958314,m,c,b,n,v,STAR,CIRCLE,DIAMOND,TRIANGLE,1,7,29,27
We,3,4,19,3,n,2.13278599,m,c,b,n,v,STAR,CIRCLE,DIAMOND,TRIANGLE,1,7,29,27
P2,4,0,20,1,c,1.578918839,m,c,b,n,v,STAR,CIRCLE,DIAMOND,TRIANGLE,1,7,29,27
P2,4,1,21,1,c,0.98375223,m,c,b,n,v,STAR,CIRCLE,DIAMOND,TRIANGLE,1,7,29,27
Other,4,2,22,4,b,2.731610371,m,c,b,n,v,STAR,CIRCLE,DIAMOND,TRIANGLE,0,7,29,27
We,4,3,23,3,n,21.44817788,m,c,b,n,v,STAR,CIRCLE,DIAMOND,TRIANGLE,1,7,29,27
Other,4,4,24,4,v,5.082844873,m,c,b,n,v,STAR,CIRCLE,DIAMOND,TRIANGLE,1,7,29,27
We,5,0,25,3,n,3.147177831,m,c,b,n,v,STAR,CIRCLE,DIAMOND,TRIANGLE,1,7,29,27
P1,5,1,26,0,m,2.568662472,m,c,b,n,v,STAR,CIRCLE,DIAMOND,TRIANGLE,1,7,29,27
We,5,2,27,3,n,2.751437348,m,c,b,n,v,STAR,CIRCLE,DIAMOND,TRIANGLE,1,7,29,27
Other,5,3,28,4,v,5.789063243,m,c,b,n,v,STAR,CIRCLE,DIAMOND,TRIANGLE,1,7,29,27
Other,5,4,29,4,v,1.537279463,m,c,b,n,v,STAR,CIRCLE,DIAMOND,TRIANGLE,1,7,29,27
We,6,0,30,3,n,2.33519479,m,c,b,n,v,STAR,CIRCLE,DIAMOND,TRIANGLE,1,7,29,27
P2,6,1,31,1,c,1.803712885,m,c,b,n,v,STAR,CIRCLE,DIAMOND,TRIANGLE,1,7,29,27
P1,6,2,32,0,m,1.503201192,m,c,b,n,v,STAR,CIRCLE,DIAMOND,TRIANGLE,1,7,29,27
P1,6,3,33,0,m,1.454645409,m,c,b,n,v,STAR,CIRCLE,DIAMOND,TRIANGLE,1,7,29,27
We,6,4,34,3,n,2.848018704,m,c,b,n,v,STAR,CIRCLE,DIAMOND,TRIANGLE,1,7,29,27
P2,7,0,35,1,c,3.449709293,m,c,b,n,v,STAR,CIRCLE,DIAMOND,TRIANGLE,1,7,29,27
Other,7,1,36,4,v,8.05932104,m,c,b,n,v,STAR,CIRCLE,DIAMOND,TRIANGLE,1,7,29,27
P1,7,2,37,0,m,5.221102322,m,c,b,n,v,STAR,CIRCLE,DIAMOND,TRIANGLE,1,7,29,27
We,7,3,38,3,n,2.320035073,m,c,b,n,v,STAR,CIRCLE,DIAMOND,TRIANGLE,1,7,29,27
Other,7,4,39,4,v,2.478871977,m,c,b,n,v,STAR,CIRCLE,DIAMOND,TRIANGLE,1,7,29,27
P2,8,0,40,1,c,1.623748156,m,c,b,n,v,STAR,CIRCLE,DIAMOND,TRIANGLE,1,7,29,27
Stranger,8,1,41,2,b,2.899820487,m,c,b,n,v,STAR,CIRCLE,DIAMOND,TRIANGLE,1,7,29,27
Stranger,8,2,42,2,b,1.659307696,m,c,b,n,v,STAR,CIRCLE,DIAMOND,TRIANGLE,1,7,29,27
P1,8,3,43,0,m,1.780770584,m,c,b,n,v,STAR,CIRCLE,DIAMOND,TRIANGLE,1,7,29,27
Other,8,4,44,4,v,2.697671857,m,c,b,n,v,STAR,CIRCLE,DIAMOND,TRIANGLE,1,7,29,27
We,9,0,45,3,n,1.86508962,m,c,b,n,v,STAR,CIRCLE,DIAMOND,TRIANGLE,1,7,29,27
P1,9,1,46,0,m,1.753617798,m,c,b,n,v,STAR,CIRCLE,DIAMOND,TRIANGLE,1,7,29,27
P1,9,2,47,0,m,0.909433735,m,c,b,n,v,STAR,CIRCLE,DIAMOND,TRIANGLE,1,7,29,27
P1,9,3,48,0,m,0.772879036,m,c,b,n,v,STAR,CIRCLE,DIAMOND,TRIANGLE,1,7,29,27
Stranger,9,4,49,2,b,3.041611741,m,c,b,n,v,STAR,CIRCLE,DIAMOND,TRIANGLE,1,7,29,27
P2,0,0,0,1,b,11.39460742,c,b,n,m,v,STAR,DIAMOND,CIRCLE,PENTAGON,1,8,25,23
P2,0,1,1,1,m,11.49661325,c,b,n,m,v,STAR,DIAMOND,CIRCLE,PENTAGON,0,8,25,23
We,0,2,2,3,m,5.256448673,c,b,n,m,v,STAR,DIAMOND,CIRCLE,PENTAGON,1,8,25,23
P1,0,3,3,0,c,3.968470523,c,b,n,m,v,STAR,DIAMOND,CIRCLE,PENTAGON,1,8,25,23
P2,0,4,4,1,b,3.533427058,c,b,n,m,v,STAR,DIAMOND,CIRCLE,PENTAGON,1,8,25,23
P2,1,0,5,1,b,2.891708643,c,b,n,m,v,STAR,DIAMOND,CIRCLE,PENTAGON,1,8,25,23
Stranger,1,1,6,2,n,5.18778561,c,b,n,m,v,STAR,DIAMOND,CIRCLE,PENTAGON,1,8,25,23
Other,1,2,7,4,v,4.832277454,c,b,n,m,v,STAR,DIAMOND,CIRCLE,PENTAGON,1,8,25,23
We,1,3,8,3,m,5.17863743,c,b,n,m,v,STAR,DIAMOND,CIRCLE,PENTAGON,1,8,25,23
Stranger,1,4,9,2,n,2.839681827,c,b,n,m,v,STAR,DIAMOND,CIRCLE,PENTAGON,1,8,25,23
P1,2,0,10,0,c,1.459728784,c,b,n,m,v,STAR,DIAMOND,CIRCLE,PENTAGON,1,8,25,23
P1,2,1,11,0,c,1.157223378,c,b,n,m,v,STAR,DIAMOND,CIRCLE,PENTAGON,1,8,25,23
Other,2,2,12,4,v,4.898751383,c,b,n,m,v,STAR,DIAMOND,CIRCLE,PENTAGON,1,8,25,23
We,2,3,13,3,m,7.27443196,c,b,n,m,v,STAR,DIAMOND,CIRCLE,PENTAGON,1,8,25,23
Other,2,4,14,4,v,2.241649009,c,b,n,m,v,STAR,DIAMOND,CIRCLE,PENTAGON,1,8,25,23
We,3,0,15,3,m,4.691849426,c,b,n,m,v,STAR,DIAMOND,CIRCLE,PENTAGON,1,8,25,23
Stranger,3,1,16,2,n,3.044152244,c,b,n,m,v,STAR,DIAMOND,CIRCLE,PENTAGON,1,8,25,23
P1,3,2,17,0,c,2.454371423,c,b,n,m,v,STAR,DIAMOND,CIRCLE,PENTAGON,1,8,25,23
Other,3,3,18,4,v,3.231987597,c,b,n,m,v,STAR,DIAMOND,CIRCLE,PENTAGON,1,8,25,23
Other,3,4,19,4,v,0.682058522,c,b,n,m,v,STAR,DIAMOND,CIRCLE,PENTAGON,1,8,25,23
P2,4,0,20,1,b,3.002274806,c,b,n,m,v,STAR,DIAMOND,CIRCLE,PENTAGON,1,8,25,23
Other,4,1,21,4,v,1.309740016,c,b,n,m,v,STAR,DIAMOND,CIRCLE,PENTAGON,1,8,25,23
We,4,2,22,3,m,4.725231281,c,b,n,m,v,STAR,DIAMOND,CIRCLE,PENTAGON,1,8,25,23
Stranger,4,3,23,2,n,3.572250364,c,b,n,m,v,STAR,DIAMOND,CIRCLE,PENTAGON,1,8,25,23
Stranger,4,4,24,2,n,2.755039848,c,b,n,m,v,STAR,DIAMOND,CIRCLE,PENTAGON,1,8,25,23
P2,5,0,25,1,b,4.54457566,c,b,n,m,v,STAR,DIAMOND,CIRCLE,PENTAGON,1,8,25,23
Other,5,1,26,4,v,1.270872886,c,b,n,m,v,STAR,DIAMOND,CIRCLE,PENTAGON,1,8,25,23
Other,5,2,27,4,v,0.687659077,c,b,n,m,v,STAR,DIAMOND,CIRCLE,PENTAGON,1,8,25,23
Stranger,5,3,28,2,n,2.703458755,c,b,n,m,v,STAR,DIAMOND,CIRCLE,PENTAGON,1,8,25,23
We,5,4,29,3,m,3.261353206,c,b,n,m,v,STAR,DIAMOND,CIRCLE,PENTAGON,1,8,25,23
Stranger,6,0,30,2,n,1.462930568,c,b,n,m,v,STAR,DIAMOND,CIRCLE,PENTAGON,1,8,25,23
P1,6,1,31,0,c,0.98374394,c,b,n,m,v,STAR,DIAMOND,CIRCLE,PENTAGON,1,8,25,23
P2,6,2,32,1,b,1.931817006,c,b,n,m,v,STAR,DIAMOND,CIRCLE,PENTAGON,1,8,25,23
P1,6,3,33,0,c,0.826038912,c,b,n,m,v,STAR,DIAMOND,CIRCLE,PENTAGON,1,8,25,23
We,6,4,34,3,v,1.26857834,c,b,n,m,v,STAR,DIAMOND,CIRCLE,PENTAGON,0,8,25,23
We,7,0,35,3,m,4.98959361,c,b,n,m,v,STAR,DIAMOND,CIRCLE,PENTAGON,1,8,25,23
Other,7,1,36,4,v,1.473969813,c,b,n,m,v,STAR,DIAMOND,CIRCLE,PENTAGON,1,8,25,23
P2,7,2,37,1,b,2.018661939,c,b,n,m,v,STAR,DIAMOND,CIRCLE,PENTAGON,1,8,25,23
P1,7,3,38,0,c,0.621577575,c,b,n,m,v,STAR,DIAMOND,CIRCLE,PENTAGON,1,8,25,23
P1,7,4,39,0,c,0.640171215,c,b,n,m,v,STAR,DIAMOND,CIRCLE,PENTAGON,1,8,25,23
P1,8,0,40,0,c,0.482244707,c,b,n,m,v,STAR,DIAMOND,CIRCLE,PENTAGON,1,8,25,23
Stranger,8,1,41,2,n,4.874372819,c,b,n,m,v,STAR,DIAMOND,CIRCLE,PENTAGON,1,8,25,23
We,8,2,42,3,m,2.115394105,c,b,n,m,v,STAR,DIAMOND,CIRCLE,PENTAGON,1,8,25,23
Stranger,8,3,43,2,n,1.818210136,c,b,n,m,v,STAR,DIAMOND,CIRCLE,PENTAGON,1,8,25,23
P2,8,4,44,1,b,1.310871892,c,b,n,m,v,STAR,DIAMOND,CIRCLE,PENTAGON,1,8,25,23
P1,9,0,45,0,c,0.806457891,c,b,n,m,v,STAR,DIAMOND,CIRCLE,PENTAGON,1,8,25,23
We,9,1,46,3,m,2.545795971,c,b,n,m,v,STAR,DIAMOND,CIRCLE,PENTAGON,1,8,25,23
Stranger,9,2,47,2,n,1.383912043,c,b,n,m,v,STAR,DIAMOND,CIRCLE,PENTAGON,1,8,25,23
Other,9,3,48,4,v,2.364072827,c,b,n,m,v,STAR,DIAMOND,CIRCLE,PENTAGON,1,8,25,23
P2,9,4,49,1,b,1.720929204,c,b,n,m,v,STAR,DIAMOND,CIRCLE,PENTAGON,1,8,25,23
We,0,0,0,3,m,7.446944941,c,n,v,m,b,TRIANGLE,PENTAGON,DIAMOND,CIRCLE,1,9,27,27
Other,0,1,1,4,b,4.264795814,c,n,v,m,b,TRIANGLE,PENTAGON,DIAMOND,CIRCLE,1,9,27,27
Stranger,0,2,2,2,v,5.417512613,c,n,v,m,b,TRIANGLE,PENTAGON,DIAMOND,CIRCLE,1,9,27,27
P1,0,3,3,0,c,5.018823015,c,n,v,m,b,TRIANGLE,PENTAGON,DIAMOND,CIRCLE,1,9,27,27
P2,0,4,4,1,n,4.477851828,c,n,v,m,b,TRIANGLE,PENTAGON,DIAMOND,CIRCLE,1,9,27,27
P2,1,0,5,1,n,3.510543186,c,n,v,m,b,TRIANGLE,PENTAGON,DIAMOND,CIRCLE,1,9,27,27
Stranger,1,1,6,2,v,3.766450596,c,n,v,m,b,TRIANGLE,PENTAGON,DIAMOND,CIRCLE,1,9,27,27
P1,1,2,7,0,c,2.683300151,c,n,v,m,b,TRIANGLE,PENTAGON,DIAMOND,CIRCLE,1,9,27,27
Other,1,3,8,4,b,3.755566109,c,n,v,m,b,TRIANGLE,PENTAGON,DIAMOND,CIRCLE,1,9,27,27
P1,1,4,9,0,c,1.665129337,c,n,v,m,b,TRIANGLE,PENTAGON,DIAMOND,CIRCLE,1,9,27,27
Stranger,2,0,10,2,v,2.185973502,c,n,v,m,b,TRIANGLE,PENTAGON,DIAMOND,CIRCLE,1,9,27,27
Other,2,1,11,4,b,2.926082221,c,n,v,m,b,TRIANGLE,PENTAGON,DIAMOND,CIRCLE,1,9,27,27
Stranger,2,2,12,2,v,1.558853011,c,n,v,m,b,TRIANGLE,PENTAGON,DIAMOND,CIRCLE,1,9,27,27
P1,2,3,13,0,c,2.004299313,c,n,v,m,b,TRIANGLE,PENTAGON,DIAMOND,CIRCLE,1,9,27,27
Stranger,2,4,14,2,v,2.047807647,c,n,v,m,b,TRIANGLE,PENTAGON,DIAMOND,CIRCLE,1,9,27,27
Other,3,0,15,4,b,4.553321545,c,n,v,m,b,TRIANGLE,PENTAGON,DIAMOND,CIRCLE,1,9,27,27
P1,3,1,16,0,c,1.550706031,c,n,v,m,b,TRIANGLE,PENTAGON,DIAMOND,CIRCLE,1,9,27,27
Stranger,3,2,17,2,v,2.010533908,c,n,v,m,b,TRIANGLE,PENTAGON,DIAMOND,CIRCLE,1,9,27,27
Stranger,3,3,18,2,v,1.142022998,c,n,v,m,b,TRIANGLE,PENTAGON,DIAMOND,CIRCLE,1,9,27,27
We,3,4,19,3,m,2.676138578,c,n,v,m,b,TRIANGLE,PENTAGON,DIAMOND,CIRCLE,1,9,27,27
P2,4,0,20,1,n,5.108991723,c,n,v,m,b,TRIANGLE,PENTAGON,DIAMOND,CIRCLE,1,9,27,27
We,4,1,21,3,m,7.364795696,c,n,v,m,b,TRIANGLE,PENTAGON,DIAMOND,CIRCLE,1,9,27,27
P2,4,2,22,1,n,5.225829197,c,n,v,m,b,TRIANGLE,PENTAGON,DIAMOND,CIRCLE,1,9,27,27
We,4,3,23,3,m,3.348727952,c,n,v,m,b,TRIANGLE,PENTAGON,DIAMOND,CIRCLE,1,9,27,27
We,4,4,24,3,m,1.146383504,c,n,v,m,b,TRIANGLE,PENTAGON,DIAMOND,CIRCLE,1,9,27,27
Other,5,0,25,4,b,2.711921572,c,n,v,m,b,TRIANGLE,PENTAGON,DIAMOND,CIRCLE,1,9,27,27
Other,5,1,26,4,b,0.889215121,c,n,v,m,b,TRIANGLE,PENTAGON,DIAMOND,CIRCLE,1,9,27,27
P1,5,2,27,0,c,2.753344601,c,n,v,m,b,TRIANGLE,PENTAGON,DIAMOND,CIRCLE,1,9,27,27
P2,5,3,28,1,n,2.750957278,c,n,v,m,b,TRIANGLE,PENTAGON,DIAMOND,CIRCLE,1,9,27,27
We,5,4,29,3,m,2.444407202,c,n,v,m,b,TRIANGLE,PENTAGON,DIAMOND,CIRCLE,1,9,27,27
P1,6,0,30,0,c,2.550535085,c,n,v,m,b,TRIANGLE,PENTAGON,DIAMOND,CIRCLE,1,9,27,27
P1,6,1,31,0,c,1.739864341,c,n,v,m,b,TRIANGLE,PENTAGON,DIAMOND,CIRCLE,1,9,27,27
P1,6,2,32,0,c,0.784312285,c,n,v,m,b,TRIANGLE,PENTAGON,DIAMOND,CIRCLE,1,9,27,27
P2,6,3,33,1,n,4.060460812,c,n,v,m,b,TRIANGLE,PENTAGON,DIAMOND,CIRCLE,1,9,27,27
We,6,4,34,3,m,4.197930249,c,n,v,m,b,TRIANGLE,PENTAGON,DIAMOND,CIRCLE,1,9,27,27
Other,7,0,35,4,b,2.441727731,c,n,v,m,b,TRIANGLE,PENTAGON,DIAMOND,CIRCLE,1,9,27,27
We,7,1,36,3,m,4.211914662,c,n,v,m,b,TRIANGLE,PENTAGON,DIAMOND,CIRCLE,1,9,27,27
Stranger,7,2,37,2,v,2.967458664,c,n,v,m,b,TRIANGLE,PENTAGON,DIAMOND,CIRCLE,1,9,27,27
P2,7,3,38,1,n,2.908354366,c,n,v,m,b,TRIANGLE,PENTAGON,DIAMOND,CIRCLE,1,9,27,27
Stranger,7,4,39,2,v,4.963904724,c,n,v,m,b,TRIANGLE,PENTAGON,DIAMOND,CIRCLE,1,9,27,27
Other,8,0,40,4,b,4.921026087,c,n,v,m,b,TRIANGLE,PENTAGON,DIAMOND,CIRCLE,1,9,27,27
We,8,1,41,3,m,2.353775006,c,n,v,m,b,TRIANGLE,PENTAGON,DIAMOND,CIRCLE,1,9,27,27
P1,8,2,42,0,c,2.079273168,c,n,v,m,b,TRIANGLE,PENTAGON,DIAMOND,CIRCLE,1,9,27,27
Other,8,3,43,4,b,3.224202249,c,n,v,m,b,TRIANGLE,PENTAGON,DIAMOND,CIRCLE,1,9,27,27
P2,8,4,44,1,n,2.179048411,c,n,v,m,b,TRIANGLE,PENTAGON,DIAMOND,CIRCLE,1,9,27,27
Other,9,0,45,4,b,2.08765821,c,n,v,m,b,TRIANGLE,PENTAGON,DIAMOND,CIRCLE,1,9,27,27
Stranger,9,1,46,2,v,1.31014468,c,n,v,m,b,TRIANGLE,PENTAGON,DIAMOND,CIRCLE,1,9,27,27
P2,9,2,47,1,n,1.973502179,c,n,v,m,b,TRIANGLE,PENTAGON,DIAMOND,CIRCLE,1,9,27,27
We,9,3,48,3,m,3.682383439,c,n,v,m,b,TRIANGLE,PENTAGON,DIAMOND,CIRCLE,1,9,27,27
P2,9,4,49,1,n,2.122503961,c,n,v,m,b,TRIANGLE,PENTAGON,DIAMOND,CIRCLE,1,9,27,27
Other,0,0,0,4,m,16.96767453,b,v,n,c,m,DIAMOND,TRIANGLE,CIRCLE,PENTAGON,1,20,24,31
We,0,1,1,3,c,22.11135724,b,v,n,c,m,DIAMOND,TRIANGLE,CIRCLE,PENTAGON,1,20,24,31
We,0,2,2,3,c,4.630107274,b,v,n,c,m,DIAMOND,TRIANGLE,CIRCLE,PENTAGON,1,20,24,31
Stranger,0,3,3,2,n,4.584533249,b,v,n,c,m,DIAMOND,TRIANGLE,CIRCLE,PENTAGON,1,20,24,31
P1,0,4,4,0,b,3.404798188,b,v,n,c,m,DIAMOND,TRIANGLE,CIRCLE,PENTAGON,1,20,24,31
We,1,0,5,3,c,3.040211911,b,v,n,c,m,DIAMOND,TRIANGLE,CIRCLE,PENTAGON,1,20,24,31
P2,1,1,6,1,v,4.034617656,b,v,n,c,m,DIAMOND,TRIANGLE,CIRCLE,PENTAGON,1,20,24,31
Other,1,2,7,4,m,2.492863279,b,v,n,c,m,DIAMOND,TRIANGLE,CIRCLE,PENTAGON,1,20,24,31
Stranger,1,3,8,2,c,1.732989045,b,v,n,c,m,DIAMOND,TRIANGLE,CIRCLE,PENTAGON,0,20,24,31
Stranger,1,4,9,2,n,3.981167063,b,v,n,c,m,DIAMOND,TRIANGLE,CIRCLE,PENTAGON,1,20,24,31
Other,2,0,10,4,m,3.481448947,b,v,n,c,m,DIAMOND,TRIANGLE,CIRCLE,PENTAGON,1,20,24,31
P1,2,1,11,0,b,4.537723908,b,v,n,c,m,DIAMOND,TRIANGLE,CIRCLE,PENTAGON,1,20,24,31
P2,2,2,12,1,n,3.118072323,b,v,n,c,m,DIAMOND,TRIANGLE,CIRCLE,PENTAGON,0,20,24,31
P2,2,3,13,1,v,9.997085224,b,v,n,c,m,DIAMOND,TRIANGLE,CIRCLE,PENTAGON,1,20,24,31
Other,2,4,14,4,m,3.097004054,b,v,n,c,m,DIAMOND,TRIANGLE,CIRCLE,PENTAGON,1,20,24,31
Stranger,3,0,15,2,c,3.048572498,b,v,n,c,m,DIAMOND,TRIANGLE,CIRCLE,PENTAGON,0,20,24,31
We,3,1,16,3,c,3.898087057,b,v,n,c,m,DIAMOND,TRIANGLE,CIRCLE,PENTAGON,1,20,24,31
Stranger,3,2,17,2,n,6.18577346,b,v,n,c,m,DIAMOND,TRIANGLE,CIRCLE,PENTAGON,1,20,24,31
P1,3,3,18,0,b,4.014183823,b,v,n,c,m,DIAMOND,TRIANGLE,CIRCLE,PENTAGON,1,20,24,31
Other,3,4,19,4,m,3.963021071,b,v,n,c,m,DIAMOND,TRIANGLE,CIRCLE,PENTAGON,1,20,24,31
Other,4,0,20,4,m,1.784581335,b,v,n,c,m,DIAMOND,TRIANGLE,CIRCLE,PENTAGON,1,20,24,31
Stranger,4,1,21,2,c,2.828775154,b,v,n,c,m,DIAMOND,TRIANGLE,CIRCLE,PENTAGON,0,20,24,31
Other,4,2,22,4,m,2.695620453,b,v,n,c,m,DIAMOND,TRIANGLE,CIRCLE,PENTAGON,1,20,24,31
P2,4,3,23,1,v,3.975568466,b,v,n,c,m,DIAMOND,TRIANGLE,CIRCLE,PENTAGON,1,20,24,31
We,4,4,24,3,c,3.842847645,b,v,n,c,m,DIAMOND,TRIANGLE,CIRCLE,PENTAGON,1,20,24,31
Other,5,0,25,4,m,2.165148941,b,v,n,c,m,DIAMOND,TRIANGLE,CIRCLE,PENTAGON,1,20,24,31
P1,5,1,26,0,b,2.58599873,b,v,n,c,m,DIAMOND,TRIANGLE,CIRCLE,PENTAGON,1,20,24,31
Stranger,5,2,27,2,n,2.446181458,b,v,n,c,m,DIAMOND,TRIANGLE,CIRCLE,PENTAGON,1,20,24,31
P1,5,3,28,0,b,2.871674044,b,v,n,c,m,DIAMOND,TRIANGLE,CIRCLE,PENTAGON,1,20,24,31
We,5,4,29,3,c,3.440512982,b,v,n,c,m,DIAMOND,TRIANGLE,CIRCLE,PENTAGON,1,20,24,31
We,6,0,30,3,c,1.42669316,b,v,n,c,m,DIAMOND,TRIANGLE,CIRCLE,PENTAGON,1,20,24,31
We,6,1,31,3,c,1.125555675,b,v,n,c,m,DIAMOND,TRIANGLE,CIRCLE,PENTAGON,1,20,24,31
P1,6,2,32,0,b,2.324403582,b,v,n,c,m,DIAMOND,TRIANGLE,CIRCLE,PENTAGON,1,20,24,31
P1,6,3,33,0,b,2.339033524,b,v,n,c,m,DIAMOND,TRIANGLE,CIRCLE,PENTAGON,1,20,24,31
P2,6,4,34,1,n,1.761394987,b,v,n,c,m,DIAMOND,TRIANGLE,CIRCLE,PENTAGON,0,20,24,31
We,7,0,35,3,n,3.880797771,b,v,n,c,m,DIAMOND,TRIANGLE,CIRCLE,PENTAGON,0,20,24,31
P2,7,1,36,1,v,5.929106941,b,v,n,c,m,DIAMOND,TRIANGLE,CIRCLE,PENTAGON,1,20,24,31
P2,7,2,37,1,v,2.056111121,b,v,n,c,m,DIAMOND,TRIANGLE,CIRCLE,PENTAGON,1,20,24,31
Stranger,7,3,38,2,c,3.297431538,b,v,n,c,m,DIAMOND,TRIANGLE,CIRCLE,PENTAGON,0,20,24,31
P2,7,4,39,1,v,4.51932959,b,v,n,c,m,DIAMOND,TRIANGLE,CIRCLE,PENTAGON,1,20,24,31
Other,8,0,40,4,c,2.222244682,b,v,n,c,m,DIAMOND,TRIANGLE,CIRCLE,PENTAGON,0,20,24,31
Stranger,8,1,41,2,n,4.54510027,b,v,n,c,m,DIAMOND,TRIANGLE,CIRCLE,PENTAGON,1,20,24,31
P1,8,2,42,0,b,1.894698131,b,v,n,c,m,DIAMOND,TRIANGLE,CIRCLE,PENTAGON,1,20,24,31
P1,8,3,43,0,b,1.254767157,b,v,n,c,m,DIAMOND,TRIANGLE,CIRCLE,PENTAGON,1,20,24,31
P2,8,4,44,1,v,2.272301216,b,v,n,c,m,DIAMOND,TRIANGLE,CIRCLE,PENTAGON,1,20,24,31
Other,9,0,45,4,m,5.121221213,b,v,n,c,m,DIAMOND,TRIANGLE,CIRCLE,PENTAGON,1,20,24,31
P2,9,1,46,1,v,3.120162766,b,v,n,c,m,DIAMOND,TRIANGLE,CIRCLE,PENTAGON,1,20,24,31
Stranger,9,2,47,2,n,5.759112278,b,v,n,c,m,DIAMOND,TRIANGLE,CIRCLE,PENTAGON,1,20,24,31
P1,9,3,48,0,b,1.718684415,b,v,n,c,m,DIAMOND,TRIANGLE,CIRCLE,PENTAGON,1,20,24,31
We,9,4,49,3,c,2.84558121,b,v,n,c,m,DIAMOND,TRIANGLE,CIRCLE,PENTAGON,1,20,24,31
