"","Subject","P1Age","P2Age","Block","Trial","Shape","Label","Matching","Origin_Identity","English_Identity","Standarlized_Identity","ShapeLoc","Response","RT_ms","RT_sec","ACC"
"1",1,24,21,1,1,"Stranger","Team","Nonmatching","Team","Group-Self","Self","Bottom","num_3",1066.893595,1.066893595,1
"2",1,24,21,1,2,"Person2","StrangerTeam","Nonmatching","StrangerTeam","Group-Stranger","Stranger","Top","z",1016.898391,1.016898391,0
"3",1,24,21,1,3,"StrangerTeam","StrangerTeam","Matching","StrangerTeam","Group-Stranger","Stranger","Top","z",900.274106,0.900274106,1
"4",1,24,21,1,4,"Stranger","Stranger","Matching","Stranger","Individual_Stranger","Stranger","Bottom","num_3",666.939075,0.666939075,0
"5",1,24,21,1,5,"Stranger","Stranger","Matching","Stranger","Individual_Stranger","Stranger","Bottom","None",NA,NA,3
"6",1,24,21,1,6,"StrangerTeam","Person1","Nonmatching","Person1","Individual_Self","Self","Bottom","z",617.284579,0.617284579,0
"7",1,24,21,1,7,"Stranger","Person2","Nonmatching","Person2","Individual_Self","Self","Bottom","num_3",766.909347,0.766909347,1
"8",1,24,21,1,8,"Person2","Person2","Matching","Person2","Individual_Self","Self","Top","num_3",919.599694,0.919599694,0
"9",1,24,21,1,9,"Person1","StrangerTeam","Nonmatching","StrangerTeam","Group-Stranger","Stranger","Top","z",733.763186,0.733763186,0
"10",1,24,21,1,10,"Team","Team","Matching","Team","Group-Self","Self","Bottom","num_3",900.271737,0.900271737,0
"11",1,24,21,1,11,"Person1","Stranger","Nonmatching","Stranger","Individual_Stranger","Stranger","Top","None",NA,NA,3
"12",1,24,21,1,12,"Person1","Person1","Matching","Person1","Individual_Self","Self","Bottom","z",766.876184,0.766876184,1
"13",1,24,21,1,13,"Person2","Person2","Matching","Person2","Individual_Self","Self","Bottom","None",NA,NA,3
"14",1,24,21,1,14,"Team","Team","Matching","Team","Group-Self","Self","Top","z",850.250083,0.850250083,1
"15",1,24,21,1,15,"Team","Person2","Nonmatching","Person2","Individual_Self","Self","Top","num_3",700.21236,0.70021236,1
"16",1,24,21,1,16,"Person2","Person1","Nonmatching","Person1","Individual_Self","Self","Top","num_3",883.554951,0.883554951,1
"17",1,24,21,1,17,"Stranger","StrangerTeam","Nonmatching","StrangerTeam","Group-Stranger","Stranger","Bottom","num_3",683.60059,0.68360059,1
"18",1,24,21,1,18,"Person2","StrangerTeam","Nonmatching","StrangerTeam","Group-Stranger","Stranger","Bottom","num_3",567.110534,0.567110534,1
"19",1,24,21,1,19,"Team","Team","Matching","Team","Group-Self","Self","Top","z",816.905734,0.816905734,1
"20",1,24,21,1,20,"Stranger","Person1","Nonmatching","Person1","Individual_Self","Self","Bottom","num_3",683.731661,0.683731661,1
"21",1,24,21,1,21,"StrangerTeam","StrangerTeam","Matching","StrangerTeam","Group-Stranger","Stranger","Top","num_3",766.955933,0.766955933,0
"22",1,24,21,1,22,"Person1","Person1","Matching","Person1","Individual_Self","Self","Bottom","z",566.651388,0.566651388,1
"23",1,24,21,1,23,"StrangerTeam","StrangerTeam","Matching","StrangerTeam","Group-Stranger","Stranger","Bottom","num_3",683.763245,0.683763245,0
"24",1,24,21,1,24,"StrangerTeam","StrangerTeam","Matching","StrangerTeam","Group-Stranger","Stranger","Bottom","z",624.425229,0.624425229,1
"25",1,24,21,1,25,"Team","Team","Matching","Team","Group-Self","Self","Bottom","z",633.697768,0.633697768,1
"26",1,24,21,1,26,"Person1","Person1","Matching","Person1","Individual_Self","Self","Top","z",683.589535,0.683589535,1
"27",1,24,21,1,27,"Person2","Person2","Matching","Person2","Individual_Self","Self","Top","num_3",583.615315,0.583615315,0
"28",1,24,21,1,28,"Team","Stranger","Nonmatching","Stranger","Individual_Stranger","Stranger","Top","num_3",800.312914,0.800312914,1
"29",1,24,21,1,29,"StrangerTeam","StrangerTeam","Matching","StrangerTeam","Group-Stranger","Stranger","Top","z",900.28595,0.90028595,1
"30",1,24,21,1,30,"Team","Team","Matching","Team","Group-Self","Self","Bottom","z",817.118134,0.817118134,1
"31",1,24,21,1,31,"Person2","Person2","Matching","Person2","Individual_Self","Self","Bottom","z",1133.597688,1.133597688,1
"32",1,24,21,1,32,"Team","Team","Matching","Team","Group-Self","Self","Bottom","z",733.696465,0.733696465,1
"33",1,24,21,1,33,"Team","Person1","Nonmatching","Person1","Individual_Self","Self","Bottom","num_3",683.814568,0.683814568,1
"34",1,24,21,1,34,"Person1","Person2","Nonmatching","Person2","Individual_Self","Self","Bottom","num_3",800.229613,0.800229613,1
"35",1,24,21,1,35,"Person1","Person1","Matching","Person1","Individual_Self","Self","Bottom","z",666.922493,0.666922493,1
"36",1,24,21,1,36,"Person2","Stranger","Nonmatching","Stranger","Individual_Stranger","Stranger","Top","num_3",650.384155,0.650384155,1
"37",1,24,21,1,37,"Person2","Person2","Matching","Person2","Individual_Self","Self","Top","z",917.086037,0.917086037,1
"38",1,24,21,1,38,"Person1","StrangerTeam","Nonmatching","StrangerTeam","Group-Stranger","Stranger","Bottom","z",533.635904,0.533635904,0
"39",1,24,21,1,39,"Stranger","Stranger","Matching","Stranger","Individual_Stranger","Stranger","Bottom","z",650.246372,0.650246372,1
"40",1,24,21,1,40,"Stranger","Stranger","Matching","Stranger","Individual_Stranger","Stranger","Bottom","z",583.610183,0.583610183,1
"41",1,24,21,1,41,"Team","Person2","Nonmatching","Person2","Individual_Self","Self","Bottom","num_3",616.886232,0.616886232,1
"42",1,24,21,1,42,"StrangerTeam","Stranger","Nonmatching","Stranger","Individual_Stranger","Stranger","Bottom","num_3",783.701933,0.783701933,1
"43",1,24,21,1,43,"StrangerTeam","Person2","Nonmatching","Person2","Individual_Self","Self","Bottom","num_3",483.562137,0.483562137,1
"44",1,24,21,1,44,"Stranger","Stranger","Matching","Stranger","Individual_Stranger","Stranger","Bottom","num_3",483.716896,0.483716896,0
"45",1,24,21,1,45,"StrangerTeam","Stranger","Nonmatching","Stranger","Individual_Stranger","Stranger","Top","z",633.594727,0.633594727,0
"46",1,24,21,1,46,"Team","StrangerTeam","Nonmatching","StrangerTeam","Group-Stranger","Stranger","Bottom","num_3",517.005973,0.517005973,1
"47",1,24,21,1,47,"Stranger","Person1","Nonmatching","Person1","Individual_Self","Self","Bottom","num_3",683.790486,0.683790486,1
"48",1,24,21,1,48,"Person2","Person2","Matching","Person2","Individual_Self","Self","Top","num_3",550.302551,0.550302551,0
"49",1,24,21,1,49,"Team","Person1","Nonmatching","Person1","Individual_Self","Self","Top","num_3",667.12068,0.66712068,1
"50",1,24,21,1,50,"Person2","Stranger","Nonmatching","Stranger","Individual_Stranger","Stranger","Bottom","num_3",650.265322,0.650265322,1
"51",1,24,21,1,51,"Stranger","Team","Nonmatching","Team","Group-Self","Self","Bottom","num_3",766.909742,0.766909742,1
"52",1,24,21,1,52,"Person2","Person2","Matching","Person2","Individual_Self","Self","Bottom","z",633.783833,0.633783833,1
"53",1,24,21,1,53,"StrangerTeam","StrangerTeam","Matching","StrangerTeam","Group-Stranger","Stranger","Bottom","z",850.257189,0.850257189,1
"54",1,24,21,1,54,"Person1","Stranger","Nonmatching","Stranger","Individual_Stranger","Stranger","Bottom","num_3",650.219526,0.650219526,1
"55",1,24,21,1,55,"Person1","Person1","Matching","Person1","Individual_Self","Self","Top","z",600.240509,0.600240509,1
"56",1,24,21,1,56,"Team","Stranger","Nonmatching","Stranger","Individual_Stranger","Stranger","Bottom","num_3",550.288338,0.550288338,1
"57",1,24,21,1,57,"Person2","Person1","Nonmatching","Person1","Individual_Self","Self","Bottom","num_3",833.56488,0.83356488,1
"58",1,24,21,1,58,"Person1","Person1","Matching","Person1","Individual_Self","Self","Bottom","z",500.258788,0.500258788,1
"59",1,24,21,1,59,"StrangerTeam","StrangerTeam","Matching","StrangerTeam","Group-Stranger","Stranger","Bottom","num_3",650.251109,0.650251109,0
"60",1,24,21,1,60,"StrangerTeam","Person2","Nonmatching","Person2","Individual_Self","Self","Top","z",916.921803,0.916921803,0
"61",1,24,21,1,61,"Person1","Team","Nonmatching","Team","Group-Self","Self","Top","num_3",733.569736,0.733569736,1
"62",1,24,21,1,62,"Person1","Person2","Nonmatching","Person2","Individual_Self","Self","Top","num_3",867.340344,0.867340344,1
"63",1,24,21,1,63,"Person1","Person1","Matching","Person1","Individual_Self","Self","Top","z",766.85526,0.76685526,1
"64",1,24,21,1,64,"Team","StrangerTeam","Nonmatching","StrangerTeam","Group-Stranger","Stranger","Top","num_3",583.556491,0.583556491,1
"65",1,24,21,1,65,"Person2","Team","Nonmatching","Team","Group-Self","Self","Top","num_3",1067.062961,1.067062961,1
"66",1,24,21,1,66,"StrangerTeam","Person1","Nonmatching","Person1","Individual_Self","Self","Top","num_3",783.576783,0.783576783,1
"67",1,24,21,1,67,"Stranger","Stranger","Matching","Stranger","Individual_Stranger","Stranger","Bottom","num_3",549.893149,0.549893149,0
"68",1,24,21,1,68,"Person2","Team","Nonmatching","Team","Group-Self","Self","Bottom","num_3",774.079211,0.774079211,1
"69",1,24,21,1,69,"Stranger","Stranger","Matching","Stranger","Individual_Stranger","Stranger","Bottom","z",950.232198,0.950232198,1
"70",1,24,21,1,70,"StrangerTeam","Team","Nonmatching","Team","Group-Self","Self","Top","num_3",716.944148,0.716944148,1
"71",1,24,21,1,71,"Team","Team","Matching","Team","Group-Self","Self","Top","num_3",600.39132,0.60039132,0
"72",1,24,21,1,72,"Stranger","Stranger","Matching","Stranger","Individual_Stranger","Stranger","Bottom","num_3",700.207622,0.700207622,0
"73",1,24,21,1,73,"Person1","Team","Nonmatching","Team","Group-Self","Self","Bottom","num_3",733.716995,0.733716995,1
"74",1,24,21,1,74,"StrangerTeam","Team","Nonmatching","Team","Group-Self","Self","Bottom","num_3",733.577632,0.733577632,1
"75",1,24,21,1,75,"Person2","Person2","Matching","Person2","Individual_Self","Self","Bottom","num_3",550.254781,0.550254781,0
"76",1,24,21,1,76,"Stranger","Person2","Nonmatching","Person2","Individual_Self","Self","Bottom","num_3",750.241121,0.750241121,1
"77",1,24,21,1,77,"Person1","Person1","Matching","Person1","Individual_Self","Self","Top","z",617.117186,0.617117186,1
"78",1,24,21,1,78,"Team","Team","Matching","Team","Group-Self","Self","Top","z",752.543957,0.752543957,1
"79",1,24,21,1,79,"Stranger","StrangerTeam","Nonmatching","StrangerTeam","Group-Stranger","Stranger","Bottom","num_3",966.90911,0.96690911,1
"80",1,24,21,1,80,"StrangerTeam","StrangerTeam","Matching","StrangerTeam","Group-Stranger","Stranger","Top","z",833.624494,0.833624494,1
"81",1,24,21,2,1,"StrangerTeam","Person1","Nonmatching","Person1","Individual_Self","Self","Top","num_3",1133.545575,1.133545575,1
"82",1,24,21,2,2,"Team","Team","Matching","Team","Group-Self","Self","Bottom","z",767.135564,0.767135564,1
"83",1,24,21,2,3,"Team","Stranger","Nonmatching","Stranger","Individual_Stranger","Stranger","Top","num_3",1116.934594,1.116934594,1
"84",1,24,21,2,4,"Person1","Person1","Matching","Person1","Individual_Self","Self","Bottom","z",533.750394,0.533750394,1
"85",1,24,21,2,5,"Team","Team","Matching","Team","Group-Self","Self","Bottom","num_3",700.392386,0.700392386,0
"86",1,24,21,2,6,"Person2","Person2","Matching","Person2","Individual_Self","Self","Bottom","z",766.945668,0.766945668,1
"87",1,24,21,2,7,"Person1","Stranger","Nonmatching","Stranger","Individual_Stranger","Stranger","Top","num_3",767.18215,0.76718215,1
"88",1,24,21,2,8,"Person2","StrangerTeam","Nonmatching","StrangerTeam","Group-Stranger","Stranger","Top","z",966.868051,0.966868051,0
"89",1,24,21,2,9,"StrangerTeam","Person1","Nonmatching","Person1","Individual_Self","Self","Bottom","num_3",933.632272,0.933632272,1
"90",1,24,21,2,10,"Stranger","Person2","Nonmatching","Person2","Individual_Self","Self","Bottom","num_3",800.250142,0.800250142,1
"91",1,24,21,2,11,"Person2","Person1","Nonmatching","Person1","Individual_Self","Self","Top","num_3",766.860787,0.766860787,1
"92",1,24,21,2,12,"Person1","Stranger","Nonmatching","Stranger","Individual_Stranger","Stranger","Bottom","num_3",583.571888,0.583571888,1
"93",1,24,21,2,13,"StrangerTeam","StrangerTeam","Matching","StrangerTeam","Group-Stranger","Stranger","Top","z",733.55355,0.73355355,1
"94",1,24,21,2,14,"Stranger","Stranger","Matching","Stranger","Individual_Stranger","Stranger","Bottom","num_3",566.958143,0.566958143,0
"95",1,24,21,2,15,"StrangerTeam","StrangerTeam","Matching","StrangerTeam","Group-Stranger","Stranger","Bottom","z",700.275132,0.700275132,1
"96",1,24,21,2,16,"Stranger","Stranger","Matching","Stranger","Individual_Stranger","Stranger","Bottom","z",983.58997,0.98358997,1
"97",1,24,21,2,17,"Person2","Person2","Matching","Person2","Individual_Self","Self","Top","z",666.943812,0.666943812,1
"98",1,24,21,2,18,"StrangerTeam","StrangerTeam","Matching","StrangerTeam","Group-Stranger","Stranger","Bottom","z",650.253873,0.650253873,1
"99",1,24,21,2,19,"Team","Stranger","Nonmatching","Stranger","Individual_Stranger","Stranger","Bottom","num_3",433.865003,0.433865003,1
"100",1,24,21,2,20,"Team","Team","Matching","Team","Group-Self","Self","Bottom","z",616.955716,0.616955716,1
"101",1,24,21,2,21,"Team","Team","Matching","Team","Group-Self","Self","Top","z",633.600254,0.633600254,1
"102",1,24,21,2,22,"Person1","StrangerTeam","Nonmatching","StrangerTeam","Group-Stranger","Stranger","Bottom","num_3",800.341339,0.800341339,1
"103",1,24,21,2,23,"Person1","Person1","Matching","Person1","Individual_Self","Self","Bottom","z",516.998867,0.516998867,1
"104",1,24,21,2,24,"Team","Team","Matching","Team","Group-Self","Self","Top","z",833.600017,0.833600017,1
"105",1,24,21,2,25,"StrangerTeam","StrangerTeam","Matching","StrangerTeam","Group-Stranger","Stranger","Top","z",766.916848,0.766916848,1
"106",1,24,21,2,26,"Team","StrangerTeam","Nonmatching","StrangerTeam","Group-Stranger","Stranger","Top","num_3",533.601952,0.533601952,1
"107",1,24,21,2,27,"Stranger","Stranger","Matching","Stranger","Individual_Stranger","Stranger","Bottom","z",633.50195,0.63350195,1
"108",1,24,21,2,28,"Team","Person2","Nonmatching","Person2","Individual_Self","Self","Bottom","num_3",617.146007,0.617146007,1
"109",1,24,21,2,29,"Person2","Person1","Nonmatching","Person1","Individual_Self","Self","Bottom","num_3",833.724772,0.833724772,1
"110",1,24,21,2,30,"Stranger","Stranger","Matching","Stranger","Individual_Stranger","Stranger","Bottom","z",716.896773,0.716896773,1
"111",1,24,21,2,31,"Stranger","Team","Nonmatching","Team","Group-Self","Self","Bottom","num_3",850.241397,0.850241397,1
"112",1,24,21,2,32,"Stranger","Stranger","Matching","Stranger","Individual_Stranger","Stranger","Bottom","num_3",583.607814,0.583607814,0
"113",1,24,21,2,33,"Person1","Person1","Matching","Person1","Individual_Self","Self","Top","z",566.908399,0.566908399,1
"114",1,24,21,2,34,"Stranger","Person1","Nonmatching","Person1","Individual_Self","Self","Bottom","num_3",583.756652,0.583756652,1
"115",1,24,21,2,35,"Stranger","Person1","Nonmatching","Person1","Individual_Self","Self","Bottom","num_3",683.598221,0.683598221,1
"116",1,24,21,2,36,"Person2","Person2","Matching","Person2","Individual_Self","Self","Bottom","z",667.002242,0.667002242,1
"117",1,24,21,2,37,"StrangerTeam","Team","Nonmatching","Team","Group-Self","Self","Top","z",918.557831,0.918557831,0
"118",1,24,21,2,38,"StrangerTeam","StrangerTeam","Matching","StrangerTeam","Group-Stranger","Stranger","Bottom","None",NA,NA,3
"119",1,24,21,2,39,"Person2","StrangerTeam","Nonmatching","StrangerTeam","Group-Stranger","Stranger","Bottom","z",750.237568,0.750237568,0
"120",1,24,21,2,40,"Team","Person1","Nonmatching","Person1","Individual_Self","Self","Bottom","num_3",583.815081,0.583815081,1
"121",1,24,21,2,41,"Team","Person2","Nonmatching","Person2","Individual_Self","Self","Top","num_3",733.604083,0.733604083,1
"122",1,24,21,2,42,"Person1","Person1","Matching","Person1","Individual_Self","Self","Top","z",600.27604,0.60027604,1
"123",1,24,21,2,43,"Stranger","Team","Nonmatching","Team","Group-Self","Self","Bottom","num_3",617.050071,0.617050071,1
"124",1,24,21,2,44,"StrangerTeam","StrangerTeam","Matching","StrangerTeam","Group-Stranger","Stranger","Top","z",667.08278,0.66708278,1
"125",1,24,21,2,45,"StrangerTeam","Stranger","Nonmatching","Stranger","Individual_Stranger","Stranger","Bottom","num_3",616.89847,0.61689847,1
"126",1,24,21,2,46,"Person2","Person2","Matching","Person2","Individual_Self","Self","Top","num_3",766.972909,0.766972909,0
"127",1,24,21,2,47,"Person2","Person2","Matching","Person2","Individual_Self","Self","Top","z",583.744018,0.583744018,1
"128",1,24,21,2,48,"Person2","Person2","Matching","Person2","Individual_Self","Self","Bottom","z",716.901905,0.716901905,1
"129",1,24,21,2,49,"Person1","Person2","Nonmatching","Person2","Individual_Self","Self","Bottom","z",616.913473,0.616913473,0
"130",1,24,21,2,50,"Person2","Person2","Matching","Person2","Individual_Self","Self","Top","num_3",616.882284,0.616882284,0
"131",1,24,21,2,51,"Person1","StrangerTeam","Nonmatching","StrangerTeam","Group-Stranger","Stranger","Top","num_3",700.297636,0.700297636,1
"132",1,24,21,2,52,"Team","Team","Matching","Team","Group-Self","Self","Top","num_3",1067.024271,1.067024271,0
"133",1,24,21,2,53,"StrangerTeam","Person2","Nonmatching","Person2","Individual_Self","Self","Top","num_3",900.357013,0.900357013,1
"134",1,24,21,2,54,"Person2","Team","Nonmatching","Team","Group-Self","Self","Bottom","num_3",583.614131,0.583614131,1
"135",1,24,21,2,55,"Person2","Stranger","Nonmatching","Stranger","Individual_Stranger","Stranger","Bottom","num_3",600.287489,0.600287489,1
"136",1,24,21,2,56,"Person1","Team","Nonmatching","Team","Group-Self","Self","Top","num_3",767.058184,0.767058184,1
"137",1,24,21,2,57,"Person2","Person2","Matching","Person2","Individual_Self","Self","Bottom","z",866.910413,0.866910413,1
"138",1,24,21,2,58,"StrangerTeam","Team","Nonmatching","Team","Group-Self","Self","Bottom","num_3",950.259834,0.950259834,1
"139",1,24,21,2,59,"Stranger","Stranger","Matching","Stranger","Individual_Stranger","Stranger","Bottom","z",700.220651,0.700220651,1
"140",1,24,21,2,60,"Person1","Person1","Matching","Person1","Individual_Self","Self","Bottom","z",550.194772,0.550194772,1
"141",1,24,21,2,61,"Stranger","Stranger","Matching","Stranger","Individual_Stranger","Stranger","Bottom","z",633.679608,0.633679608,1
"142",1,24,21,2,62,"Person2","Team","Nonmatching","Team","Group-Self","Self","Top","num_3",1000.238851,1.000238851,1
"143",1,24,21,2,63,"Stranger","StrangerTeam","Nonmatching","StrangerTeam","Group-Stranger","Stranger","Bottom","num_3",833.820707,0.833820707,1
"144",1,24,21,2,64,"Stranger","Stranger","Matching","Stranger","Individual_Stranger","Stranger","Bottom","z",600.361711,0.600361711,1
"145",1,24,21,2,65,"Stranger","Person2","Nonmatching","Person2","Individual_Self","Self","Bottom","num_3",700.219466,0.700219466,1
"146",1,24,21,2,66,"Person1","Team","Nonmatching","Team","Group-Self","Self","Bottom","num_3",1050.245898,1.050245898,1
"147",1,24,21,2,67,"Person1","Person1","Matching","Person1","Individual_Self","Self","Top","z",666.965131,0.666965131,1
"148",1,24,21,2,68,"Team","Person1","Nonmatching","Person1","Individual_Self","Self","Top","num_3",550.269783,0.550269783,1
"149",1,24,21,2,69,"Team","Team","Matching","Team","Group-Self","Self","Bottom","num_3",616.92729,0.61692729,0
"150",1,24,21,2,70,"StrangerTeam","Person2","Nonmatching","Person2","Individual_Self","Self","Bottom","num_3",1083.547608,1.083547608,1
"151",1,24,21,2,71,"StrangerTeam","StrangerTeam","Matching","StrangerTeam","Group-Stranger","Stranger","Top","z",733.722127,0.733722127,1
"152",1,24,21,2,72,"Person2","Stranger","Nonmatching","Stranger","Individual_Stranger","Stranger","Top","num_3",1350.26015,1.35026015,1
"153",1,24,21,2,73,"Person1","Person2","Nonmatching","Person2","Individual_Self","Self","Top","num_3",1066.905044,1.066905044,1
"154",1,24,21,2,74,"Stranger","StrangerTeam","Nonmatching","StrangerTeam","Group-Stranger","Stranger","Bottom","num_3",783.538883,0.783538883,1
"155",1,24,21,2,75,"Person1","Person1","Matching","Person1","Individual_Self","Self","Bottom","z",467.036036,0.467036036,1
"156",1,24,21,2,76,"Team","Team","Matching","Team","Group-Self","Self","Top","z",566.941957,0.566941957,1
"157",1,24,21,2,77,"Team","StrangerTeam","Nonmatching","StrangerTeam","Group-Stranger","Stranger","Bottom","num_3",567.085267,0.567085267,1
"158",1,24,21,2,78,"Person1","Person1","Matching","Person1","Individual_Self","Self","Top","z",516.942411,0.516942411,1
"159",1,24,21,2,79,"StrangerTeam","StrangerTeam","Matching","StrangerTeam","Group-Stranger","Stranger","Bottom","num_3",583.541094,0.583541094,0
"160",1,24,21,2,80,"StrangerTeam","Stranger","Nonmatching","Stranger","Individual_Stranger","Stranger","Top","num_3",683.72416,0.68372416,1
"161",1,24,21,3,1,"Stranger","Person1","Nonmatching","Person1","Individual_Self","Self","Bottom","num_3",616.932818,0.616932818,1
"162",1,24,21,3,2,"Person2","Person2","Matching","Person2","Individual_Self","Self","Top","z",733.632114,0.733632114,1
"163",1,24,21,3,3,"StrangerTeam","Person2","Nonmatching","Person2","Individual_Self","Self","Bottom","num_3",650.223473,0.650223473,1
"164",1,24,21,3,4,"Team","Team","Matching","Team","Group-Self","Self","Bottom","z",666.900385,0.666900385,1
"165",1,24,21,3,5,"Person2","StrangerTeam","Nonmatching","StrangerTeam","Group-Stranger","Stranger","Bottom","num_3",666.99632,0.66699632,1
"166",1,24,21,3,6,"Stranger","Stranger","Matching","Stranger","Individual_Stranger","Stranger","Bottom","num_3",583.581758,0.583581758,0
"167",1,24,21,3,7,"Person2","Person2","Matching","Person2","Individual_Self","Self","Top","z",517.611193,0.517611193,1
"168",1,24,21,3,8,"Person1","Person1","Matching","Person1","Individual_Self","Self","Bottom","z",650.222684,0.650222684,1
"169",1,24,21,3,9,"Person1","StrangerTeam","Nonmatching","StrangerTeam","Group-Stranger","Stranger","Top","num_3",718.360276,0.718360276,1
"170",1,24,21,3,10,"Person2","Stranger","Nonmatching","Stranger","Individual_Stranger","Stranger","Top","num_3",867.011875,0.867011875,1
"171",1,24,21,3,11,"Person1","Person1","Matching","Person1","Individual_Self","Self","Bottom","z",533.590502,0.533590502,1
"172",1,24,21,3,12,"Team","Person1","Nonmatching","Person1","Individual_Self","Self","Bottom","num_3",766.865919,0.766865919,1
"173",1,24,21,3,13,"Person1","Person1","Matching","Person1","Individual_Self","Self","Top","z",550.237804,0.550237804,1
"174",1,24,21,3,14,"Stranger","Stranger","Matching","Stranger","Individual_Stranger","Stranger","Bottom","z",583.601498,0.583601498,1
"175",1,24,21,3,15,"StrangerTeam","StrangerTeam","Matching","StrangerTeam","Group-Stranger","Stranger","Bottom","z",550.261097,0.550261097,1
"176",1,24,21,3,16,"Person2","Person2","Matching","Person2","Individual_Self","Self","Bottom","z",566.891818,0.566891818,1
"177",1,24,21,3,17,"Team","Team","Matching","Team","Group-Self","Self","Top","z",600.35263,0.60035263,1
"178",1,24,21,3,18,"Person2","Person2","Matching","Person2","Individual_Self","Self","Top","z",667.059487,0.667059487,1
"179",1,24,21,3,19,"Person2","Team","Nonmatching","Team","Group-Self","Self","Bottom","num_3",766.927507,0.766927507,1
"180",1,24,21,3,20,"StrangerTeam","Team","Nonmatching","Team","Group-Self","Self","Bottom","num_3",666.911044,0.666911044,1
"181",1,24,21,3,21,"Stranger","Stranger","Matching","Stranger","Individual_Stranger","Stranger","Bottom","z",483.823885,0.483823885,1
"182",1,24,21,3,22,"Person1","Person1","Matching","Person1","Individual_Self","Self","Bottom","z",500.382753,0.500382753,1
"183",1,24,21,3,23,"Stranger","Stranger","Matching","Stranger","Individual_Stranger","Stranger","Bottom","num_3",667.08357,0.66708357,0
"184",1,24,21,3,24,"Team","Team","Matching","Team","Group-Self","Self","Top","z",500.36933,0.50036933,1
"185",1,24,21,3,25,"Team","Stranger","Nonmatching","Stranger","Individual_Stranger","Stranger","Top","num_3",633.619204,0.633619204,1
"186",1,24,21,3,26,"StrangerTeam","StrangerTeam","Matching","StrangerTeam","Group-Stranger","Stranger","Top","z",567.005124,0.567005124,1
"187",1,24,21,3,27,"Team","Team","Matching","Team","Group-Self","Self","Bottom","num_3",517.045847,0.517045847,0
"188",1,24,21,3,28,"Person1","Team","Nonmatching","Team","Group-Self","Self","Top","num_3",1316.934357,1.316934357,1
"189",1,24,21,3,29,"Stranger","Person1","Nonmatching","Person1","Individual_Self","Self","Bottom","z",516.930567,0.516930567,0
"190",1,24,21,3,30,"Team","Stranger","Nonmatching","Stranger","Individual_Stranger","Stranger","Bottom","z",715.044002,0.715044002,0
"191",1,24,21,3,31,"Person2","Stranger","Nonmatching","Stranger","Individual_Stranger","Stranger","Bottom","num_3",700.286187,0.700286187,1
"192",1,24,21,3,32,"Team","Team","Matching","Team","Group-Self","Self","Bottom","num_3",700.412521,0.700412521,0
"193",1,24,21,3,33,"Team","Team","Matching","Team","Group-Self","Self","Top","z",550.21846,0.55021846,1
"194",1,24,21,3,34,"StrangerTeam","Person2","Nonmatching","Person2","Individual_Self","Self","Top","z",533.657618,0.533657618,0
"195",1,24,21,3,35,"StrangerTeam","StrangerTeam","Matching","StrangerTeam","Group-Stranger","Stranger","Bottom","num_3",567.093953,0.567093953,0
"196",1,24,21,3,36,"Person1","StrangerTeam","Nonmatching","StrangerTeam","Group-Stranger","Stranger","Bottom","num_3",766.932245,0.766932245,1
"197",1,24,21,3,37,"Team","StrangerTeam","Nonmatching","StrangerTeam","Group-Stranger","Stranger","Bottom","num_3",750.497737,0.750497737,1
"198",1,24,21,3,38,"Team","Person2","Nonmatching","Person2","Individual_Self","Self","Bottom","num_3",600.259854,0.600259854,1
"199",1,24,21,3,39,"StrangerTeam","StrangerTeam","Matching","StrangerTeam","Group-Stranger","Stranger","Bottom","z",883.735372,0.883735372,1
"200",1,24,21,3,40,"StrangerTeam","Team","Nonmatching","Team","Group-Self","Self","Top","num_3",700.326851,0.700326851,1
"201",1,24,21,3,41,"Person1","Stranger","Nonmatching","Stranger","Individual_Stranger","Stranger","Top","num_3",684.255159,0.684255159,1
"202",1,24,21,3,42,"StrangerTeam","Person1","Nonmatching","Person1","Individual_Self","Self","Bottom","num_3",583.588469,0.583588469,1
"203",1,24,21,3,43,"Team","Person1","Nonmatching","Person1","Individual_Self","Self","Top","num_3",616.979798,0.616979798,1
"204",1,24,21,3,44,"Stranger","Person2","Nonmatching","Person2","Individual_Self","Self","Bottom","num_3",567.151593,0.567151593,1
"205",1,24,21,3,45,"Team","StrangerTeam","Nonmatching","StrangerTeam","Group-Stranger","Stranger","Top","num_3",933.57858,0.93357858,1
"206",1,24,21,3,46,"Team","Team","Matching","Team","Group-Self","Self","Top","z",566.956959,0.566956959,1
"207",1,24,21,3,47,"StrangerTeam","Stranger","Nonmatching","Stranger","Individual_Stranger","Stranger","Top","num_3",683.548871,0.683548871,1
"208",1,24,21,3,48,"Person1","Person1","Matching","Person1","Individual_Self","Self","Top","z",666.956051,0.666956051,1
"209",1,24,21,3,49,"StrangerTeam","StrangerTeam","Matching","StrangerTeam","Group-Stranger","Stranger","Top","z",683.544924,0.683544924,1
"210",1,24,21,3,50,"Person1","Team","Nonmatching","Team","Group-Self","Self","Bottom","num_3",616.907551,0.616907551,1
"211",1,24,21,3,51,"Person2","Person1","Nonmatching","Person1","Individual_Self","Self","Bottom","num_3",866.934101,0.866934101,1
"212",1,24,21,3,52,"Person2","StrangerTeam","Nonmatching","StrangerTeam","Group-Stranger","Stranger","Top","num_3",850.254031,0.850254031,1
"213",1,24,21,3,53,"Stranger","StrangerTeam","Nonmatching","StrangerTeam","Group-Stranger","Stranger","Bottom","num_3",650.226632,0.650226632,1
"214",1,24,21,3,54,"Stranger","Team","Nonmatching","Team","Group-Self","Self","Bottom","z",816.994563,0.816994563,0
"215",1,24,21,3,55,"StrangerTeam","StrangerTeam","Matching","StrangerTeam","Group-Stranger","Stranger","Bottom","None",NA,NA,3
"216",1,24,21,3,56,"Person1","Person1","Matching","Person1","Individual_Self","Self","Bottom","z",516.921092,0.516921092,1
"217",1,24,21,3,57,"Stranger","Person2","Nonmatching","Person2","Individual_Self","Self","Bottom","num_3",600.362895,0.600362895,1
"218",1,24,21,3,58,"Person1","Stranger","Nonmatching","Stranger","Individual_Stranger","Stranger","Bottom","num_3",750.335477,0.750335477,1
"219",1,24,21,3,59,"Team","Person2","Nonmatching","Person2","Individual_Self","Self","Top","num_3",633.561564,0.633561564,1
"220",1,24,21,3,60,"Person1","Person2","Nonmatching","Person2","Individual_Self","Self","Bottom","z",483.634779,0.483634779,0
"221",1,24,21,3,61,"Person1","Person2","Nonmatching","Person2","Individual_Self","Self","Top","num_3",1133.707835,1.133707835,1
"222",1,24,21,3,62,"StrangerTeam","StrangerTeam","Matching","StrangerTeam","Group-Stranger","Stranger","Top","z",1416.894759,1.416894759,1
"223",1,24,21,3,63,"Person2","Person2","Matching","Person2","Individual_Self","Self","Bottom","num_3",617.055599,0.617055599,0
"224",1,24,21,3,64,"Stranger","Stranger","Matching","Stranger","Individual_Stranger","Stranger","Bottom","z",817.029305,0.817029305,1
"225",1,24,21,3,65,"Stranger","Stranger","Matching","Stranger","Individual_Stranger","Stranger","Bottom","z",500.268658,0.500268658,1
"226",1,24,21,3,66,"Stranger","StrangerTeam","Nonmatching","StrangerTeam","Group-Stranger","Stranger","Bottom","num_3",533.753158,0.533753158,1
"227",1,24,21,3,67,"Stranger","Team","Nonmatching","Team","Group-Self","Self","Bottom","num_3",1266.905201,1.266905201,1
"228",1,24,21,3,68,"Stranger","Stranger","Matching","Stranger","Individual_Stranger","Stranger","Bottom","None",NA,NA,3
"229",1,24,21,3,69,"Person2","Person2","Matching","Person2","Individual_Self","Self","Bottom","z",583.554517,0.583554517,1
"230",1,24,21,3,70,"Person1","Person1","Matching","Person1","Individual_Self","Self","Top","z",583.533988,0.583533988,1
"231",1,24,21,3,71,"Team","Team","Matching","Team","Group-Self","Self","Bottom","z",566.933666,0.566933666,1
"232",1,24,21,3,72,"StrangerTeam","Stranger","Nonmatching","Stranger","Individual_Stranger","Stranger","Bottom","num_3",617.127846,0.617127846,1
"233",1,24,21,3,73,"Person2","Person2","Matching","Person2","Individual_Self","Self","Bottom","z",816.936528,0.816936528,1
"234",1,24,21,3,74,"Person2","Person1","Nonmatching","Person1","Individual_Self","Self","Top","z",533.716047,0.533716047,0
"235",1,24,21,3,75,"StrangerTeam","Person1","Nonmatching","Person1","Individual_Self","Self","Top","num_3",633.59749,0.63359749,1
"236",1,24,21,3,76,"StrangerTeam","StrangerTeam","Matching","StrangerTeam","Group-Stranger","Stranger","Top","None",NA,NA,3
"237",1,24,21,3,77,"Person1","Person1","Matching","Person1","Individual_Self","Self","Top","z",450.362283,0.450362283,1
"238",1,24,21,3,78,"Person2","Person2","Matching","Person2","Individual_Self","Self","Top","z",600.258669,0.600258669,1
"239",1,24,21,3,79,"Person2","Team","Nonmatching","Team","Group-Self","Self","Top","num_3",550.36098,0.55036098,1
"240",1,24,21,3,80,"Stranger","Stranger","Matching","Stranger","Individual_Stranger","Stranger","Bottom","z",716.918881,0.716918881,1
"241",1,24,21,4,1,"Person2","Person2","Matching","Person2","Individual_Self","Self","Top","z",550.298603,0.550298603,1
"242",1,24,21,4,2,"Team","Team","Matching","Team","Group-Self","Self","Bottom","z",567.03118,0.56703118,1
"243",1,24,21,4,3,"Person1","Person1","Matching","Person1","Individual_Self","Self","Top","z",467.578879,0.467578879,1
"244",1,24,21,4,4,"StrangerTeam","StrangerTeam","Matching","StrangerTeam","Group-Stranger","Stranger","Bottom","z",533.601952,0.533601952,1
"245",1,24,21,4,5,"Person2","Person2","Matching","Person2","Individual_Self","Self","Bottom","z",483.657677,0.483657677,1
"246",1,24,21,4,6,"Stranger","Stranger","Matching","Stranger","Individual_Stranger","Stranger","Bottom","z",500.45658,0.50045658,1
"247",1,24,21,4,7,"Stranger","Team","Nonmatching","Team","Group-Self","Self","Bottom","num_3",550.282022,0.550282022,1
"248",1,24,21,4,8,"Person1","Person2","Nonmatching","Person2","Individual_Self","Self","Top","num_3",900.597443,0.900597443,1
"249",1,24,21,4,9,"Team","Person2","Nonmatching","Person2","Individual_Self","Self","Bottom","num_3",516.915565,0.516915565,1
"250",1,24,21,4,10,"Team","Team","Matching","Team","Group-Self","Self","Top","z",633.642892,0.633642892,1
"251",1,24,21,4,11,"Person2","Person2","Matching","Person2","Individual_Self","Self","Bottom","z",767.095295,0.767095295,1
"252",1,24,21,4,12,"StrangerTeam","Team","Nonmatching","Team","Group-Self","Self","Top","num_3",700.449632,0.700449632,1
"253",1,24,21,4,13,"StrangerTeam","Team","Nonmatching","Team","Group-Self","Self","Bottom","num_3",533.569578,0.533569578,1
"254",1,24,21,4,14,"Team","Team","Matching","Team","Group-Self","Self","Top","num_3",533.74921,0.53374921,0
"255",1,24,21,4,15,"Person1","StrangerTeam","Nonmatching","StrangerTeam","Group-Stranger","Stranger","Top","num_3",800.275804,0.800275804,1
"256",1,24,21,4,16,"StrangerTeam","StrangerTeam","Matching","StrangerTeam","Group-Stranger","Stranger","Top","z",1100.36862,1.10036862,1
"257",1,24,21,4,17,"Stranger","StrangerTeam","Nonmatching","StrangerTeam","Group-Stranger","Stranger","Bottom","num_3",650.24953,0.65024953,1
"258",1,24,21,4,18,"Person2","StrangerTeam","Nonmatching","StrangerTeam","Group-Stranger","Stranger","Top","num_3",583.832452,0.583832452,1
"259",1,24,21,4,19,"Team","Stranger","Nonmatching","Stranger","Individual_Stranger","Stranger","Top","num_3",750.2427,0.7502427,1
"260",1,24,21,4,20,"Stranger","Person2","Nonmatching","Person2","Individual_Self","Self","Bottom","num_3",683.582429,0.683582429,1
"261",1,24,21,4,21,"StrangerTeam","StrangerTeam","Matching","StrangerTeam","Group-Stranger","Stranger","Bottom","z",650.456007,0.650456007,1
"262",1,24,21,4,22,"Person2","Person2","Matching","Person2","Individual_Self","Self","Bottom","z",650.418502,0.650418502,1
"263",1,24,21,4,23,"Person2","Person1","Nonmatching","Person1","Individual_Self","Self","Bottom","z",483.73861,0.48373861,0
"264",1,24,21,4,24,"Person1","Person1","Matching","Person1","Individual_Self","Self","Bottom","z",516.942411,0.516942411,1
"265",1,24,21,4,25,"Team","StrangerTeam","Nonmatching","StrangerTeam","Group-Stranger","Stranger","Bottom","num_3",566.944326,0.566944326,1
"266",1,24,21,4,26,"Person2","Team","Nonmatching","Team","Group-Self","Self","Bottom","num_3",683.696919,0.683696919,1
"267",1,24,21,4,27,"StrangerTeam","Person1","Nonmatching","Person1","Individual_Self","Self","Top","num_3",666.930389,0.666930389,1
"268",1,24,21,4,28,"Person1","Person1","Matching","Person1","Individual_Self","Self","Top","z",500.267473,0.500267473,1
"269",1,24,21,4,29,"Person1","Person1","Matching","Person1","Individual_Self","Self","Top","z",600.270118,0.600270118,1
"270",1,24,21,4,30,"Stranger","Person1","Nonmatching","Person1","Individual_Self","Self","Bottom","num_3",583.605445,0.583605445,1
"271",1,24,21,4,31,"Person2","Stranger","Nonmatching","Stranger","Individual_Stranger","Stranger","Bottom","num_3",650.386524,0.650386524,1
"272",1,24,21,4,32,"Person1","Person1","Matching","Person1","Individual_Self","Self","Top","z",450.269507,0.450269507,1
"273",1,24,21,4,33,"StrangerTeam","StrangerTeam","Matching","StrangerTeam","Group-Stranger","Stranger","Top","num_3",633.588805,0.633588805,0
"274",1,24,21,4,34,"Team","StrangerTeam","Nonmatching","StrangerTeam","Group-Stranger","Stranger","Top","num_3",583.737307,0.583737307,1
"275",1,24,21,4,35,"StrangerTeam","StrangerTeam","Matching","StrangerTeam","Group-Stranger","Stranger","Bottom","z",633.573803,0.633573803,1
"276",1,24,21,4,36,"StrangerTeam","StrangerTeam","Matching","StrangerTeam","Group-Stranger","Stranger","Top","z",583.636634,0.583636634,1
"277",1,24,21,4,37,"Person2","Person1","Nonmatching","Person1","Individual_Self","Self","Top","z",500.279317,0.500279317,0
"278",1,24,21,4,38,"Person2","Person2","Matching","Person2","Individual_Self","Self","Bottom","None",NA,NA,3
"279",1,24,21,4,39,"StrangerTeam","Stranger","Nonmatching","Stranger","Individual_Stranger","Stranger","Top","num_3",683.579271,0.683579271,1
"280",1,24,21,4,40,"StrangerTeam","Person1","Nonmatching","Person1","Individual_Self","Self","Bottom","num_3",1164.756058,1.164756058,1
"281",1,24,21,4,41,"Stranger","Stranger","Matching","Stranger","Individual_Stranger","Stranger","Bottom","num_3",567.299641,0.567299641,0
"282",1,24,21,4,42,"Person1","Team","Nonmatching","Team","Group-Self","Self","Top","num_3",1066.903859,1.066903859,1
"283",1,24,21,4,43,"Team","Person1","Nonmatching","Person1","Individual_Self","Self","Top","z",433.594174,0.433594174,0
"284",1,24,21,4,44,"StrangerTeam","StrangerTeam","Matching","StrangerTeam","Group-Stranger","Stranger","Top","num_3",633.801994,0.633801994,0
"285",1,24,21,4,45,"Stranger","Stranger","Matching","Stranger","Individual_Stranger","Stranger","Bottom","z",567.077766,0.567077766,1
"286",1,24,21,4,46,"Stranger","Person2","Nonmatching","Person2","Individual_Self","Self","Bottom","num_3",483.570032,0.483570032,1
"287",1,24,21,4,47,"Person2","Person2","Matching","Person2","Individual_Self","Self","Top","num_3",650.386129,0.650386129,0
"288",1,24,21,4,48,"Stranger","Stranger","Matching","Stranger","Individual_Stranger","Stranger","Bottom","z",500.28366,0.50028366,1
"289",1,24,21,4,49,"Team","Team","Matching","Team","Group-Self","Self","Bottom","z",800.189738,0.800189738,1
"290",1,24,21,4,50,"Stranger","Stranger","Matching","Stranger","Individual_Stranger","Stranger","Bottom","z",600.270118,0.600270118,1
"291",1,24,21,4,51,"Team","Person1","Nonmatching","Person1","Individual_Self","Self","Bottom","num_3",733.594214,0.733594214,1
"292",1,24,21,4,52,"Team","Person2","Nonmatching","Person2","Individual_Self","Self","Top","num_3",633.611308,0.633611308,1
"293",1,24,21,4,53,"Team","Team","Matching","Team","Group-Self","Self","Top","z",966.936351,0.966936351,1
"294",1,24,21,4,54,"Stranger","StrangerTeam","Nonmatching","StrangerTeam","Group-Stranger","Stranger","Bottom","num_3",1483.667942,1.483667942,1
"295",1,24,21,4,55,"Team","Team","Matching","Team","Group-Self","Self","Bottom","z",716.93033,0.71693033,1
"296",1,24,21,4,56,"StrangerTeam","StrangerTeam","Matching","StrangerTeam","Group-Stranger","Stranger","Bottom","z",600.39211,0.60039211,1
"297",1,24,21,4,57,"Person1","Stranger","Nonmatching","Stranger","Individual_Stranger","Stranger","Top","num_3",783.600471,0.783600471,1
"298",1,24,21,4,58,"Person2","Person2","Matching","Person2","Individual_Self","Self","Top","z",633.586041,0.633586041,1
"299",1,24,21,4,59,"Stranger","Person1","Nonmatching","Person1","Individual_Self","Self","Bottom","num_3",883.699841,0.883699841,1
"300",1,24,21,4,60,"Person2","Person2","Matching","Person2","Individual_Self","Self","Top","z",733.581185,0.733581185,1
"301",1,24,21,4,61,"Stranger","Team","Nonmatching","Team","Group-Self","Self","Bottom","None",NA,NA,3
"302",1,24,21,4,62,"Person1","Person1","Matching","Person1","Individual_Self","Self","Bottom","z",500.344458,0.500344458,1
"303",1,24,21,4,63,"Stranger","Stranger","Matching","Stranger","Individual_Stranger","Stranger","Bottom","num_3",600.26775,0.60026775,0
"304",1,24,21,4,64,"Team","Team","Matching","Team","Group-Self","Self","Bottom","z",700.274343,0.700274343,1
"305",1,24,21,4,65,"StrangerTeam","Stranger","Nonmatching","Stranger","Individual_Stranger","Stranger","Bottom","num_3",683.603353,0.683603353,1
"306",1,24,21,4,66,"Person1","Stranger","Nonmatching","Stranger","Individual_Stranger","Stranger","Bottom","num_3",718.562411,0.718562411,1
"307",1,24,21,4,67,"Person2","Stranger","Nonmatching","Stranger","Individual_Stranger","Stranger","Top","num_3",733.597767,0.733597767,1
"308",1,24,21,4,68,"Person1","Team","Nonmatching","Team","Group-Self","Self","Bottom","num_3",666.892489,0.666892489,1
"309",1,24,21,4,69,"Person2","Team","Nonmatching","Team","Group-Self","Self","Top","num_3",633.751855,0.633751855,1
"310",1,24,21,4,70,"Person1","Person1","Matching","Person1","Individual_Self","Self","Bottom","z",1433.560222,1.433560222,1
"311",1,24,21,4,71,"Team","Team","Matching","Team","Group-Self","Self","Top","z",800.254879,0.800254879,1
"312",1,24,21,4,72,"Stranger","Stranger","Matching","Stranger","Individual_Stranger","Stranger","Bottom","z",550.238989,0.550238989,1
"313",1,24,21,4,73,"Stranger","Stranger","Matching","Stranger","Individual_Stranger","Stranger","Bottom","z",433.757619,0.433757619,1
"314",1,24,21,4,74,"Team","Stranger","Nonmatching","Stranger","Individual_Stranger","Stranger","Bottom","num_3",650.247556,0.650247556,1
"315",1,24,21,4,75,"StrangerTeam","Person2","Nonmatching","Person2","Individual_Self","Self","Bottom","num_3",617.058757,0.617058757,1
"316",1,24,21,4,76,"Person1","Person1","Matching","Person1","Individual_Self","Self","Bottom","z",566.9159,0.5669159,1
"317",1,24,21,4,77,"StrangerTeam","Person2","Nonmatching","Person2","Individual_Self","Self","Top","num_3",766.972119,0.766972119,1
"318",1,24,21,4,78,"Person1","StrangerTeam","Nonmatching","StrangerTeam","Group-Stranger","Stranger","Bottom","num_3",650.26848,0.65026848,1
"319",1,24,21,4,79,"Person2","StrangerTeam","Nonmatching","StrangerTeam","Group-Stranger","Stranger","Bottom","num_3",550.261097,0.550261097,1
"320",1,24,21,4,80,"Person1","Person2","Nonmatching","Person2","Individual_Self","Self","Bottom","num_3",950.252728,0.950252728,1
"321",1,24,21,5,1,"StrangerTeam","Person2","Nonmatching","Person2","Individual_Self","Self","Top","num_3",833.592121,0.833592121,1
"322",1,24,21,5,2,"Person2","Team","Nonmatching","Team","Group-Self","Self","Bottom","num_3",700.285002,0.700285002,1
"323",1,24,21,5,3,"Person1","StrangerTeam","Nonmatching","StrangerTeam","Group-Stranger","Stranger","Top","num_3",750.269546,0.750269546,1
"324",1,24,21,5,4,"Stranger","Team","Nonmatching","Team","Group-Self","Self","Bottom","num_3",800.25409,0.80025409,1
"325",1,24,21,5,5,"Person2","Person1","Nonmatching","Person1","Individual_Self","Self","Bottom","num_3",1166.902162,1.166902162,1
"326",1,24,21,5,6,"Person1","Team","Nonmatching","Team","Group-Self","Self","Top","num_3",816.938897,0.816938897,1
"327",1,24,21,5,7,"Person2","Person2","Matching","Person2","Individual_Self","Self","Bottom","num_3",717.037714,0.717037714,0
"328",1,24,21,5,8,"Team","Team","Matching","Team","Group-Self","Self","Bottom","z",618.753215,0.618753215,1
"329",1,24,21,5,9,"Team","Team","Matching","Team","Group-Self","Self","Bottom","z",650.268875,0.650268875,1
"330",1,24,21,5,10,"Team","Team","Matching","Team","Group-Self","Self","Top","z",1016.931949,1.016931949,1
"331",1,24,21,5,11,"Team","Team","Matching","Team","Group-Self","Self","Top","z",483.609117,0.483609117,1
"332",1,24,21,5,12,"Person2","Person1","Nonmatching","Person1","Individual_Self","Self","Top","num_3",650.237686,0.650237686,1
"333",1,24,21,5,13,"Stranger","Stranger","Matching","Stranger","Individual_Stranger","Stranger","Bottom","z",533.609058,0.533609058,1
"334",1,24,21,5,14,"Person1","Person1","Matching","Person1","Individual_Self","Self","Top","z",516.979916,0.516979916,1
"335",1,24,21,5,15,"Team","Person1","Nonmatching","Person1","Individual_Self","Self","Top","num_3",633.748697,0.633748697,1
"336",1,24,21,5,16,"Stranger","Person2","Nonmatching","Person2","Individual_Self","Self","Bottom","num_3",650.230975,0.650230975,1
"337",1,24,21,5,17,"Team","Stranger","Nonmatching","Stranger","Individual_Stranger","Stranger","Top","num_3",716.993892,0.716993892,1
"338",1,24,21,5,18,"Person1","Person1","Matching","Person1","Individual_Self","Self","Top","z",583.599129,0.583599129,1
"339",1,24,21,5,19,"StrangerTeam","StrangerTeam","Matching","StrangerTeam","Group-Stranger","Stranger","Bottom","z",733.792006,0.733792006,1
"340",1,24,21,5,20,"Stranger","Stranger","Matching","Stranger","Individual_Stranger","Stranger","Bottom","z",583.55807,0.58355807,1
"341",1,24,21,5,21,"StrangerTeam","Person2","Nonmatching","Person2","Individual_Self","Self","Bottom","num_3",683.598221,0.683598221,1
"342",1,24,21,5,22,"Person1","Person1","Matching","Person1","Individual_Self","Self","Top","z",550.270178,0.550270178,1
"343",1,24,21,5,23,"StrangerTeam","Stranger","Nonmatching","Stranger","Individual_Stranger","Stranger","Bottom","num_3",716.903879,0.716903879,1
"344",1,24,21,5,24,"StrangerTeam","Person1","Nonmatching","Person1","Individual_Self","Self","Top","num_3",566.939588,0.566939588,1
"345",1,24,21,5,25,"StrangerTeam","StrangerTeam","Matching","StrangerTeam","Group-Stranger","Stranger","Top","num_3",567.100664,0.567100664,0
"346",1,24,21,5,26,"StrangerTeam","StrangerTeam","Matching","StrangerTeam","Group-Stranger","Stranger","Top","z",766.924349,0.766924349,1
"347",1,24,21,5,27,"Person2","Person2","Matching","Person2","Individual_Self","Self","Top","z",1400.23206,1.40023206,1
"348",1,24,21,5,28,"StrangerTeam","Team","Nonmatching","Team","Group-Self","Self","Top","num_3",716.948096,0.716948096,1
"349",1,24,21,5,29,"Stranger","Stranger","Matching","Stranger","Individual_Stranger","Stranger","Bottom","z",516.969652,0.516969652,1
"350",1,24,21,5,30,"Stranger","Stranger","Matching","Stranger","Individual_Stranger","Stranger","Bottom","z",400.416824,0.400416824,1
"351",1,24,21,5,31,"Team","Team","Matching","Team","Group-Self","Self","Top","z",550.341241,0.550341241,1
"352",1,24,21,5,32,"Person2","StrangerTeam","Nonmatching","StrangerTeam","Group-Stranger","Stranger","Top","z",650.409027,0.650409027,0
"353",1,24,21,5,33,"Person2","Team","Nonmatching","Team","Group-Self","Self","Top","z",667.029483,0.667029483,0
"354",1,24,21,5,34,"Person1","Person1","Matching","Person1","Individual_Self","Self","Top","z",483.623724,0.483623724,1
"355",1,24,21,5,35,"Team","StrangerTeam","Nonmatching","StrangerTeam","Group-Stranger","Stranger","Bottom","num_3",783.602445,0.783602445,1
"356",1,24,21,5,36,"Person2","Person2","Matching","Person2","Individual_Self","Self","Bottom","z",633.599859,0.633599859,1
"357",1,24,21,5,37,"Team","Team","Matching","Team","Group-Self","Self","Top","z",633.74317,0.63374317,1
"358",1,24,21,5,38,"Person1","Person1","Matching","Person1","Individual_Self","Self","Bottom","z",466.925099,0.466925099,1
"359",1,24,21,5,39,"Person1","Stranger","Nonmatching","Stranger","Individual_Stranger","Stranger","Top","num_3",600.458041,0.600458041,1
"360",1,24,21,5,40,"StrangerTeam","Team","Nonmatching","Team","Group-Self","Self","Bottom","num_3",766.929876,0.766929876,1
"361",1,24,21,5,41,"Team","Person1","Nonmatching","Person1","Individual_Self","Self","Bottom","num_3",833.582251,0.833582251,1
"362",1,24,21,5,42,"Team","Team","Matching","Team","Group-Self","Self","Bottom","z",850.292326,0.850292326,1
"363",1,24,21,5,43,"Person1","StrangerTeam","Nonmatching","StrangerTeam","Group-Stranger","Stranger","Bottom","num_3",800.155391,0.800155391,1
"364",1,24,21,5,44,"Person2","Person2","Matching","Person2","Individual_Self","Self","Top","z",817.128399,0.817128399,1
"365",1,24,21,5,45,"Person1","Stranger","Nonmatching","Stranger","Individual_Stranger","Stranger","Bottom","num_3",550.439544,0.550439544,1
"366",1,24,21,5,46,"Stranger","Person1","Nonmatching","Person1","Individual_Self","Self","Bottom","num_3",966.952143,0.966952143,1
"367",1,24,21,5,47,"Person1","Person2","Nonmatching","Person2","Individual_Self","Self","Top","num_3",716.900326,0.716900326,1
"368",1,24,21,5,48,"Person2","Person2","Matching","Person2","Individual_Self","Self","Top","z",833.609887,0.833609887,1
"369",1,24,21,5,49,"Person1","Person1","Matching","Person1","Individual_Self","Self","Bottom","num_3",533.361522,0.533361522,0
"370",1,24,21,5,50,"Person2","Stranger","Nonmatching","Stranger","Individual_Stranger","Stranger","Bottom","num_3",566.986964,0.566986964,1
"371",1,24,21,5,51,"Stranger","Person1","Nonmatching","Person1","Individual_Self","Self","Bottom","num_3",766.926718,0.766926718,1
"372",1,24,21,5,52,"Person1","Team","Nonmatching","Team","Group-Self","Self","Bottom","num_3",500.265104,0.500265104,1
"373",1,24,21,5,53,"Person2","Person2","Matching","Person2","Individual_Self","Self","Bottom","z",733.566183,0.733566183,1
"374",1,24,21,5,54,"Person1","Person2","Nonmatching","Person2","Individual_Self","Self","Bottom","num_3",516.937279,0.516937279,1
"375",1,24,21,5,55,"Stranger","Stranger","Matching","Stranger","Individual_Stranger","Stranger","Bottom","z",616.951768,0.616951768,1
"376",1,24,21,5,56,"Person2","Person2","Matching","Person2","Individual_Self","Self","Bottom","z",783.587048,0.783587048,1
"377",1,24,21,5,57,"Team","Person2","Nonmatching","Person2","Individual_Self","Self","Bottom","num_3",600.263012,0.600263012,1
"378",1,24,21,5,58,"StrangerTeam","StrangerTeam","Matching","StrangerTeam","Group-Stranger","Stranger","Bottom","num_3",648.765892,0.648765892,0
"379",1,24,21,5,59,"Person2","StrangerTeam","Nonmatching","StrangerTeam","Group-Stranger","Stranger","Bottom","num_3",516.94478,0.51694478,1
"380",1,24,21,5,60,"Team","Stranger","Nonmatching","Stranger","Individual_Stranger","Stranger","Bottom","num_3",933.725443,0.933725443,1
"381",1,24,21,5,61,"Team","Team","Matching","Team","Group-Self","Self","Bottom","z",450.360309,0.450360309,1
"382",1,24,21,5,62,"StrangerTeam","StrangerTeam","Matching","StrangerTeam","Group-Stranger","Stranger","Bottom","z",683.723765,0.683723765,1
"383",1,24,21,5,63,"Person2","Stranger","Nonmatching","Stranger","Individual_Stranger","Stranger","Top","num_3",566.929718,0.566929718,1
"384",1,24,21,5,64,"StrangerTeam","StrangerTeam","Matching","StrangerTeam","Group-Stranger","Stranger","Top","z",616.93795,0.61693795,1
"385",1,24,21,5,65,"Stranger","Stranger","Matching","Stranger","Individual_Stranger","Stranger","Bottom","z",583.599524,0.583599524,1
"386",1,24,21,5,66,"Stranger","StrangerTeam","Nonmatching","StrangerTeam","Group-Stranger","Stranger","Bottom","num_3",733.590661,0.733590661,1
"387",1,24,21,5,67,"Stranger","Team","Nonmatching","Team","Group-Self","Self","Bottom","num_3",1000.25938,1.00025938,1
"388",1,24,21,5,68,"Team","StrangerTeam","Nonmatching","StrangerTeam","Group-Stranger","Stranger","Top","num_3",866.946734,0.866946734,1
"389",1,24,21,5,69,"Stranger","StrangerTeam","Nonmatching","StrangerTeam","Group-Stranger","Stranger","Bottom","num_3",617.029542,0.617029542,1
"390",1,24,21,5,70,"Stranger","Stranger","Matching","Stranger","Individual_Stranger","Stranger","Bottom","z",633.602623,0.633602623,1
"391",1,24,21,5,71,"StrangerTeam","StrangerTeam","Matching","StrangerTeam","Group-Stranger","Stranger","Bottom","num_3",650.38376,0.65038376,0
"392",1,24,21,5,72,"Stranger","Stranger","Matching","Stranger","Individual_Stranger","Stranger","Bottom","z",500.276159,0.500276159,1
"393",1,24,21,5,73,"StrangerTeam","StrangerTeam","Matching","StrangerTeam","Group-Stranger","Stranger","Top","z",650.355335,0.650355335,1
"394",1,24,21,5,74,"Person1","Person1","Matching","Person1","Individual_Self","Self","Bottom","z",450.264769,0.450264769,1
"395",1,24,21,5,75,"StrangerTeam","Person1","Nonmatching","Person1","Individual_Self","Self","Bottom","num_3",750.361928,0.750361928,1
"396",1,24,21,5,76,"Person2","Person2","Matching","Person2","Individual_Self","Self","Top","z",733.593819,0.733593819,1
"397",1,24,21,5,77,"Stranger","Person2","Nonmatching","Person2","Individual_Self","Self","Bottom","num_3",600.436722,0.600436722,1
"398",1,24,21,5,78,"StrangerTeam","Stranger","Nonmatching","Stranger","Individual_Stranger","Stranger","Top","num_3",816.912051,0.816912051,1
"399",1,24,21,5,79,"Person1","Person1","Matching","Person1","Individual_Self","Self","Bottom","z",550.271757,0.550271757,1
"400",1,24,21,5,80,"Team","Person2","Nonmatching","Person2","Individual_Self","Self","Top","num_3",650.30796,0.65030796,1
"401",1,24,21,6,1,"StrangerTeam","Stranger","Nonmatching","Stranger","Individual_Stranger","Stranger","Bottom","num_3",616.932028,0.616932028,1
"402",1,24,21,6,2,"StrangerTeam","StrangerTeam","Matching","StrangerTeam","Group-Stranger","Stranger","Top","z",667.049223,0.667049223,1
"403",1,24,21,6,3,"Person1","Person1","Matching","Person1","Individual_Self","Self","Top","z",516.928593,0.516928593,1
"404",1,24,21,6,4,"Person1","Person1","Matching","Person1","Individual_Self","Self","Bottom","z",516.891088,0.516891088,1
"405",1,24,21,6,5,"Team","Team","Matching","Team","Group-Self","Self","Bottom","z",633.549325,0.633549325,1
"406",1,24,21,6,6,"Stranger","Person1","Nonmatching","Person1","Individual_Self","Self","Bottom","num_3",517.111383,0.517111383,1
"407",1,24,21,6,7,"Person1","Person1","Matching","Person1","Individual_Self","Self","Top","z",433.776964,0.433776964,1
"408",1,24,21,6,8,"Stranger","Person2","Nonmatching","Person2","Individual_Self","Self","Bottom","num_3",517.200607,0.517200607,1
"409",1,24,21,6,9,"Person2","Person2","Matching","Person2","Individual_Self","Self","Top","z",716.941384,0.716941384,1
"410",1,24,21,6,10,"Stranger","Stranger","Matching","Stranger","Individual_Stranger","Stranger","Bottom","z",550.270178,0.550270178,1
"411",1,24,21,6,11,"Stranger","Stranger","Matching","Stranger","Individual_Stranger","Stranger","Bottom","z",467.013533,0.467013533,1
"412",1,24,21,6,12,"Person2","StrangerTeam","Nonmatching","StrangerTeam","Group-Stranger","Stranger","Top","num_3",550.306894,0.550306894,1
"413",1,24,21,6,13,"Stranger","Stranger","Matching","Stranger","Individual_Stranger","Stranger","Bottom","z",550.274126,0.550274126,1
"414",1,24,21,6,14,"Person1","Team","Nonmatching","Team","Group-Self","Self","Bottom","num_3",633.610913,0.633610913,1
"415",1,24,21,6,15,"Stranger","Stranger","Matching","Stranger","Individual_Stranger","Stranger","Bottom","z",466.968527,0.466968527,1
"416",1,24,21,6,16,"Person1","Person1","Matching","Person1","Individual_Self","Self","Top","z",533.706967,0.533706967,1
"417",1,24,21,6,17,"Team","Stranger","Nonmatching","Stranger","Individual_Stranger","Stranger","Bottom","num_3",533.726312,0.533726312,1
"418",1,24,21,6,18,"Team","Stranger","Nonmatching","Stranger","Individual_Stranger","Stranger","Top","num_3",917.195395,0.917195395,1
"419",1,24,21,6,19,"Person1","Person1","Matching","Person1","Individual_Self","Self","Bottom","z",516.907274,0.516907274,1
"420",1,24,21,6,20,"Person1","Person2","Nonmatching","Person2","Individual_Self","Self","Bottom","num_3",800.239482,0.800239482,1
"421",1,24,21,6,21,"StrangerTeam","Team","Nonmatching","Team","Group-Self","Self","Top","num_3",833.562906,0.833562906,1
"422",1,24,21,6,22,"Team","StrangerTeam","Nonmatching","StrangerTeam","Group-Stranger","Stranger","Top","num_3",916.943516,0.916943516,1
"423",1,24,21,6,23,"Team","Team","Matching","Team","Group-Self","Self","Top","num_3",600.247615,0.600247615,0
"424",1,24,21,6,24,"Person1","Person1","Matching","Person1","Individual_Self","Self","Bottom","z",516.954255,0.516954255,1
"425",1,24,21,6,25,"Person2","StrangerTeam","Nonmatching","StrangerTeam","Group-Stranger","Stranger","Bottom","num_3",650.255847,0.650255847,1
"426",1,24,21,6,26,"Stranger","StrangerTeam","Nonmatching","StrangerTeam","Group-Stranger","Stranger","Bottom","num_3",616.979403,0.616979403,1
"427",1,24,21,6,27,"Team","Team","Matching","Team","Group-Self","Self","Bottom","z",516.891088,0.516891088,1
"428",1,24,21,6,28,"Person2","Person1","Nonmatching","Person1","Individual_Self","Self","Top","z",550.297418,0.550297418,0
"429",1,24,21,6,29,"Stranger","Team","Nonmatching","Team","Group-Self","Self","Bottom","num_3",800.250537,0.800250537,1
"430",1,24,21,6,30,"Person1","Person1","Matching","Person1","Individual_Self","Self","Bottom","z",466.960236,0.466960236,1
"431",1,24,21,6,31,"StrangerTeam","Person2","Nonmatching","Person2","Individual_Self","Self","Top","num_3",616.922553,0.616922553,1
"432",1,24,21,6,32,"Person2","Stranger","Nonmatching","Stranger","Individual_Stranger","Stranger","Top","num_3",650.2594,0.6502594,1
"433",1,24,21,6,33,"Person1","Stranger","Nonmatching","Stranger","Individual_Stranger","Stranger","Top","num_3",616.94624,0.61694624,1
"434",1,24,21,6,34,"StrangerTeam","StrangerTeam","Matching","StrangerTeam","Group-Stranger","Stranger","Bottom","z",650.268085,0.650268085,1
"435",1,24,21,6,35,"Person2","Team","Nonmatching","Team","Group-Self","Self","Bottom","num_3",600.264197,0.600264197,1
"436",1,24,21,6,36,"StrangerTeam","StrangerTeam","Matching","StrangerTeam","Group-Stranger","Stranger","Bottom","z",633.578935,0.633578935,1
"437",1,24,21,6,37,"Team","Person2","Nonmatching","Person2","Individual_Self","Self","Bottom","num_3",617.107712,0.617107712,1
"438",1,24,21,6,38,"StrangerTeam","StrangerTeam","Matching","StrangerTeam","Group-Stranger","Stranger","Top","z",633.557221,0.633557221,1
"439",1,24,21,6,39,"Team","Team","Matching","Team","Group-Self","Self","Top","z",566.942747,0.566942747,1
"440",1,24,21,6,40,"StrangerTeam","Team","Nonmatching","Team","Group-Self","Self","Bottom","num_3",666.988029,0.666988029,1
"441",1,24,21,6,41,"Person2","Person2","Matching","Person2","Individual_Self","Self","Bottom","z",850.256794,0.850256794,1
"442",1,24,21,6,42,"Team","Team","Matching","Team","Group-Self","Self","Bottom","z",766.876184,0.766876184,1
"443",1,24,21,6,43,"Stranger","Stranger","Matching","Stranger","Individual_Stranger","Stranger","Bottom","z",550.26544,0.55026544,1
"444",1,24,21,6,44,"StrangerTeam","Person2","Nonmatching","Person2","Individual_Self","Self","Bottom","z",567.041445,0.567041445,0
"445",1,24,21,6,45,"Person2","Person2","Matching","Person2","Individual_Self","Self","Bottom","num_3",366.942194,0.366942194,0
"446",1,24,21,6,46,"Person1","StrangerTeam","Nonmatching","StrangerTeam","Group-Stranger","Stranger","Bottom","num_3",816.885995,0.816885995,1
"447",1,24,21,6,47,"Person2","Person2","Matching","Person2","Individual_Self","Self","Top","z",550.235436,0.550235436,1
"448",1,24,21,6,48,"StrangerTeam","Person1","Nonmatching","Person1","Individual_Self","Self","Top","num_3",633.633022,0.633633022,1
"449",1,24,21,6,49,"StrangerTeam","StrangerTeam","Matching","StrangerTeam","Group-Stranger","Stranger","Bottom","z",616.971112,0.616971112,1
"450",1,24,21,6,50,"Stranger","Person1","Nonmatching","Person1","Individual_Self","Self","Bottom","num_3",666.916572,0.666916572,1
"451",1,24,21,6,51,"Person2","Person1","Nonmatching","Person1","Individual_Self","Self","Bottom","num_3",650.253873,0.650253873,1
"452",1,24,21,6,52,"Person2","Person2","Matching","Person2","Individual_Self","Self","Top","z",600.306834,0.600306834,1
"453",1,24,21,6,53,"Person2","Stranger","Nonmatching","Stranger","Individual_Stranger","Stranger","Bottom","num_3",583.601892,0.583601892,1
"454",1,24,21,6,54,"Person2","Person2","Matching","Person2","Individual_Self","Self","Top","z",833.584225,0.833584225,1
"455",1,24,21,6,55,"StrangerTeam","Person1","Nonmatching","Person1","Individual_Self","Self","Bottom","num_3",516.936094,0.516936094,1
"456",1,24,21,6,56,"Team","Team","Matching","Team","Group-Self","Self","Top","z",566.954195,0.566954195,1
"457",1,24,21,6,57,"Stranger","StrangerTeam","Nonmatching","StrangerTeam","Group-Stranger","Stranger","Bottom","num_3",533.564051,0.533564051,1
"458",1,24,21,6,58,"StrangerTeam","StrangerTeam","Matching","StrangerTeam","Group-Stranger","Stranger","Top","z",717.004946,0.717004946,1
"459",1,24,21,6,59,"StrangerTeam","Stranger","Nonmatching","Stranger","Individual_Stranger","Stranger","Top","num_3",400.271934,0.400271934,1
"460",1,24,21,6,60,"Person2","Person2","Matching","Person2","Individual_Self","Self","Bottom","z",550.238989,0.550238989,1
"461",1,24,21,6,61,"Person1","Team","Nonmatching","Team","Group-Self","Self","Top","num_3",716.947306,0.716947306,1
"462",1,24,21,6,62,"Team","StrangerTeam","Nonmatching","StrangerTeam","Group-Stranger","Stranger","Bottom","num_3",750.240331,0.750240331,1
"463",1,24,21,6,63,"Team","Team","Matching","Team","Group-Self","Self","Bottom","z",616.945056,0.616945056,1
"464",1,24,21,6,64,"Stranger","Stranger","Matching","Stranger","Individual_Stranger","Stranger","Bottom","z",566.921822,0.566921822,1
"465",1,24,21,6,65,"Person2","Team","Nonmatching","Team","Group-Self","Self","Top","num_3",683.591904,0.683591904,1
"466",1,24,21,6,66,"Stranger","Stranger","Matching","Stranger","Individual_Stranger","Stranger","Bottom","z",616.934791,0.616934791,1
"467",1,24,21,6,67,"StrangerTeam","StrangerTeam","Matching","StrangerTeam","Group-Stranger","Stranger","Bottom","z",683.595062,0.683595062,1
"468",1,24,21,6,68,"Stranger","Stranger","Matching","Stranger","Individual_Stranger","Stranger","Bottom","z",583.636634,0.583636634,1
"469",1,24,21,6,69,"Stranger","Team","Nonmatching","Team","Group-Self","Self","Bottom","num_3",668.603924,0.668603924,1
"470",1,24,21,6,70,"Stranger","Person2","Nonmatching","Person2","Individual_Self","Self","Bottom","num_3",650.265322,0.650265322,1
"471",1,24,21,6,71,"Person1","StrangerTeam","Nonmatching","StrangerTeam","Group-Stranger","Stranger","Top","num_3",1000.209636,1.000209636,1
"472",1,24,21,6,72,"Team","Person2","Nonmatching","Person2","Individual_Self","Self","Top","num_3",633.598675,0.633598675,1
"473",1,24,21,6,73,"Person1","Person2","Nonmatching","Person2","Individual_Self","Self","Top","z",750.266782,0.750266782,0
"474",1,24,21,6,74,"Team","Team","Matching","Team","Group-Self","Self","Top","z",633.584857,0.633584857,1
"475",1,24,21,6,75,"StrangerTeam","StrangerTeam","Matching","StrangerTeam","Group-Stranger","Stranger","Top","z",600.268145,0.600268145,1
"476",1,24,21,6,76,"Person2","Person2","Matching","Person2","Individual_Self","Self","Bottom","num_3",600.222348,0.600222348,0
"477",1,24,21,6,77,"Person1","Stranger","Nonmatching","Stranger","Individual_Stranger","Stranger","Bottom","num_3",683.590325,0.683590325,1
"478",1,24,21,6,78,"Team","Person1","Nonmatching","Person1","Individual_Self","Self","Top","num_3",650.365205,0.650365205,1
"479",1,24,21,6,79,"Person1","Person1","Matching","Person1","Individual_Self","Self","Top","z",883.517841,0.883517841,1
"480",1,24,21,6,80,"Team","Person1","Nonmatching","Person1","Individual_Self","Self","Bottom","num_3",550.312026,0.550312026,1
"481",1,24,21,7,1,"Stranger","Person2","Nonmatching","Person2","Individual_Self","Self","Bottom","num_3",516.925435,0.516925435,1
"482",1,24,21,7,2,"Team","StrangerTeam","Nonmatching","StrangerTeam","Group-Stranger","Stranger","Bottom","num_3",850.261137,0.850261137,1
"483",1,24,21,7,3,"Stranger","Stranger","Matching","Stranger","Individual_Stranger","Stranger","Bottom","z",600.291437,0.600291437,1
"484",1,24,21,7,4,"Person2","Person2","Matching","Person2","Individual_Self","Self","Top","z",500.231152,0.500231152,1
"485",1,24,21,7,5,"Person1","Person1","Matching","Person1","Individual_Self","Self","Top","z",450.360309,0.450360309,1
"486",1,24,21,7,6,"Person1","Team","Nonmatching","Team","Group-Self","Self","Bottom","num_3",583.581758,0.583581758,1
"487",1,24,21,7,7,"Person2","Team","Nonmatching","Team","Group-Self","Self","Top","num_3",550.278863,0.550278863,1
"488",1,24,21,7,8,"Person1","Person2","Nonmatching","Person2","Individual_Self","Self","Top","num_3",700.500955,0.700500955,1
"489",1,24,21,7,9,"StrangerTeam","Person1","Nonmatching","Person1","Individual_Self","Self","Top","num_3",617.153902,0.617153902,1
"490",1,24,21,7,10,"Stranger","Person1","Nonmatching","Person1","Individual_Self","Self","Bottom","num_3",616.898075,0.616898075,1
"491",1,24,21,7,11,"Person2","Person1","Nonmatching","Person1","Individual_Self","Self","Bottom","num_3",700.46187,0.70046187,1
"492",1,24,21,7,12,"StrangerTeam","StrangerTeam","Matching","StrangerTeam","Group-Stranger","Stranger","Top","z",650.255057,0.650255057,1
"493",1,24,21,7,13,"Person2","StrangerTeam","Nonmatching","StrangerTeam","Group-Stranger","Stranger","Top","num_3",550.26544,0.55026544,1
"494",1,24,21,7,14,"Stranger","Team","Nonmatching","Team","Group-Self","Self","Bottom","num_3",917.112094,0.917112094,1
"495",1,24,21,7,15,"Stranger","Stranger","Matching","Stranger","Individual_Stranger","Stranger","Bottom","z",566.889844,0.566889844,1
"496",1,24,21,7,16,"Team","Person2","Nonmatching","Person2","Individual_Self","Self","Top","num_3",583.620448,0.583620448,1
"497",1,24,21,7,17,"Stranger","Person2","Nonmatching","Person2","Individual_Self","Self","Bottom","num_3",600.253537,0.600253537,1
"498",1,24,21,7,18,"Stranger","Team","Nonmatching","Team","Group-Self","Self","Bottom","num_3",1066.905438,1.066905438,1
"499",1,24,21,7,19,"StrangerTeam","Person2","Nonmatching","Person2","Individual_Self","Self","Top","num_3",850.233501,0.850233501,1
"500",1,24,21,7,20,"Stranger","Stranger","Matching","Stranger","Individual_Stranger","Stranger","Bottom","z",667.097782,0.667097782,1
"501",1,24,21,7,21,"Person1","Person1","Matching","Person1","Individual_Self","Self","Top","z",583.601497,0.583601497,1
"502",1,24,21,7,22,"Person2","Team","Nonmatching","Team","Group-Self","Self","Bottom","num_3",717.076404,0.717076404,1
"503",1,24,21,7,23,"Team","Team","Matching","Team","Group-Self","Self","Top","num_3",583.587285,0.583587285,0
"504",1,24,21,7,24,"Person1","Person1","Matching","Person1","Individual_Self","Self","Bottom","z",500.422233,0.500422233,1
"505",1,24,21,7,25,"Stranger","StrangerTeam","Nonmatching","StrangerTeam","Group-Stranger","Stranger","Bottom","num_3",600.233797,0.600233797,1
"506",1,24,21,7,26,"Person1","Person1","Matching","Person1","Individual_Self","Self","Bottom","z",500.419864,0.500419864,1
"507",1,24,21,7,27,"Team","Team","Matching","Team","Group-Self","Self","Bottom","z",750.289286,0.750289286,1
"508",1,24,21,7,28,"Person2","Person2","Matching","Person2","Individual_Self","Self","Top","z",700.24118,0.70024118,1
"509",1,24,21,7,29,"Team","StrangerTeam","Nonmatching","StrangerTeam","Group-Stranger","Stranger","Top","num_3",633.569065,0.633569065,1
"510",1,24,21,7,30,"Person1","Stranger","Nonmatching","Stranger","Individual_Stranger","Stranger","Bottom","num_3",765.014728,0.765014728,1
"511",1,24,21,7,31,"StrangerTeam","StrangerTeam","Matching","StrangerTeam","Group-Stranger","Stranger","Top","z",633.644866,0.633644866,1
"512",1,24,21,7,32,"Team","Team","Matching","Team","Group-Self","Self","Top","z",600.264986,0.600264986,1
"513",1,24,21,7,33,"StrangerTeam","Person2","Nonmatching","Person2","Individual_Self","Self","Bottom","num_3",716.943358,0.716943358,1
"514",1,24,21,7,34,"Stranger","Stranger","Matching","Stranger","Individual_Stranger","Stranger","Bottom","z",583.614921,0.583614921,1
"515",1,24,21,7,35,"Stranger","StrangerTeam","Nonmatching","StrangerTeam","Group-Stranger","Stranger","Bottom","num_3",666.905123,0.666905123,1
"516",1,24,21,7,36,"Person2","Person1","Nonmatching","Person1","Individual_Self","Self","Top","z",516.96294,0.51696294,0
"517",1,24,21,7,37,"Team","Team","Matching","Team","Group-Self","Self","Top","z",750.477208,0.750477208,1
"518",1,24,21,7,38,"Stranger","Stranger","Matching","Stranger","Individual_Stranger","Stranger","Bottom","z",566.930113,0.566930113,1
"519",1,24,21,7,39,"Team","Team","Matching","Team","Group-Self","Self","Bottom","z",717.046005,0.717046005,1
"520",1,24,21,7,40,"Person2","Person2","Matching","Person2","Individual_Self","Self","Bottom","z",666.927231,0.666927231,1
"521",1,24,21,7,41,"Team","Team","Matching","Team","Group-Self","Self","Top","num_3",550.26623,0.55026623,0
"522",1,24,21,7,42,"Person1","Person1","Matching","Person1","Individual_Self","Self","Bottom","z",566.938799,0.566938799,1
"523",1,24,21,7,43,"Person1","Person1","Matching","Person1","Individual_Self","Self","Top","z",383.600945,0.383600945,1
"524",1,24,21,7,44,"Person2","StrangerTeam","Nonmatching","StrangerTeam","Group-Stranger","Stranger","Bottom","num_3",733.634877,0.733634877,1
"525",1,24,21,7,45,"Person1","Person2","Nonmatching","Person2","Individual_Self","Self","Bottom","num_3",716.88335,0.71688335,1
"526",1,24,21,7,46,"Person2","Stranger","Nonmatching","Stranger","Individual_Stranger","Stranger","Bottom","num_3",650.246372,0.650246372,1
"527",1,24,21,7,47,"Person1","Stranger","Nonmatching","Stranger","Individual_Stranger","Stranger","Top","num_3",600.292622,0.600292622,1
"528",1,24,21,7,48,"Stranger","Person1","Nonmatching","Person1","Individual_Self","Self","Bottom","num_3",583.630712,0.583630712,1
"529",1,24,21,7,49,"StrangerTeam","StrangerTeam","Matching","StrangerTeam","Group-Stranger","Stranger","Bottom","z",516.891482,0.516891482,1
"530",1,24,21,7,50,"Team","Person1","Nonmatching","Person1","Individual_Self","Self","Bottom","num_3",633.563933,0.633563933,1
"531",1,24,21,7,51,"Team","Team","Matching","Team","Group-Self","Self","Bottom","z",566.984595,0.566984595,1
"532",1,24,21,7,52,"Person1","StrangerTeam","Nonmatching","StrangerTeam","Group-Stranger","Stranger","Bottom","num_3",683.564268,0.683564268,1
"533",1,24,21,7,53,"StrangerTeam","StrangerTeam","Matching","StrangerTeam","Group-Stranger","Stranger","Top","z",650.375469,0.650375469,1
"534",1,24,21,7,54,"Person1","Person1","Matching","Person1","Individual_Self","Self","Top","z",633.601044,0.633601044,1
"535",1,24,21,7,55,"StrangerTeam","Stranger","Nonmatching","Stranger","Individual_Stranger","Stranger","Bottom","num_3",550.285575,0.550285575,1
"536",1,24,21,7,56,"StrangerTeam","Team","Nonmatching","Team","Group-Self","Self","Top","num_3",583.643741,0.583643741,1
"537",1,24,21,7,57,"Team","Stranger","Nonmatching","Stranger","Individual_Stranger","Stranger","Bottom","num_3",483.615039,0.483615039,1
"538",1,24,21,7,58,"StrangerTeam","StrangerTeam","Matching","StrangerTeam","Group-Stranger","Stranger","Top","z",733.570526,0.733570526,1
"539",1,24,21,7,59,"Stranger","Stranger","Matching","Stranger","Individual_Stranger","Stranger","Bottom","z",683.603748,0.683603748,1
"540",1,24,21,7,60,"StrangerTeam","Person1","Nonmatching","Person1","Individual_Self","Self","Bottom","num_3",598.485647,0.598485647,1
"541",1,24,21,7,61,"Team","Person1","Nonmatching","Person1","Individual_Self","Self","Top","num_3",583.650847,0.583650847,1
"542",1,24,21,7,62,"StrangerTeam","StrangerTeam","Matching","StrangerTeam","Group-Stranger","Stranger","Bottom","z",600.251958,0.600251958,1
"543",1,24,21,7,63,"Person1","Person1","Matching","Person1","Individual_Self","Self","Bottom","z",633.514978,0.633514978,1
"544",1,24,21,7,64,"Person2","Person2","Matching","Person2","Individual_Self","Self","Top","num_3",583.705329,0.583705329,0
"545",1,24,21,7,65,"Person2","Person2","Matching","Person2","Individual_Self","Self","Bottom","z",816.927843,0.816927843,1
"546",1,24,21,7,66,"Team","Team","Matching","Team","Group-Self","Self","Bottom","z",650.260584,0.650260584,1
"547",1,24,21,7,67,"Person2","Person2","Matching","Person2","Individual_Self","Self","Top","z",717.169971,0.717169971,1
"548",1,24,21,7,68,"Person2","Person2","Matching","Person2","Individual_Self","Self","Bottom","z",1050.247477,1.050247477,1
"549",1,24,21,7,69,"Team","Person2","Nonmatching","Person2","Individual_Self","Self","Bottom","num_3",550.254781,0.550254781,1
"550",1,24,21,7,70,"Stranger","Stranger","Matching","Stranger","Individual_Stranger","Stranger","Bottom","z",516.916749,0.516916749,1
"551",1,24,21,7,71,"StrangerTeam","StrangerTeam","Matching","StrangerTeam","Group-Stranger","Stranger","Bottom","z",616.943082,0.616943082,1
"552",1,24,21,7,72,"Person1","StrangerTeam","Nonmatching","StrangerTeam","Group-Stranger","Stranger","Top","num_3",783.627317,0.783627317,1
"553",1,24,21,7,73,"Team","Stranger","Nonmatching","Stranger","Individual_Stranger","Stranger","Top","num_3",583.560439,0.583560439,1
"554",1,24,21,7,74,"StrangerTeam","Stranger","Nonmatching","Stranger","Individual_Stranger","Stranger","Top","num_3",583.603472,0.583603472,1
"555",1,24,21,7,75,"StrangerTeam","Team","Nonmatching","Team","Group-Self","Self","Bottom","num_3",850.268243,0.850268243,1
"556",1,24,21,7,76,"Person2","Person2","Matching","Person2","Individual_Self","Self","Bottom","z",633.574198,0.633574198,1
"557",1,24,21,7,77,"StrangerTeam","StrangerTeam","Matching","StrangerTeam","Group-Stranger","Stranger","Bottom","z",733.61119,0.73361119,1
"558",1,24,21,7,78,"Person1","Team","Nonmatching","Team","Group-Self","Self","Top","num_3",716.874664,0.716874664,1
"559",1,24,21,7,79,"Person2","Stranger","Nonmatching","Stranger","Individual_Stranger","Stranger","Top","num_3",716.906643,0.716906643,1
"560",1,24,21,7,80,"Stranger","Stranger","Matching","Stranger","Individual_Stranger","Stranger","Bottom","z",633.560774,0.633560774,1
"561",1,24,21,8,1,"Person1","Person1","Matching","Person1","Individual_Self","Self","Bottom","z",615.018459,0.615018459,1
"562",1,24,21,8,2,"StrangerTeam","StrangerTeam","Matching","StrangerTeam","Group-Stranger","Stranger","Bottom","z",666.929995,0.666929995,1
"563",1,24,21,8,3,"Person2","Person2","Matching","Person2","Individual_Self","Self","Top","z",667.00619,0.66700619,1
"564",1,24,21,8,4,"Person2","Person2","Matching","Person2","Individual_Self","Self","Top","z",583.555701,0.583555701,1
"565",1,24,21,8,5,"Person1","Person1","Matching","Person1","Individual_Self","Self","Bottom","z",567.073029,0.567073029,1
"566",1,24,21,8,6,"Person1","StrangerTeam","Nonmatching","StrangerTeam","Group-Stranger","Stranger","Top","num_3",550.255965,0.550255965,1
"567",1,24,21,8,7,"Stranger","Stranger","Matching","Stranger","Individual_Stranger","Stranger","Bottom","z",567.01381,0.56701381,1
"568",1,24,21,8,8,"Person1","Person2","Nonmatching","Person2","Individual_Self","Self","Top","num_3",817.20341,0.81720341,1
"569",1,24,21,8,9,"Stranger","Stranger","Matching","Stranger","Individual_Stranger","Stranger","Bottom","z",600.274066,0.600274066,1
"570",1,24,21,8,10,"Team","Stranger","Nonmatching","Stranger","Individual_Stranger","Stranger","Top","num_3",483.602406,0.483602406,1
"571",1,24,21,8,11,"Person1","Person2","Nonmatching","Person2","Individual_Self","Self","Bottom","num_3",683.578876,0.683578876,1
"572",1,24,21,8,12,"Stranger","Team","Nonmatching","Team","Group-Self","Self","Bottom","num_3",633.753829,0.633753829,1
"573",1,24,21,8,13,"Team","Team","Matching","Team","Group-Self","Self","Top","z",700.313033,0.700313033,1
"574",1,24,21,8,14,"Stranger","Stranger","Matching","Stranger","Individual_Stranger","Stranger","Bottom","z",566.90682,0.56690682,1
"575",1,24,21,8,15,"Person1","Stranger","Nonmatching","Stranger","Individual_Stranger","Stranger","Top","num_3",583.53833,0.58353833,1
"576",1,24,21,8,16,"Person1","Person1","Matching","Person1","Individual_Self","Self","Bottom","z",550.254386,0.550254386,1
"577",1,24,21,8,17,"Person1","StrangerTeam","Nonmatching","StrangerTeam","Group-Stranger","Stranger","Bottom","num_3",596.74026,0.59674026,1
"578",1,24,21,8,18,"Person1","Stranger","Nonmatching","Stranger","Individual_Stranger","Stranger","Bottom","num_3",550.279258,0.550279258,1
"579",1,24,21,8,19,"Stranger","StrangerTeam","Nonmatching","StrangerTeam","Group-Stranger","Stranger","Bottom","num_3",683.60059,0.68360059,1
"580",1,24,21,8,20,"Stranger","Person1","Nonmatching","Person1","Individual_Self","Self","Bottom","num_3",583.602682,0.583602682,1
"581",1,24,21,8,21,"Person1","Person1","Matching","Person1","Individual_Self","Self","Top","z",800.243036,0.800243036,1
"582",1,24,21,8,22,"StrangerTeam","Person2","Nonmatching","Person2","Individual_Self","Self","Top","num_3",1000.255432,1.000255432,1
"583",1,24,21,8,23,"Stranger","Person2","Nonmatching","Person2","Individual_Self","Self","Bottom","num_3",583.610183,0.583610183,1
"584",1,24,21,8,24,"Stranger","Person1","Nonmatching","Person1","Individual_Self","Self","Bottom","num_3",716.901905,0.716901905,1
"585",1,24,21,8,25,"Stranger","Team","Nonmatching","Team","Group-Self","Self","Bottom","num_3",700.26092,0.70026092,1
"586",1,24,21,8,26,"Stranger","Stranger","Matching","Stranger","Individual_Stranger","Stranger","Bottom","z",617.11916,0.61711916,1
"587",1,24,21,8,27,"Team","Team","Matching","Team","Group-Self","Self","Bottom","z",616.952557,0.616952557,1
"588",1,24,21,8,28,"Team","Team","Matching","Team","Group-Self","Self","Top","z",1466.891542,1.466891542,1
"589",1,24,21,8,29,"Person2","Person2","Matching","Person2","Individual_Self","Self","Bottom","z",583.600708,0.583600708,1
"590",1,24,21,8,30,"Stranger","Stranger","Matching","Stranger","Individual_Stranger","Stranger","Bottom","z",631.891978,0.631891978,1
"591",1,24,21,8,31,"Team","Team","Matching","Team","Group-Self","Self","Bottom","z",650.244003,0.650244003,1
"592",1,24,21,8,32,"Person2","Stranger","Nonmatching","Stranger","Individual_Stranger","Stranger","Bottom","num_3",616.965191,0.616965191,1
"593",1,24,21,8,33,"Person1","Team","Nonmatching","Team","Group-Self","Self","Bottom","num_3",633.546167,0.633546167,1
"594",1,24,21,8,34,"StrangerTeam","Team","Nonmatching","Team","Group-Self","Self","Bottom","num_3",566.921033,0.566921033,1
"595",1,24,21,8,35,"Stranger","Person2","Nonmatching","Person2","Individual_Self","Self","Bottom","num_3",600.269724,0.600269724,1
"596",1,24,21,8,36,"Stranger","StrangerTeam","Nonmatching","StrangerTeam","Group-Stranger","Stranger","Bottom","num_3",633.556037,0.633556037,1
"597",1,24,21,8,37,"StrangerTeam","StrangerTeam","Matching","StrangerTeam","Group-Stranger","Stranger","Top","z",683.578876,0.683578876,1
"598",1,24,21,8,38,"Team","Person2","Nonmatching","Person2","Individual_Self","Self","Bottom","num_3",616.937555,0.616937555,1
"599",1,24,21,8,39,"Team","Team","Matching","Team","Group-Self","Self","Bottom","num_3",850.218499,0.850218499,0
"600",1,24,21,8,40,"Person2","Person2","Matching","Person2","Individual_Self","Self","Bottom","z",566.916295,0.566916295,1
"601",1,24,21,8,41,"Person2","Person1","Nonmatching","Person1","Individual_Self","Self","Bottom","num_3",616.933212,0.616933212,1
"602",1,24,21,8,42,"Person2","Person2","Matching","Person2","Individual_Self","Self","Top","z",750.216249,0.750216249,1
"603",1,24,21,8,43,"Person2","Person2","Matching","Person2","Individual_Self","Self","Bottom","z",566.917085,0.566917085,1
"604",1,24,21,8,44,"Person1","Team","Nonmatching","Team","Group-Self","Self","Top","num_3",733.621454,0.733621454,1
"605",1,24,21,8,45,"StrangerTeam","StrangerTeam","Matching","StrangerTeam","Group-Stranger","Stranger","Top","z",566.862603,0.566862603,1
"606",1,24,21,8,46,"StrangerTeam","StrangerTeam","Matching","StrangerTeam","Group-Stranger","Stranger","Bottom","z",533.574316,0.533574316,1
"607",1,24,21,8,47,"Team","StrangerTeam","Nonmatching","StrangerTeam","Group-Stranger","Stranger","Top","num_3",583.619263,0.583619263,1
"608",1,24,21,8,48,"Team","Team","Matching","Team","Group-Self","Self","Bottom","z",616.908735,0.616908735,1
"609",1,24,21,8,49,"Person2","Person2","Matching","Person2","Individual_Self","Self","Bottom","z",650.24874,0.65024874,1
"610",1,24,21,8,50,"StrangerTeam","Stranger","Nonmatching","Stranger","Individual_Stranger","Stranger","Top","num_3",650.222289,0.650222289,1
"611",1,24,21,8,51,"Person2","StrangerTeam","Nonmatching","StrangerTeam","Group-Stranger","Stranger","Top","num_3",650.278745,0.650278745,1
"612",1,24,21,8,52,"Person1","Person1","Matching","Person1","Individual_Self","Self","Top","z",566.93643,0.56693643,1
"613",1,24,21,8,53,"StrangerTeam","Stranger","Nonmatching","Stranger","Individual_Stranger","Stranger","Bottom","num_3",533.6059,0.5336059,1
"614",1,24,21,8,54,"Person1","Person1","Matching","Person1","Individual_Self","Self","Top","z",533.724733,0.533724733,1
"615",1,24,21,8,55,"StrangerTeam","Person1","Nonmatching","Person1","Individual_Self","Self","Bottom","num_3",700.240785,0.700240785,1
"616",1,24,21,8,56,"StrangerTeam","Person1","Nonmatching","Person1","Individual_Self","Self","Top","num_3",583.622422,0.583622422,1
"617",1,24,21,8,57,"StrangerTeam","StrangerTeam","Matching","StrangerTeam","Group-Stranger","Stranger","Top","z",700.209202,0.700209202,1
"618",1,24,21,8,58,"Team","Person2","Nonmatching","Person2","Individual_Self","Self","Top","num_3",566.852733,0.566852733,1
"619",1,24,21,8,59,"Person2","Person1","Nonmatching","Person1","Individual_Self","Self","Top","num_3",783.560992,0.783560992,1
"620",1,24,21,8,60,"Stranger","Stranger","Matching","Stranger","Individual_Stranger","Stranger","Bottom","z",515.1761,0.5151761,1
"621",1,24,21,8,61,"StrangerTeam","Team","Nonmatching","Team","Group-Self","Self","Top","num_3",666.980923,0.666980923,1
"622",1,24,21,8,62,"Person1","Person1","Matching","Person1","Individual_Self","Self","Bottom","z",516.891877,0.516891877,1
"623",1,24,21,8,63,"Team","Team","Matching","Team","Group-Self","Self","Top","num_3",516.930567,0.516930567,0
"624",1,24,21,8,64,"Team","Team","Matching","Team","Group-Self","Self","Top","z",833.573171,0.833573171,1
"625",1,24,21,8,65,"Stranger","Stranger","Matching","Stranger","Individual_Stranger","Stranger","Bottom","z",766.940536,0.766940536,1
"626",1,24,21,8,66,"Team","Person1","Nonmatching","Person1","Individual_Self","Self","Bottom","num_3",733.597767,0.733597767,1
"627",1,24,21,8,67,"Person2","Team","Nonmatching","Team","Group-Self","Self","Bottom","num_3",767.210575,0.767210575,1
"628",1,24,21,8,68,"Team","Stranger","Nonmatching","Stranger","Individual_Stranger","Stranger","Bottom","z",500.3792,0.5003792,0
"629",1,24,21,8,69,"Person1","Person1","Matching","Person1","Individual_Self","Self","Top","z",533.572342,0.533572342,1
"630",1,24,21,8,70,"Person2","Stranger","Nonmatching","Stranger","Individual_Stranger","Stranger","Top","num_3",500.233521,0.500233521,1
"631",1,24,21,8,71,"Person2","Team","Nonmatching","Team","Group-Self","Self","Top","num_3",783.577968,0.783577968,1
"632",1,24,21,8,72,"Person2","StrangerTeam","Nonmatching","StrangerTeam","Group-Stranger","Stranger","Bottom","num_3",800.305808,0.800305808,1
"633",1,24,21,8,73,"Stranger","Stranger","Matching","Stranger","Individual_Stranger","Stranger","Bottom","z",533.579448,0.533579448,1
"634",1,24,21,8,74,"Team","StrangerTeam","Nonmatching","StrangerTeam","Group-Stranger","Stranger","Bottom","num_3",800.222111,0.800222111,1
"635",1,24,21,8,75,"Person2","Person2","Matching","Person2","Individual_Self","Self","Top","z",766.973304,0.766973304,1
"636",1,24,21,8,76,"StrangerTeam","StrangerTeam","Matching","StrangerTeam","Group-Stranger","Stranger","Bottom","num_3",650.313487,0.650313487,0
"637",1,24,21,8,77,"Team","Person1","Nonmatching","Person1","Individual_Self","Self","Top","num_3",833.573171,0.833573171,1
"638",1,24,21,8,78,"StrangerTeam","StrangerTeam","Matching","StrangerTeam","Group-Stranger","Stranger","Bottom","z",533.588529,0.533588529,1
"639",1,24,21,8,79,"StrangerTeam","StrangerTeam","Matching","StrangerTeam","Group-Stranger","Stranger","Top","z",516.940832,0.516940832,1
"640",1,24,21,8,80,"StrangerTeam","Person2","Nonmatching","Person2","Individual_Self","Self","Bottom","num_3",650.251504,0.650251504,1
"641",2,24,23,1,1,"StrangerTeam","Team","Nonmatching","Team","Group-Self","Self","Bottom","num_3",816.895075,0.816895075,1
"642",2,24,23,1,2,"Person2","Person2","Matching","Person2","Individual_Self","Self","Top","z",1500.16917,1.50016917,1
"643",2,24,23,1,3,"Person1","Team","Nonmatching","Team","Group-Self","Self","Bottom","num_3",733.532231,0.733532231,1
"644",2,24,23,1,4,"Person2","Stranger","Nonmatching","Stranger","Individual_Stranger","Stranger","Bottom","num_3",1016.836014,1.016836014,1
"645",2,24,23,1,5,"StrangerTeam","StrangerTeam","Matching","StrangerTeam","Group-Stranger","Stranger","Bottom","num_3",650.206103,0.650206103,0
"646",2,24,23,1,6,"Person2","Person2","Matching","Person2","Individual_Self","Self","Bottom","z",1517.074667,1.517074667,1
"647",2,24,23,1,7,"StrangerTeam","StrangerTeam","Matching","StrangerTeam","Group-Stranger","Stranger","Top","num_3",683.559926,0.683559926,0
"648",2,24,23,1,8,"StrangerTeam","Person1","Nonmatching","Person1","Individual_Self","Self","Bottom","num_3",800.18579,0.80018579,1
"649",2,24,23,1,9,"Team","Person2","Nonmatching","Person2","Individual_Self","Self","Bottom","num_3",750.182691,0.750182691,1
"650",2,24,23,1,10,"Person2","Stranger","Nonmatching","Stranger","Individual_Stranger","Stranger","Top","num_3",1033.522795,1.033522795,1
"651",2,24,23,1,11,"Person2","Team","Nonmatching","Team","Group-Self","Self","Top","num_3",716.868742,0.716868742,1
"652",2,24,23,1,12,"Stranger","Stranger","Matching","Stranger","Individual_Stranger","Stranger","Bottom","z",783.533751,0.783533751,1
"653",2,24,23,1,13,"Person2","Team","Nonmatching","Team","Group-Self","Self","Bottom","None",NA,NA,3
"654",2,24,23,1,14,"Stranger","Stranger","Matching","Stranger","Individual_Stranger","Stranger","Bottom","z",1016.839567,1.016839567,1
"655",2,24,23,1,15,"Person1","Person1","Matching","Person1","Individual_Self","Self","Bottom","z",833.495397,0.833495397,1
"656",2,24,23,1,16,"Stranger","Stranger","Matching","Stranger","Individual_Stranger","Stranger","Bottom","z",983.524039,0.983524039,1
"657",2,24,23,1,17,"Person2","Person2","Matching","Person2","Individual_Self","Self","Top","z",1233.505582,1.233505582,1
"658",2,24,23,1,18,"Person1","StrangerTeam","Nonmatching","StrangerTeam","Group-Stranger","Stranger","Bottom","num_3",766.856839,0.766856839,1
"659",2,24,23,1,19,"Person1","Person1","Matching","Person1","Individual_Self","Self","Top","z",766.862366,0.766862366,1
"660",2,24,23,1,20,"Person1","Person2","Nonmatching","Person2","Individual_Self","Self","Bottom","num_3",850.193232,0.850193232,1
"661",2,24,23,1,21,"StrangerTeam","StrangerTeam","Matching","StrangerTeam","Group-Stranger","Stranger","Bottom","num_3",800.196055,0.800196055,0
"662",2,24,23,1,22,"StrangerTeam","StrangerTeam","Matching","StrangerTeam","Group-Stranger","Stranger","Bottom","z",750.200062,0.750200062,1
"663",2,24,23,1,23,"Person1","Person1","Matching","Person1","Individual_Self","Self","Top","z",700.207228,0.700207228,1
"664",2,24,23,1,24,"StrangerTeam","StrangerTeam","Matching","StrangerTeam","Group-Stranger","Stranger","Top","z",1016.841936,1.016841936,1
"665",2,24,23,1,25,"Person2","StrangerTeam","Nonmatching","StrangerTeam","Group-Stranger","Stranger","Bottom","z",900.181329,0.900181329,0
"666",2,24,23,1,26,"Team","StrangerTeam","Nonmatching","StrangerTeam","Group-Stranger","Stranger","Bottom","num_3",1398.265194,1.398265194,1
"667",2,24,23,1,27,"Stranger","Person1","Nonmatching","Person1","Individual_Self","Self","Bottom","num_3",1000.180421,1.000180421,1
"668",2,24,23,1,28,"Team","Person1","Nonmatching","Person1","Individual_Self","Self","Top","num_3",600.22827,0.60022827,1
"669",2,24,23,1,29,"Team","Person1","Nonmatching","Person1","Individual_Self","Self","Bottom","num_3",833.558169,0.833558169,1
"670",2,24,23,1,30,"Team","Person2","Nonmatching","Person2","Individual_Self","Self","Top","num_3",550.211748,0.550211748,1
"671",2,24,23,1,31,"Person1","StrangerTeam","Nonmatching","StrangerTeam","Group-Stranger","Stranger","Top","num_3",850.189679,0.850189679,1
"672",2,24,23,1,32,"Person2","StrangerTeam","Nonmatching","StrangerTeam","Group-Stranger","Stranger","Top","z",866.921072,0.866921072,0
"673",2,24,23,1,33,"Person2","Person2","Matching","Person2","Individual_Self","Self","Top","num_3",733.537363,0.733537363,0
"674",2,24,23,1,34,"Stranger","Person2","Nonmatching","Person2","Individual_Self","Self","Bottom","z",833.533297,0.833533297,0
"675",2,24,23,1,35,"Person1","Person1","Matching","Person1","Individual_Self","Self","Bottom","z",933.501595,0.933501595,1
"676",2,24,23,1,36,"Stranger","StrangerTeam","Nonmatching","StrangerTeam","Group-Stranger","Stranger","Bottom","num_3",1100.179118,1.100179118,1
"677",2,24,23,1,37,"Stranger","Stranger","Matching","Stranger","Individual_Stranger","Stranger","Bottom","z",866.85751,0.86685751,1
"678",2,24,23,1,38,"Person2","Person1","Nonmatching","Person1","Individual_Self","Self","Bottom","num_3",816.899813,0.816899813,1
"679",2,24,23,1,39,"Person2","Person1","Nonmatching","Person1","Individual_Self","Self","Top","num_3",966.838442,0.966838442,1
"680",2,24,23,1,40,"Stranger","Stranger","Matching","Stranger","Individual_Stranger","Stranger","Bottom","z",816.858359,0.816858359,1
"681",2,24,23,1,41,"Person2","Person2","Matching","Person2","Individual_Self","Self","Bottom","z",916.851529,0.916851529,1
"682",2,24,23,1,42,"Person1","Stranger","Nonmatching","Stranger","Individual_Stranger","Stranger","Top","z",566.869315,0.566869315,0
"683",2,24,23,1,43,"Team","Team","Matching","Team","Group-Self","Self","Top","z",1516.872532,1.516872532,1
"684",2,24,23,1,44,"StrangerTeam","StrangerTeam","Matching","StrangerTeam","Group-Stranger","Stranger","Top","num_3",1066.893595,1.066893595,0
"685",2,24,23,1,45,"Person1","Person1","Matching","Person1","Individual_Self","Self","Top","num_3",1000.180816,1.000180816,0
"686",2,24,23,1,46,"Person1","Person1","Matching","Person1","Individual_Self","Self","Bottom","z",650.196233,0.650196233,1
"687",2,24,23,1,47,"Stranger","Team","Nonmatching","Team","Group-Self","Self","Bottom","z",916.858241,0.916858241,0
"688",2,24,23,1,48,"Stranger","StrangerTeam","Nonmatching","StrangerTeam","Group-Stranger","Stranger","Bottom","num_3",583.540699,0.583540699,1
"689",2,24,23,1,49,"Stranger","Person2","Nonmatching","Person2","Individual_Self","Self","Bottom","num_3",883.332682,0.883332682,1
"690",2,24,23,1,50,"StrangerTeam","Stranger","Nonmatching","Stranger","Individual_Stranger","Stranger","Top","num_3",966.856997,0.966856997,1
"691",2,24,23,1,51,"Stranger","Person1","Nonmatching","Person1","Individual_Self","Self","Bottom","num_3",666.870381,0.666870381,1
"692",2,24,23,1,52,"Person1","Person2","Nonmatching","Person2","Individual_Self","Self","Top","num_3",633.542614,0.633542614,1
"693",2,24,23,1,53,"StrangerTeam","Person1","Nonmatching","Person1","Individual_Self","Self","Top","num_3",600.206951,0.600206951,1
"694",2,24,23,1,54,"Team","Team","Matching","Team","Group-Self","Self","Top","z",716.864005,0.716864005,1
"695",2,24,23,1,55,"Team","StrangerTeam","Nonmatching","StrangerTeam","Group-Stranger","Stranger","Top","num_3",666.873539,0.666873539,1
"696",2,24,23,1,56,"Team","Team","Matching","Team","Group-Self","Self","Top","z",616.866492,0.616866492,1
"697",2,24,23,1,57,"Person1","Person1","Matching","Person1","Individual_Self","Self","Top","z",633.557221,0.633557221,1
"698",2,24,23,1,58,"StrangerTeam","Stranger","Nonmatching","Stranger","Individual_Stranger","Stranger","Bottom","num_3",800.19566,0.80019566,1
"699",2,24,23,1,59,"StrangerTeam","StrangerTeam","Matching","StrangerTeam","Group-Stranger","Stranger","Top","None",NA,NA,3
"700",2,24,23,1,60,"Person2","Person2","Matching","Person2","Individual_Self","Self","Top","num_3",833.561327,0.833561327,0
"701",2,24,23,1,61,"Team","Team","Matching","Team","Group-Self","Self","Bottom","z",1300.122031,1.300122031,1
"702",2,24,23,1,62,"Stranger","Stranger","Matching","Stranger","Individual_Stranger","Stranger","Bottom","z",883.552977,0.883552977,1
"703",2,24,23,1,63,"Person2","Person2","Matching","Person2","Individual_Self","Self","Bottom","num_3",900.187646,0.900187646,0
"704",2,24,23,1,64,"Team","Team","Matching","Team","Group-Self","Self","Bottom","z",516.892667,0.516892667,1
"705",2,24,23,1,65,"Person1","Person1","Matching","Person1","Individual_Self","Self","Bottom","z",550.214512,0.550214512,1
"706",2,24,23,1,66,"Team","Stranger","Nonmatching","Stranger","Individual_Stranger","Stranger","Bottom","num_3",850.212972,0.850212972,1
"707",2,24,23,1,67,"Stranger","Stranger","Matching","Stranger","Individual_Stranger","Stranger","Bottom","z",1183.511169,1.183511169,1
"708",2,24,23,1,68,"StrangerTeam","Person2","Nonmatching","Person2","Individual_Self","Self","Top","num_3",1283.481441,1.283481441,1
"709",2,24,23,1,69,"Team","Team","Matching","Team","Group-Self","Self","Bottom","z",466.892726,0.466892726,1
"710",2,24,23,1,70,"StrangerTeam","StrangerTeam","Matching","StrangerTeam","Group-Stranger","Stranger","Bottom","None",NA,NA,3
"711",2,24,23,1,71,"Person1","Team","Nonmatching","Team","Group-Self","Self","Top","z",883.539554,0.883539554,0
"712",2,24,23,1,72,"Team","Team","Matching","Team","Group-Self","Self","Bottom","z",716.86282,0.71686282,1
"713",2,24,23,1,73,"Team","Stranger","Nonmatching","Stranger","Individual_Stranger","Stranger","Top","num_3",583.544252,0.583544252,1
"714",2,24,23,1,74,"Stranger","Team","Nonmatching","Team","Group-Self","Self","Bottom","z",750.20401,0.75020401,0
"715",2,24,23,1,75,"Team","Team","Matching","Team","Group-Self","Self","Top","None",NA,NA,3
"716",2,24,23,1,76,"StrangerTeam","Person2","Nonmatching","Person2","Individual_Self","Self","Bottom","num_3",650.23058,0.65023058,1
"717",2,24,23,1,77,"Person2","Person2","Matching","Person2","Individual_Self","Self","Bottom","z",1166.841758,1.166841758,1
"718",2,24,23,1,78,"Person1","Stranger","Nonmatching","Stranger","Individual_Stranger","Stranger","Bottom","num_3",550.199509,0.550199509,1
"719",2,24,23,1,79,"StrangerTeam","Team","Nonmatching","Team","Group-Self","Self","Top","num_3",716.865979,0.716865979,1
"720",2,24,23,1,80,"Stranger","Stranger","Matching","Stranger","Individual_Stranger","Stranger","Bottom","num_3",566.866946,0.566866946,0
"721",2,24,23,2,1,"Person1","Person1","Matching","Person1","Individual_Self","Self","Top","z",633.519321,0.633519321,1
"722",2,24,23,2,2,"Person2","Person2","Matching","Person2","Individual_Self","Self","Bottom","z",700.198937,0.700198937,1
"723",2,24,23,2,3,"StrangerTeam","StrangerTeam","Matching","StrangerTeam","Group-Stranger","Stranger","Bottom","z",1333.504279,1.333504279,1
"724",2,24,23,2,4,"Person2","Stranger","Nonmatching","Stranger","Individual_Stranger","Stranger","Top","num_3",916.834158,0.916834158,1
"725",2,24,23,2,5,"Person1","Team","Nonmatching","Team","Group-Self","Self","Top","z",400.217058,0.400217058,0
"726",2,24,23,2,6,"Team","Stranger","Nonmatching","Stranger","Individual_Stranger","Stranger","Top","num_3",933.622797,0.933622797,1
"727",2,24,23,2,7,"StrangerTeam","StrangerTeam","Matching","StrangerTeam","Group-Stranger","Stranger","Top","z",883.539949,0.883539949,1
"728",2,24,23,2,8,"Stranger","StrangerTeam","Nonmatching","StrangerTeam","Group-Stranger","Stranger","Bottom","num_3",633.530375,0.633530375,1
"729",2,24,23,2,9,"StrangerTeam","Person2","Nonmatching","Person2","Individual_Self","Self","Top","z",816.861912,0.816861912,0
"730",2,24,23,2,10,"Team","StrangerTeam","Nonmatching","StrangerTeam","Group-Stranger","Stranger","Top","num_3",650.212024,0.650212024,1
"731",2,24,23,2,11,"Person2","Person2","Matching","Person2","Individual_Self","Self","Bottom","z",816.870598,0.816870598,1
"732",2,24,23,2,12,"StrangerTeam","StrangerTeam","Matching","StrangerTeam","Group-Stranger","Stranger","Bottom","num_3",666.869591,0.666869591,0
"733",2,24,23,2,13,"Person1","Person1","Matching","Person1","Individual_Self","Self","Top","z",783.540857,0.783540857,1
"734",2,24,23,2,14,"Person2","Person1","Nonmatching","Person1","Individual_Self","Self","Bottom","num_3",966.848312,0.966848312,1
"735",2,24,23,2,15,"Person2","Person2","Matching","Person2","Individual_Self","Self","Top","z",1135.146072,1.135146072,1
"736",2,24,23,2,16,"Stranger","Team","Nonmatching","Team","Group-Self","Self","Bottom","num_3",700.189067,0.700189067,1
"737",2,24,23,2,17,"Person2","Person2","Matching","Person2","Individual_Self","Self","Top","z",966.862524,0.966862524,1
"738",2,24,23,2,18,"Team","Person2","Nonmatching","Person2","Individual_Self","Self","Top","num_3",816.85678,0.81685678,1
"739",2,24,23,2,19,"Team","Team","Matching","Team","Group-Self","Self","Top","z",666.856168,0.666856168,1
"740",2,24,23,2,20,"Stranger","Person2","Nonmatching","Person2","Individual_Self","Self","Bottom","num_3",1066.842666,1.066842666,1
"741",2,24,23,2,21,"StrangerTeam","Team","Nonmatching","Team","Group-Self","Self","Top","num_3",883.528105,0.883528105,1
"742",2,24,23,2,22,"StrangerTeam","StrangerTeam","Matching","StrangerTeam","Group-Stranger","Stranger","Top","z",1166.847285,1.166847285,1
"743",2,24,23,2,23,"Person2","StrangerTeam","Nonmatching","StrangerTeam","Group-Stranger","Stranger","Bottom","num_3",833.528559,0.833528559,1
"744",2,24,23,2,24,"Stranger","Stranger","Matching","Stranger","Individual_Stranger","Stranger","Bottom","z",750.189008,0.750189008,1
"745",2,24,23,2,25,"Team","Team","Matching","Team","Group-Self","Self","Bottom","z",566.871683,0.566871683,1
"746",2,24,23,2,26,"StrangerTeam","Team","Nonmatching","Team","Group-Self","Self","Bottom","num_3",683.533869,0.683533869,1
"747",2,24,23,2,27,"Person1","StrangerTeam","Nonmatching","StrangerTeam","Group-Stranger","Stranger","Top","num_3",950.285101,0.950285101,1
"748",2,24,23,2,28,"Stranger","Team","Nonmatching","Team","Group-Self","Self","Bottom","num_3",633.547746,0.633547746,1
"749",2,24,23,2,29,"Stranger","Stranger","Matching","Stranger","Individual_Stranger","Stranger","Bottom","z",633.537876,0.633537876,1
"750",2,24,23,2,30,"Stranger","Stranger","Matching","Stranger","Individual_Stranger","Stranger","Bottom","z",600.179711,0.600179711,1
"751",2,24,23,2,31,"Team","Team","Matching","Team","Group-Self","Self","Top","z",633.532744,0.633532744,1
"752",2,24,23,2,32,"StrangerTeam","Stranger","Nonmatching","Stranger","Individual_Stranger","Stranger","Top","num_3",716.884929,0.716884929,1
"753",2,24,23,2,33,"Stranger","Stranger","Matching","Stranger","Individual_Stranger","Stranger","Bottom","z",733.558287,0.733558287,1
"754",2,24,23,2,34,"Team","Team","Matching","Team","Group-Self","Self","Bottom","num_3",550.355848,0.550355848,0
"755",2,24,23,2,35,"Team","Team","Matching","Team","Group-Self","Self","Top","z",883.513893,0.883513893,1
"756",2,24,23,2,36,"Stranger","Stranger","Matching","Stranger","Individual_Stranger","Stranger","Bottom","z",900.190015,0.900190015,1
"757",2,24,23,2,37,"StrangerTeam","Person1","Nonmatching","Person1","Individual_Self","Self","Top","num_3",733.534994,0.733534994,1
"758",2,24,23,2,38,"Person2","Person2","Matching","Person2","Individual_Self","Self","Bottom","z",816.88639,0.81688639,1
"759",2,24,23,2,39,"Person1","Stranger","Nonmatching","Stranger","Individual_Stranger","Stranger","Bottom","num_3",750.193351,0.750193351,1
"760",2,24,23,2,40,"Stranger","Stranger","Matching","Stranger","Individual_Stranger","Stranger","Bottom","z",683.529526,0.683529526,1
"761",2,24,23,2,41,"StrangerTeam","StrangerTeam","Matching","StrangerTeam","Group-Stranger","Stranger","Top","z",1400.390768,1.400390768,1
"762",2,24,23,2,42,"Person2","Stranger","Nonmatching","Stranger","Individual_Stranger","Stranger","Bottom","num_3",735.191947,0.735191947,1
"763",2,24,23,2,43,"Person1","Stranger","Nonmatching","Stranger","Individual_Stranger","Stranger","Top","num_3",650.193469,0.650193469,1
"764",2,24,23,2,44,"Person1","Person1","Matching","Person1","Individual_Self","Self","Bottom","num_3",566.874842,0.566874842,0
"765",2,24,23,2,45,"Person2","Team","Nonmatching","Team","Group-Self","Self","Top","num_3",866.876066,0.866876066,1
"766",2,24,23,2,46,"Person1","Person1","Matching","Person1","Individual_Self","Self","Top","z",800.216979,0.800216979,1
"767",2,24,23,2,47,"Person2","Person2","Matching","Person2","Individual_Self","Self","Top","z",716.860057,0.716860057,1
"768",2,24,23,2,48,"StrangerTeam","Person1","Nonmatching","Person1","Individual_Self","Self","Bottom","num_3",633.552879,0.633552879,1
"769",2,24,23,2,49,"Stranger","StrangerTeam","Nonmatching","StrangerTeam","Group-Stranger","Stranger","Bottom","num_3",866.8583,0.8668583,1
"770",2,24,23,2,50,"Person1","StrangerTeam","Nonmatching","StrangerTeam","Group-Stranger","Stranger","Bottom","num_3",750.202826,0.750202826,1
"771",2,24,23,2,51,"Person2","StrangerTeam","Nonmatching","StrangerTeam","Group-Stranger","Stranger","Top","z",600.207741,0.600207741,0
"772",2,24,23,2,52,"StrangerTeam","Person2","Nonmatching","Person2","Individual_Self","Self","Bottom","num_3",566.872868,0.566872868,1
"773",2,24,23,2,53,"Team","Person1","Nonmatching","Person1","Individual_Self","Self","Bottom","num_3",650.216762,0.650216762,1
"774",2,24,23,2,54,"Person1","Person1","Matching","Person1","Individual_Self","Self","Bottom","z",916.866137,0.916866137,1
"775",2,24,23,2,55,"Stranger","Person1","Nonmatching","Person1","Individual_Self","Self","Bottom","num_3",583.55807,0.58355807,1
"776",2,24,23,2,56,"Person1","Team","Nonmatching","Team","Group-Self","Self","Bottom","num_3",616.875177,0.616875177,1
"777",2,24,23,2,57,"Team","Stranger","Nonmatching","Stranger","Individual_Stranger","Stranger","Bottom","num_3",566.877211,0.566877211,1
"778",2,24,23,2,58,"Stranger","Person1","Nonmatching","Person1","Individual_Self","Self","Bottom","z",633.533928,0.633533928,0
"779",2,24,23,2,59,"Team","Person1","Nonmatching","Person1","Individual_Self","Self","Top","num_3",783.528618,0.783528618,1
"780",2,24,23,2,60,"Person2","Person2","Matching","Person2","Individual_Self","Self","Top","z",1000.185948,1.000185948,1
"781",2,24,23,2,61,"Person1","Person1","Matching","Person1","Individual_Self","Self","Bottom","num_3",533.571947,0.533571947,0
