"","Subject","Block","Trial","P1Age","P2Age","Matching","Origin_Identity","Shape","Label","ShapeLoc","Response","RT_sec","ACC","RT_ms","English_Identity","Standarlized_Identity"
"1",1,1,1,24,21,"Nonmatching","Team","Stranger","Team","Bottom","num_3",1.066893595,1,1066.893595,"Team","Group-Self"
"2",1,1,2,24,21,"Nonmatching","StrangerTeam","Person2","StrangerTeam","Top","z",1.016898391,0,1016.898391,"StrangerTeam","Group-Stranger"
"3",1,1,3,24,21,"Matching","StrangerTeam","StrangerTeam","StrangerTeam","Top","z",0.900274106,1,900.274106,"StrangerTeam","Group-Stranger"
"4",1,1,4,24,21,"Matching","Stranger","Stranger","Stranger","Bottom","num_3",0.666939075,0,666.939075,"Stranger","Stranger"
"5",1,1,5,24,21,"Matching","Stranger","Stranger","Stranger","Bottom","None",NA,3,NA,"Stranger","Stranger"
"6",1,1,6,24,21,"Nonmatching","Person1","StrangerTeam","Person1","Bottom","z",0.617284579,0,617.284579,"Person1","Self"
"7",1,1,7,24,21,"Nonmatching","Person2","Stranger","Person2","Bottom","num_3",0.766909347,1,766.909347,"Person2","Self"
"8",1,1,8,24,21,"Matching","Person2","Person2","Person2","Top","num_3",0.919599694,0,919.599694,"Person2","Self"
"9",1,1,9,24,21,"Nonmatching","StrangerTeam","Person1","StrangerTeam","Top","z",0.733763186,0,733.763186,"StrangerTeam","Group-Stranger"
"10",1,1,10,24,21,"Matching","Team","Team","Team","Bottom","num_3",0.900271737,0,900.271737,"Team","Group-Self"
"11",1,1,11,24,21,"Nonmatching","Stranger","Person1","Stranger","Top","None",NA,3,NA,"Stranger","Stranger"
"12",1,1,12,24,21,"Matching","Person1","Person1","Person1","Bottom","z",0.766876184,1,766.876184,"Person1","Self"
"13",1,1,13,24,21,"Matching","Person2","Person2","Person2","Bottom","None",NA,3,NA,"Person2","Self"
"14",1,1,14,24,21,"Matching","Team","Team","Team","Top","z",0.850250083,1,850.250083,"Team","Group-Self"
"15",1,1,15,24,21,"Nonmatching","Person2","Team","Person2","Top","num_3",0.70021236,1,700.21236,"Person2","Self"
"16",1,1,16,24,21,"Nonmatching","Person1","Person2","Person1","Top","num_3",0.883554951,1,883.554951,"Person1","Self"
"17",1,1,17,24,21,"Nonmatching","StrangerTeam","Stranger","StrangerTeam","Bottom","num_3",0.68360059,1,683.60059,"StrangerTeam","Group-Stranger"
"18",1,1,18,24,21,"Nonmatching","StrangerTeam","Person2","StrangerTeam","Bottom","num_3",0.567110534,1,567.110534,"StrangerTeam","Group-Stranger"
"19",1,1,19,24,21,"Matching","Team","Team","Team","Top","z",0.816905734,1,816.905734,"Team","Group-Self"
"20",1,1,20,24,21,"Nonmatching","Person1","Stranger","Person1","Bottom","num_3",0.683731661,1,683.731661,"Person1","Self"
"21",1,1,21,24,21,"Matching","StrangerTeam","StrangerTeam","StrangerTeam","Top","num_3",0.766955933,0,766.955933,"StrangerTeam","Group-Stranger"
"22",1,1,22,24,21,"Matching","Person1","Person1","Person1","Bottom","z",0.566651388,1,566.651388,"Person1","Self"
"23",1,1,23,24,21,"Matching","StrangerTeam","StrangerTeam","StrangerTeam","Bottom","num_3",0.683763245,0,683.763245,"StrangerTeam","Group-Stranger"
"24",1,1,24,24,21,"Matching","StrangerTeam","StrangerTeam","StrangerTeam","Bottom","z",0.624425229,1,624.425229,"StrangerTeam","Group-Stranger"
"25",1,1,25,24,21,"Matching","Team","Team","Team","Bottom","z",0.633697768,1,633.697768,"Team","Group-Self"
"26",1,1,26,24,21,"Matching","Person1","Person1","Person1","Top","z",0.683589535,1,683.589535,"Person1","Self"
"27",1,1,27,24,21,"Matching","Person2","Person2","Person2","Top","num_3",0.583615315,0,583.615315,"Person2","Self"
"28",1,1,28,24,21,"Nonmatching","Stranger","Team","Stranger","Top","num_3",0.800312914,1,800.312914,"Stranger","Stranger"
"29",1,1,29,24,21,"Matching","StrangerTeam","StrangerTeam","StrangerTeam","Top","z",0.90028595,1,900.28595,"StrangerTeam","Group-Stranger"
"30",1,1,30,24,21,"Matching","Team","Team","Team","Bottom","z",0.817118134,1,817.118134,"Team","Group-Self"
"31",1,1,31,24,21,"Matching","Person2","Person2","Person2","Bottom","z",1.133597688,1,1133.597688,"Person2","Self"
"32",1,1,32,24,21,"Matching","Team","Team","Team","Bottom","z",0.733696465,1,733.696465,"Team","Group-Self"
"33",1,1,33,24,21,"Nonmatching","Person1","Team","Person1","Bottom","num_3",0.683814568,1,683.814568,"Person1","Self"
"34",1,1,34,24,21,"Nonmatching","Person2","Person1","Person2","Bottom","num_3",0.800229613,1,800.229613,"Person2","Self"
"35",1,1,35,24,21,"Matching","Person1","Person1","Person1","Bottom","z",0.666922493,1,666.922493,"Person1","Self"
"36",1,1,36,24,21,"Nonmatching","Stranger","Person2","Stranger","Top","num_3",0.650384155,1,650.384155,"Stranger","Stranger"
"37",1,1,37,24,21,"Matching","Person2","Person2","Person2","Top","z",0.917086037,1,917.086037,"Person2","Self"
"38",1,1,38,24,21,"Nonmatching","StrangerTeam","Person1","StrangerTeam","Bottom","z",0.533635904,0,533.635904,"StrangerTeam","Group-Stranger"
"39",1,1,39,24,21,"Matching","Stranger","Stranger","Stranger","Bottom","z",0.650246372,1,650.246372,"Stranger","Stranger"
"40",1,1,40,24,21,"Matching","Stranger","Stranger","Stranger","Bottom","z",0.583610183,1,583.610183,"Stranger","Stranger"
"41",1,1,41,24,21,"Nonmatching","Person2","Team","Person2","Bottom","num_3",0.616886232,1,616.886232,"Person2","Self"
"42",1,1,42,24,21,"Nonmatching","Stranger","StrangerTeam","Stranger","Bottom","num_3",0.783701933,1,783.701933,"Stranger","Stranger"
"43",1,1,43,24,21,"Nonmatching","Person2","StrangerTeam","Person2","Bottom","num_3",0.483562137,1,483.562137,"Person2","Self"
"44",1,1,44,24,21,"Matching","Stranger","Stranger","Stranger","Bottom","num_3",0.483716896,0,483.716896,"Stranger","Stranger"
"45",1,1,45,24,21,"Nonmatching","Stranger","StrangerTeam","Stranger","Top","z",0.633594727,0,633.594727,"Stranger","Stranger"
"46",1,1,46,24,21,"Nonmatching","StrangerTeam","Team","StrangerTeam","Bottom","num_3",0.517005973,1,517.005973,"StrangerTeam","Group-Stranger"
"47",1,1,47,24,21,"Nonmatching","Person1","Stranger","Person1","Bottom","num_3",0.683790486,1,683.790486,"Person1","Self"
"48",1,1,48,24,21,"Matching","Person2","Person2","Person2","Top","num_3",0.550302551,0,550.302551,"Person2","Self"
"49",1,1,49,24,21,"Nonmatching","Person1","Team","Person1","Top","num_3",0.66712068,1,667.12068,"Person1","Self"
"50",1,1,50,24,21,"Nonmatching","Stranger","Person2","Stranger","Bottom","num_3",0.650265322,1,650.265322,"Stranger","Stranger"
"51",1,1,51,24,21,"Nonmatching","Team","Stranger","Team","Bottom","num_3",0.766909742,1,766.909742,"Team","Group-Self"
"52",1,1,52,24,21,"Matching","Person2","Person2","Person2","Bottom","z",0.633783833,1,633.783833,"Person2","Self"
"53",1,1,53,24,21,"Matching","StrangerTeam","StrangerTeam","StrangerTeam","Bottom","z",0.850257189,1,850.257189,"StrangerTeam","Group-Stranger"
"54",1,1,54,24,21,"Nonmatching","Stranger","Person1","Stranger","Bottom","num_3",0.650219526,1,650.219526,"Stranger","Stranger"
"55",1,1,55,24,21,"Matching","Person1","Person1","Person1","Top","z",0.600240509,1,600.240509,"Person1","Self"
"56",1,1,56,24,21,"Nonmatching","Stranger","Team","Stranger","Bottom","num_3",0.550288338,1,550.288338,"Stranger","Stranger"
"57",1,1,57,24,21,"Nonmatching","Person1","Person2","Person1","Bottom","num_3",0.83356488,1,833.56488,"Person1","Self"
"58",1,1,58,24,21,"Matching","Person1","Person1","Person1","Bottom","z",0.500258788,1,500.258788,"Person1","Self"
"59",1,1,59,24,21,"Matching","StrangerTeam","StrangerTeam","StrangerTeam","Bottom","num_3",0.650251109,0,650.251109,"StrangerTeam","Group-Stranger"
"60",1,1,60,24,21,"Nonmatching","Person2","StrangerTeam","Person2","Top","z",0.916921803,0,916.921803,"Person2","Self"
"61",1,1,61,24,21,"Nonmatching","Team","Person1","Team","Top","num_3",0.733569736,1,733.569736,"Team","Group-Self"
"62",1,1,62,24,21,"Nonmatching","Person2","Person1","Person2","Top","num_3",0.867340344,1,867.340344,"Person2","Self"
"63",1,1,63,24,21,"Matching","Person1","Person1","Person1","Top","z",0.76685526,1,766.85526,"Person1","Self"
"64",1,1,64,24,21,"Nonmatching","StrangerTeam","Team","StrangerTeam","Top","num_3",0.583556491,1,583.556491,"StrangerTeam","Group-Stranger"
"65",1,1,65,24,21,"Nonmatching","Team","Person2","Team","Top","num_3",1.067062961,1,1067.062961,"Team","Group-Self"
"66",1,1,66,24,21,"Nonmatching","Person1","StrangerTeam","Person1","Top","num_3",0.783576783,1,783.576783,"Person1","Self"
"67",1,1,67,24,21,"Matching","Stranger","Stranger","Stranger","Bottom","num_3",0.549893149,0,549.893149,"Stranger","Stranger"
"68",1,1,68,24,21,"Nonmatching","Team","Person2","Team","Bottom","num_3",0.774079211,1,774.079211,"Team","Group-Self"
"69",1,1,69,24,21,"Matching","Stranger","Stranger","Stranger","Bottom","z",0.950232198,1,950.232198,"Stranger","Stranger"
"70",1,1,70,24,21,"Nonmatching","Team","StrangerTeam","Team","Top","num_3",0.716944148,1,716.944148,"Team","Group-Self"
"71",1,1,71,24,21,"Matching","Team","Team","Team","Top","num_3",0.60039132,0,600.39132,"Team","Group-Self"
"72",1,1,72,24,21,"Matching","Stranger","Stranger","Stranger","Bottom","num_3",0.700207622,0,700.207622,"Stranger","Stranger"
"73",1,1,73,24,21,"Nonmatching","Team","Person1","Team","Bottom","num_3",0.733716995,1,733.716995,"Team","Group-Self"
"74",1,1,74,24,21,"Nonmatching","Team","StrangerTeam","Team","Bottom","num_3",0.733577632,1,733.577632,"Team","Group-Self"
"75",1,1,75,24,21,"Matching","Person2","Person2","Person2","Bottom","num_3",0.550254781,0,550.254781,"Person2","Self"
"76",1,1,76,24,21,"Nonmatching","Person2","Stranger","Person2","Bottom","num_3",0.750241121,1,750.241121,"Person2","Self"
"77",1,1,77,24,21,"Matching","Person1","Person1","Person1","Top","z",0.617117186,1,617.117186,"Person1","Self"
"78",1,1,78,24,21,"Matching","Team","Team","Team","Top","z",0.752543957,1,752.543957,"Team","Group-Self"
"79",1,1,79,24,21,"Nonmatching","StrangerTeam","Stranger","StrangerTeam","Bottom","num_3",0.96690911,1,966.90911,"StrangerTeam","Group-Stranger"
"80",1,1,80,24,21,"Matching","StrangerTeam","StrangerTeam","StrangerTeam","Top","z",0.833624494,1,833.624494,"StrangerTeam","Group-Stranger"
"81",1,2,1,24,21,"Nonmatching","Person1","StrangerTeam","Person1","Top","num_3",1.133545575,1,1133.545575,"Person1","Self"
"82",1,2,2,24,21,"Matching","Team","Team","Team","Bottom","z",0.767135564,1,767.135564,"Team","Group-Self"
"83",1,2,3,24,21,"Nonmatching","Stranger","Team","Stranger","Top","num_3",1.116934594,1,1116.934594,"Stranger","Stranger"
"84",1,2,4,24,21,"Matching","Person1","Person1","Person1","Bottom","z",0.533750394,1,533.750394,"Person1","Self"
"85",1,2,5,24,21,"Matching","Team","Team","Team","Bottom","num_3",0.700392386,0,700.392386,"Team","Group-Self"
"86",1,2,6,24,21,"Matching","Person2","Person2","Person2","Bottom","z",0.766945668,1,766.945668,"Person2","Self"
"87",1,2,7,24,21,"Nonmatching","Stranger","Person1","Stranger","Top","num_3",0.76718215,1,767.18215,"Stranger","Stranger"
"88",1,2,8,24,21,"Nonmatching","StrangerTeam","Person2","StrangerTeam","Top","z",0.966868051,0,966.868051,"StrangerTeam","Group-Stranger"
"89",1,2,9,24,21,"Nonmatching","Person1","StrangerTeam","Person1","Bottom","num_3",0.933632272,1,933.632272,"Person1","Self"
"90",1,2,10,24,21,"Nonmatching","Person2","Stranger","Person2","Bottom","num_3",0.800250142,1,800.250142,"Person2","Self"
"91",1,2,11,24,21,"Nonmatching","Person1","Person2","Person1","Top","num_3",0.766860787,1,766.860787,"Person1","Self"
"92",1,2,12,24,21,"Nonmatching","Stranger","Person1","Stranger","Bottom","num_3",0.583571888,1,583.571888,"Stranger","Stranger"
"93",1,2,13,24,21,"Matching","StrangerTeam","StrangerTeam","StrangerTeam","Top","z",0.73355355,1,733.55355,"StrangerTeam","Group-Stranger"
"94",1,2,14,24,21,"Matching","Stranger","Stranger","Stranger","Bottom","num_3",0.566958143,0,566.958143,"Stranger","Stranger"
"95",1,2,15,24,21,"Matching","StrangerTeam","StrangerTeam","StrangerTeam","Bottom","z",0.700275132,1,700.275132,"StrangerTeam","Group-Stranger"
"96",1,2,16,24,21,"Matching","Stranger","Stranger","Stranger","Bottom","z",0.98358997,1,983.58997,"Stranger","Stranger"
"97",1,2,17,24,21,"Matching","Person2","Person2","Person2","Top","z",0.666943812,1,666.943812,"Person2","Self"
"98",1,2,18,24,21,"Matching","StrangerTeam","StrangerTeam","StrangerTeam","Bottom","z",0.650253873,1,650.253873,"StrangerTeam","Group-Stranger"
"99",1,2,19,24,21,"Nonmatching","Stranger","Team","Stranger","Bottom","num_3",0.433865003,1,433.865003,"Stranger","Stranger"
"100",1,2,20,24,21,"Matching","Team","Team","Team","Bottom","z",0.616955716,1,616.955716,"Team","Group-Self"
"101",1,2,21,24,21,"Matching","Team","Team","Team","Top","z",0.633600254,1,633.600254,"Team","Group-Self"
"102",1,2,22,24,21,"Nonmatching","StrangerTeam","Person1","StrangerTeam","Bottom","num_3",0.800341339,1,800.341339,"StrangerTeam","Group-Stranger"
"103",1,2,23,24,21,"Matching","Person1","Person1","Person1","Bottom","z",0.516998867,1,516.998867,"Person1","Self"
"104",1,2,24,24,21,"Matching","Team","Team","Team","Top","z",0.833600017,1,833.600017,"Team","Group-Self"
"105",1,2,25,24,21,"Matching","StrangerTeam","StrangerTeam","StrangerTeam","Top","z",0.766916848,1,766.916848,"StrangerTeam","Group-Stranger"
"106",1,2,26,24,21,"Nonmatching","StrangerTeam","Team","StrangerTeam","Top","num_3",0.533601952,1,533.601952,"StrangerTeam","Group-Stranger"
"107",1,2,27,24,21,"Matching","Stranger","Stranger","Stranger","Bottom","z",0.63350195,1,633.50195,"Stranger","Stranger"
"108",1,2,28,24,21,"Nonmatching","Person2","Team","Person2","Bottom","num_3",0.617146007,1,617.146007,"Person2","Self"
"109",1,2,29,24,21,"Nonmatching","Person1","Person2","Person1","Bottom","num_3",0.833724772,1,833.724772,"Person1","Self"
"110",1,2,30,24,21,"Matching","Stranger","Stranger","Stranger","Bottom","z",0.716896773,1,716.896773,"Stranger","Stranger"
"111",1,2,31,24,21,"Nonmatching","Team","Stranger","Team","Bottom","num_3",0.850241397,1,850.241397,"Team","Group-Self"
"112",1,2,32,24,21,"Matching","Stranger","Stranger","Stranger","Bottom","num_3",0.583607814,0,583.607814,"Stranger","Stranger"
"113",1,2,33,24,21,"Matching","Person1","Person1","Person1","Top","z",0.566908399,1,566.908399,"Person1","Self"
"114",1,2,34,24,21,"Nonmatching","Person1","Stranger","Person1","Bottom","num_3",0.583756652,1,583.756652,"Person1","Self"
"115",1,2,35,24,21,"Nonmatching","Person1","Stranger","Person1","Bottom","num_3",0.683598221,1,683.598221,"Person1","Self"
"116",1,2,36,24,21,"Matching","Person2","Person2","Person2","Bottom","z",0.667002242,1,667.002242,"Person2","Self"
"117",1,2,37,24,21,"Nonmatching","Team","StrangerTeam","Team","Top","z",0.918557831,0,918.557831,"Team","Group-Self"
"118",1,2,38,24,21,"Matching","StrangerTeam","StrangerTeam","StrangerTeam","Bottom","None",NA,3,NA,"StrangerTeam","Group-Stranger"
"119",1,2,39,24,21,"Nonmatching","StrangerTeam","Person2","StrangerTeam","Bottom","z",0.750237568,0,750.237568,"StrangerTeam","Group-Stranger"
"120",1,2,40,24,21,"Nonmatching","Person1","Team","Person1","Bottom","num_3",0.583815081,1,583.815081,"Person1","Self"
"121",1,2,41,24,21,"Nonmatching","Person2","Team","Person2","Top","num_3",0.733604083,1,733.604083,"Person2","Self"
"122",1,2,42,24,21,"Matching","Person1","Person1","Person1","Top","z",0.60027604,1,600.27604,"Person1","Self"
"123",1,2,43,24,21,"Nonmatching","Team","Stranger","Team","Bottom","num_3",0.617050071,1,617.050071,"Team","Group-Self"
"124",1,2,44,24,21,"Matching","StrangerTeam","StrangerTeam","StrangerTeam","Top","z",0.66708278,1,667.08278,"StrangerTeam","Group-Stranger"
"125",1,2,45,24,21,"Nonmatching","Stranger","StrangerTeam","Stranger","Bottom","num_3",0.61689847,1,616.89847,"Stranger","Stranger"
"126",1,2,46,24,21,"Matching","Person2","Person2","Person2","Top","num_3",0.766972909,0,766.972909,"Person2","Self"
"127",1,2,47,24,21,"Matching","Person2","Person2","Person2","Top","z",0.583744018,1,583.744018,"Person2","Self"
"128",1,2,48,24,21,"Matching","Person2","Person2","Person2","Bottom","z",0.716901905,1,716.901905,"Person2","Self"
"129",1,2,49,24,21,"Nonmatching","Person2","Person1","Person2","Bottom","z",0.616913473,0,616.913473,"Person2","Self"
"130",1,2,50,24,21,"Matching","Person2","Person2","Person2","Top","num_3",0.616882284,0,616.882284,"Person2","Self"
"131",1,2,51,24,21,"Nonmatching","StrangerTeam","Person1","StrangerTeam","Top","num_3",0.700297636,1,700.297636,"StrangerTeam","Group-Stranger"
"132",1,2,52,24,21,"Matching","Team","Team","Team","Top","num_3",1.067024271,0,1067.024271,"Team","Group-Self"
"133",1,2,53,24,21,"Nonmatching","Person2","StrangerTeam","Person2","Top","num_3",0.900357013,1,900.357013,"Person2","Self"
"134",1,2,54,24,21,"Nonmatching","Team","Person2","Team","Bottom","num_3",0.583614131,1,583.614131,"Team","Group-Self"
"135",1,2,55,24,21,"Nonmatching","Stranger","Person2","Stranger","Bottom","num_3",0.600287489,1,600.287489,"Stranger","Stranger"
"136",1,2,56,24,21,"Nonmatching","Team","Person1","Team","Top","num_3",0.767058184,1,767.058184,"Team","Group-Self"
"137",1,2,57,24,21,"Matching","Person2","Person2","Person2","Bottom","z",0.866910413,1,866.910413,"Person2","Self"
"138",1,2,58,24,21,"Nonmatching","Team","StrangerTeam","Team","Bottom","num_3",0.950259834,1,950.259834,"Team","Group-Self"
"139",1,2,59,24,21,"Matching","Stranger","Stranger","Stranger","Bottom","z",0.700220651,1,700.220651,"Stranger","Stranger"
"140",1,2,60,24,21,"Matching","Person1","Person1","Person1","Bottom","z",0.550194772,1,550.194772,"Person1","Self"
"141",1,2,61,24,21,"Matching","Stranger","Stranger","Stranger","Bottom","z",0.633679608,1,633.679608,"Stranger","Stranger"
"142",1,2,62,24,21,"Nonmatching","Team","Person2","Team","Top","num_3",1.000238851,1,1000.238851,"Team","Group-Self"
"143",1,2,63,24,21,"Nonmatching","StrangerTeam","Stranger","StrangerTeam","Bottom","num_3",0.833820707,1,833.820707,"StrangerTeam","Group-Stranger"
"144",1,2,64,24,21,"Matching","Stranger","Stranger","Stranger","Bottom","z",0.600361711,1,600.361711,"Stranger","Stranger"
"145",1,2,65,24,21,"Nonmatching","Person2","Stranger","Person2","Bottom","num_3",0.700219466,1,700.219466,"Person2","Self"
"146",1,2,66,24,21,"Nonmatching","Team","Person1","Team","Bottom","num_3",1.050245898,1,1050.245898,"Team","Group-Self"
"147",1,2,67,24,21,"Matching","Person1","Person1","Person1","Top","z",0.666965131,1,666.965131,"Person1","Self"
"148",1,2,68,24,21,"Nonmatching","Person1","Team","Person1","Top","num_3",0.550269783,1,550.269783,"Person1","Self"
"149",1,2,69,24,21,"Matching","Team","Team","Team","Bottom","num_3",0.61692729,0,616.92729,"Team","Group-Self"
"150",1,2,70,24,21,"Nonmatching","Person2","StrangerTeam","Person2","Bottom","num_3",1.083547608,1,1083.547608,"Person2","Self"
"151",1,2,71,24,21,"Matching","StrangerTeam","StrangerTeam","StrangerTeam","Top","z",0.733722127,1,733.722127,"StrangerTeam","Group-Stranger"
"152",1,2,72,24,21,"Nonmatching","Stranger","Person2","Stranger","Top","num_3",1.35026015,1,1350.26015,"Stranger","Stranger"
"153",1,2,73,24,21,"Nonmatching","Person2","Person1","Person2","Top","num_3",1.066905044,1,1066.905044,"Person2","Self"
"154",1,2,74,24,21,"Nonmatching","StrangerTeam","Stranger","StrangerTeam","Bottom","num_3",0.783538883,1,783.538883,"StrangerTeam","Group-Stranger"
"155",1,2,75,24,21,"Matching","Person1","Person1","Person1","Bottom","z",0.467036036,1,467.036036,"Person1","Self"
"156",1,2,76,24,21,"Matching","Team","Team","Team","Top","z",0.566941957,1,566.941957,"Team","Group-Self"
"157",1,2,77,24,21,"Nonmatching","StrangerTeam","Team","StrangerTeam","Bottom","num_3",0.567085267,1,567.085267,"StrangerTeam","Group-Stranger"
"158",1,2,78,24,21,"Matching","Person1","Person1","Person1","Top","z",0.516942411,1,516.942411,"Person1","Self"
"159",1,2,79,24,21,"Matching","StrangerTeam","StrangerTeam","StrangerTeam","Bottom","num_3",0.583541094,0,583.541094,"StrangerTeam","Group-Stranger"
"160",1,2,80,24,21,"Nonmatching","Stranger","StrangerTeam","Stranger","Top","num_3",0.68372416,1,683.72416,"Stranger","Stranger"
"161",1,3,1,24,21,"Nonmatching","Person1","Stranger","Person1","Bottom","num_3",0.616932818,1,616.932818,"Person1","Self"
"162",1,3,2,24,21,"Matching","Person2","Person2","Person2","Top","z",0.733632114,1,733.632114,"Person2","Self"
"163",1,3,3,24,21,"Nonmatching","Person2","StrangerTeam","Person2","Bottom","num_3",0.650223473,1,650.223473,"Person2","Self"
"164",1,3,4,24,21,"Matching","Team","Team","Team","Bottom","z",0.666900385,1,666.900385,"Team","Group-Self"
"165",1,3,5,24,21,"Nonmatching","StrangerTeam","Person2","StrangerTeam","Bottom","num_3",0.66699632,1,666.99632,"StrangerTeam","Group-Stranger"
"166",1,3,6,24,21,"Matching","Stranger","Stranger","Stranger","Bottom","num_3",0.583581758,0,583.581758,"Stranger","Stranger"
"167",1,3,7,24,21,"Matching","Person2","Person2","Person2","Top","z",0.517611193,1,517.611193,"Person2","Self"
"168",1,3,8,24,21,"Matching","Person1","Person1","Person1","Bottom","z",0.650222684,1,650.222684,"Person1","Self"
"169",1,3,9,24,21,"Nonmatching","StrangerTeam","Person1","StrangerTeam","Top","num_3",0.718360276,1,718.360276,"StrangerTeam","Group-Stranger"
"170",1,3,10,24,21,"Nonmatching","Stranger","Person2","Stranger","Top","num_3",0.867011875,1,867.011875,"Stranger","Stranger"
"171",1,3,11,24,21,"Matching","Person1","Person1","Person1","Bottom","z",0.533590502,1,533.590502,"Person1","Self"
"172",1,3,12,24,21,"Nonmatching","Person1","Team","Person1","Bottom","num_3",0.766865919,1,766.865919,"Person1","Self"
"173",1,3,13,24,21,"Matching","Person1","Person1","Person1","Top","z",0.550237804,1,550.237804,"Person1","Self"
"174",1,3,14,24,21,"Matching","Stranger","Stranger","Stranger","Bottom","z",0.583601498,1,583.601498,"Stranger","Stranger"
"175",1,3,15,24,21,"Matching","StrangerTeam","StrangerTeam","StrangerTeam","Bottom","z",0.550261097,1,550.261097,"StrangerTeam","Group-Stranger"
"176",1,3,16,24,21,"Matching","Person2","Person2","Person2","Bottom","z",0.566891818,1,566.891818,"Person2","Self"
"177",1,3,17,24,21,"Matching","Team","Team","Team","Top","z",0.60035263,1,600.35263,"Team","Group-Self"
"178",1,3,18,24,21,"Matching","Person2","Person2","Person2","Top","z",0.667059487,1,667.059487,"Person2","Self"
"179",1,3,19,24,21,"Nonmatching","Team","Person2","Team","Bottom","num_3",0.766927507,1,766.927507,"Team","Group-Self"
"180",1,3,20,24,21,"Nonmatching","Team","StrangerTeam","Team","Bottom","num_3",0.666911044,1,666.911044,"Team","Group-Self"
"181",1,3,21,24,21,"Matching","Stranger","Stranger","Stranger","Bottom","z",0.483823885,1,483.823885,"Stranger","Stranger"
"182",1,3,22,24,21,"Matching","Person1","Person1","Person1","Bottom","z",0.500382753,1,500.382753,"Person1","Self"
"183",1,3,23,24,21,"Matching","Stranger","Stranger","Stranger","Bottom","num_3",0.66708357,0,667.08357,"Stranger","Stranger"
"184",1,3,24,24,21,"Matching","Team","Team","Team","Top","z",0.50036933,1,500.36933,"Team","Group-Self"
"185",1,3,25,24,21,"Nonmatching","Stranger","Team","Stranger","Top","num_3",0.633619204,1,633.619204,"Stranger","Stranger"
"186",1,3,26,24,21,"Matching","StrangerTeam","StrangerTeam","StrangerTeam","Top","z",0.567005124,1,567.005124,"StrangerTeam","Group-Stranger"
"187",1,3,27,24,21,"Matching","Team","Team","Team","Bottom","num_3",0.517045847,0,517.045847,"Team","Group-Self"
"188",1,3,28,24,21,"Nonmatching","Team","Person1","Team","Top","num_3",1.316934357,1,1316.934357,"Team","Group-Self"
"189",1,3,29,24,21,"Nonmatching","Person1","Stranger","Person1","Bottom","z",0.516930567,0,516.930567,"Person1","Self"
"190",1,3,30,24,21,"Nonmatching","Stranger","Team","Stranger","Bottom","z",0.715044002,0,715.044002,"Stranger","Stranger"
"191",1,3,31,24,21,"Nonmatching","Stranger","Person2","Stranger","Bottom","num_3",0.700286187,1,700.286187,"Stranger","Stranger"
"192",1,3,32,24,21,"Matching","Team","Team","Team","Bottom","num_3",0.700412521,0,700.412521,"Team","Group-Self"
"193",1,3,33,24,21,"Matching","Team","Team","Team","Top","z",0.55021846,1,550.21846,"Team","Group-Self"
"194",1,3,34,24,21,"Nonmatching","Person2","StrangerTeam","Person2","Top","z",0.533657618,0,533.657618,"Person2","Self"
"195",1,3,35,24,21,"Matching","StrangerTeam","StrangerTeam","StrangerTeam","Bottom","num_3",0.567093953,0,567.093953,"StrangerTeam","Group-Stranger"
"196",1,3,36,24,21,"Nonmatching","StrangerTeam","Person1","StrangerTeam","Bottom","num_3",0.766932245,1,766.932245,"StrangerTeam","Group-Stranger"
"197",1,3,37,24,21,"Nonmatching","StrangerTeam","Team","StrangerTeam","Bottom","num_3",0.750497737,1,750.497737,"StrangerTeam","Group-Stranger"
"198",1,3,38,24,21,"Nonmatching","Person2","Team","Person2","Bottom","num_3",0.600259854,1,600.259854,"Person2","Self"
"199",1,3,39,24,21,"Matching","StrangerTeam","StrangerTeam","StrangerTeam","Bottom","z",0.883735372,1,883.735372,"StrangerTeam","Group-Stranger"
"200",1,3,40,24,21,"Nonmatching","Team","StrangerTeam","Team","Top","num_3",0.700326851,1,700.326851,"Team","Group-Self"
"201",1,3,41,24,21,"Nonmatching","Stranger","Person1","Stranger","Top","num_3",0.684255159,1,684.255159,"Stranger","Stranger"
"202",1,3,42,24,21,"Nonmatching","Person1","StrangerTeam","Person1","Bottom","num_3",0.583588469,1,583.588469,"Person1","Self"
"203",1,3,43,24,21,"Nonmatching","Person1","Team","Person1","Top","num_3",0.616979798,1,616.979798,"Person1","Self"
"204",1,3,44,24,21,"Nonmatching","Person2","Stranger","Person2","Bottom","num_3",0.567151593,1,567.151593,"Person2","Self"
"205",1,3,45,24,21,"Nonmatching","StrangerTeam","Team","StrangerTeam","Top","num_3",0.93357858,1,933.57858,"StrangerTeam","Group-Stranger"
"206",1,3,46,24,21,"Matching","Team","Team","Team","Top","z",0.566956959,1,566.956959,"Team","Group-Self"
"207",1,3,47,24,21,"Nonmatching","Stranger","StrangerTeam","Stranger","Top","num_3",0.683548871,1,683.548871,"Stranger","Stranger"
"208",1,3,48,24,21,"Matching","Person1","Person1","Person1","Top","z",0.666956051,1,666.956051,"Person1","Self"
"209",1,3,49,24,21,"Matching","StrangerTeam","StrangerTeam","StrangerTeam","Top","z",0.683544924,1,683.544924,"StrangerTeam","Group-Stranger"
"210",1,3,50,24,21,"Nonmatching","Team","Person1","Team","Bottom","num_3",0.616907551,1,616.907551,"Team","Group-Self"
"211",1,3,51,24,21,"Nonmatching","Person1","Person2","Person1","Bottom","num_3",0.866934101,1,866.934101,"Person1","Self"
"212",1,3,52,24,21,"Nonmatching","StrangerTeam","Person2","StrangerTeam","Top","num_3",0.850254031,1,850.254031,"StrangerTeam","Group-Stranger"
"213",1,3,53,24,21,"Nonmatching","StrangerTeam","Stranger","StrangerTeam","Bottom","num_3",0.650226632,1,650.226632,"StrangerTeam","Group-Stranger"
"214",1,3,54,24,21,"Nonmatching","Team","Stranger","Team","Bottom","z",0.816994563,0,816.994563,"Team","Group-Self"
"215",1,3,55,24,21,"Matching","StrangerTeam","StrangerTeam","StrangerTeam","Bottom","None",NA,3,NA,"StrangerTeam","Group-Stranger"
"216",1,3,56,24,21,"Matching","Person1","Person1","Person1","Bottom","z",0.516921092,1,516.921092,"Person1","Self"
"217",1,3,57,24,21,"Nonmatching","Person2","Stranger","Person2","Bottom","num_3",0.600362895,1,600.362895,"Person2","Self"
"218",1,3,58,24,21,"Nonmatching","Stranger","Person1","Stranger","Bottom","num_3",0.750335477,1,750.335477,"Stranger","Stranger"
"219",1,3,59,24,21,"Nonmatching","Person2","Team","Person2","Top","num_3",0.633561564,1,633.561564,"Person2","Self"
"220",1,3,60,24,21,"Nonmatching","Person2","Person1","Person2","Bottom","z",0.483634779,0,483.634779,"Person2","Self"
"221",1,3,61,24,21,"Nonmatching","Person2","Person1","Person2","Top","num_3",1.133707835,1,1133.707835,"Person2","Self"
"222",1,3,62,24,21,"Matching","StrangerTeam","StrangerTeam","StrangerTeam","Top","z",1.416894759,1,1416.894759,"StrangerTeam","Group-Stranger"
"223",1,3,63,24,21,"Matching","Person2","Person2","Person2","Bottom","num_3",0.617055599,0,617.055599,"Person2","Self"
"224",1,3,64,24,21,"Matching","Stranger","Stranger","Stranger","Bottom","z",0.817029305,1,817.029305,"Stranger","Stranger"
"225",1,3,65,24,21,"Matching","Stranger","Stranger","Stranger","Bottom","z",0.500268658,1,500.268658,"Stranger","Stranger"
"226",1,3,66,24,21,"Nonmatching","StrangerTeam","Stranger","StrangerTeam","Bottom","num_3",0.533753158,1,533.753158,"StrangerTeam","Group-Stranger"
"227",1,3,67,24,21,"Nonmatching","Team","Stranger","Team","Bottom","num_3",1.266905201,1,1266.905201,"Team","Group-Self"
"228",1,3,68,24,21,"Matching","Stranger","Stranger","Stranger","Bottom","None",NA,3,NA,"Stranger","Stranger"
"229",1,3,69,24,21,"Matching","Person2","Person2","Person2","Bottom","z",0.583554517,1,583.554517,"Person2","Self"
"230",1,3,70,24,21,"Matching","Person1","Person1","Person1","Top","z",0.583533988,1,583.533988,"Person1","Self"
"231",1,3,71,24,21,"Matching","Team","Team","Team","Bottom","z",0.566933666,1,566.933666,"Team","Group-Self"
"232",1,3,72,24,21,"Nonmatching","Stranger","StrangerTeam","Stranger","Bottom","num_3",0.617127846,1,617.127846,"Stranger","Stranger"
"233",1,3,73,24,21,"Matching","Person2","Person2","Person2","Bottom","z",0.816936528,1,816.936528,"Person2","Self"
"234",1,3,74,24,21,"Nonmatching","Person1","Person2","Person1","Top","z",0.533716047,0,533.716047,"Person1","Self"
"235",1,3,75,24,21,"Nonmatching","Person1","StrangerTeam","Person1","Top","num_3",0.63359749,1,633.59749,"Person1","Self"
"236",1,3,76,24,21,"Matching","StrangerTeam","StrangerTeam","StrangerTeam","Top","None",NA,3,NA,"StrangerTeam","Group-Stranger"
"237",1,3,77,24,21,"Matching","Person1","Person1","Person1","Top","z",0.450362283,1,450.362283,"Person1","Self"
"238",1,3,78,24,21,"Matching","Person2","Person2","Person2","Top","z",0.600258669,1,600.258669,"Person2","Self"
"239",1,3,79,24,21,"Nonmatching","Team","Person2","Team","Top","num_3",0.55036098,1,550.36098,"Team","Group-Self"
"240",1,3,80,24,21,"Matching","Stranger","Stranger","Stranger","Bottom","z",0.716918881,1,716.918881,"Stranger","Stranger"
"241",1,4,1,24,21,"Matching","Person2","Person2","Person2","Top","z",0.550298603,1,550.298603,"Person2","Self"
"242",1,4,2,24,21,"Matching","Team","Team","Team","Bottom","z",0.56703118,1,567.03118,"Team","Group-Self"
"243",1,4,3,24,21,"Matching","Person1","Person1","Person1","Top","z",0.467578879,1,467.578879,"Person1","Self"
"244",1,4,4,24,21,"Matching","StrangerTeam","StrangerTeam","StrangerTeam","Bottom","z",0.533601952,1,533.601952,"StrangerTeam","Group-Stranger"
"245",1,4,5,24,21,"Matching","Person2","Person2","Person2","Bottom","z",0.483657677,1,483.657677,"Person2","Self"
"246",1,4,6,24,21,"Matching","Stranger","Stranger","Stranger","Bottom","z",0.50045658,1,500.45658,"Stranger","Stranger"
"247",1,4,7,24,21,"Nonmatching","Team","Stranger","Team","Bottom","num_3",0.550282022,1,550.282022,"Team","Group-Self"
"248",1,4,8,24,21,"Nonmatching","Person2","Person1","Person2","Top","num_3",0.900597443,1,900.597443,"Person2","Self"
"249",1,4,9,24,21,"Nonmatching","Person2","Team","Person2","Bottom","num_3",0.516915565,1,516.915565,"Person2","Self"
"250",1,4,10,24,21,"Matching","Team","Team","Team","Top","z",0.633642892,1,633.642892,"Team","Group-Self"
"251",1,4,11,24,21,"Matching","Person2","Person2","Person2","Bottom","z",0.767095295,1,767.095295,"Person2","Self"
"252",1,4,12,24,21,"Nonmatching","Team","StrangerTeam","Team","Top","num_3",0.700449632,1,700.449632,"Team","Group-Self"
"253",1,4,13,24,21,"Nonmatching","Team","StrangerTeam","Team","Bottom","num_3",0.533569578,1,533.569578,"Team","Group-Self"
"254",1,4,14,24,21,"Matching","Team","Team","Team","Top","num_3",0.53374921,0,533.74921,"Team","Group-Self"
"255",1,4,15,24,21,"Nonmatching","StrangerTeam","Person1","StrangerTeam","Top","num_3",0.800275804,1,800.275804,"StrangerTeam","Group-Stranger"
"256",1,4,16,24,21,"Matching","StrangerTeam","StrangerTeam","StrangerTeam","Top","z",1.10036862,1,1100.36862,"StrangerTeam","Group-Stranger"
"257",1,4,17,24,21,"Nonmatching","StrangerTeam","Stranger","StrangerTeam","Bottom","num_3",0.65024953,1,650.24953,"StrangerTeam","Group-Stranger"
"258",1,4,18,24,21,"Nonmatching","StrangerTeam","Person2","StrangerTeam","Top","num_3",0.583832452,1,583.832452,"StrangerTeam","Group-Stranger"
"259",1,4,19,24,21,"Nonmatching","Stranger","Team","Stranger","Top","num_3",0.7502427,1,750.2427,"Stranger","Stranger"
"260",1,4,20,24,21,"Nonmatching","Person2","Stranger","Person2","Bottom","num_3",0.683582429,1,683.582429,"Person2","Self"
"261",1,4,21,24,21,"Matching","StrangerTeam","StrangerTeam","StrangerTeam","Bottom","z",0.650456007,1,650.456007,"StrangerTeam","Group-Stranger"
"262",1,4,22,24,21,"Matching","Person2","Person2","Person2","Bottom","z",0.650418502,1,650.418502,"Person2","Self"
"263",1,4,23,24,21,"Nonmatching","Person1","Person2","Person1","Bottom","z",0.48373861,0,483.73861,"Person1","Self"
"264",1,4,24,24,21,"Matching","Person1","Person1","Person1","Bottom","z",0.516942411,1,516.942411,"Person1","Self"
"265",1,4,25,24,21,"Nonmatching","StrangerTeam","Team","StrangerTeam","Bottom","num_3",0.566944326,1,566.944326,"StrangerTeam","Group-Stranger"
"266",1,4,26,24,21,"Nonmatching","Team","Person2","Team","Bottom","num_3",0.683696919,1,683.696919,"Team","Group-Self"
"267",1,4,27,24,21,"Nonmatching","Person1","StrangerTeam","Person1","Top","num_3",0.666930389,1,666.930389,"Person1","Self"
"268",1,4,28,24,21,"Matching","Person1","Person1","Person1","Top","z",0.500267473,1,500.267473,"Person1","Self"
"269",1,4,29,24,21,"Matching","Person1","Person1","Person1","Top","z",0.600270118,1,600.270118,"Person1","Self"
"270",1,4,30,24,21,"Nonmatching","Person1","Stranger","Person1","Bottom","num_3",0.583605445,1,583.605445,"Person1","Self"
"271",1,4,31,24,21,"Nonmatching","Stranger","Person2","Stranger","Bottom","num_3",0.650386524,1,650.386524,"Stranger","Stranger"
"272",1,4,32,24,21,"Matching","Person1","Person1","Person1","Top","z",0.450269507,1,450.269507,"Person1","Self"
"273",1,4,33,24,21,"Matching","StrangerTeam","StrangerTeam","StrangerTeam","Top","num_3",0.633588805,0,633.588805,"StrangerTeam","Group-Stranger"
"274",1,4,34,24,21,"Nonmatching","StrangerTeam","Team","StrangerTeam","Top","num_3",0.583737307,1,583.737307,"StrangerTeam","Group-Stranger"
"275",1,4,35,24,21,"Matching","StrangerTeam","StrangerTeam","StrangerTeam","Bottom","z",0.633573803,1,633.573803,"StrangerTeam","Group-Stranger"
"276",1,4,36,24,21,"Matching","StrangerTeam","StrangerTeam","StrangerTeam","Top","z",0.583636634,1,583.636634,"StrangerTeam","Group-Stranger"
"277",1,4,37,24,21,"Nonmatching","Person1","Person2","Person1","Top","z",0.500279317,0,500.279317,"Person1","Self"
"278",1,4,38,24,21,"Matching","Person2","Person2","Person2","Bottom","None",NA,3,NA,"Person2","Self"
"279",1,4,39,24,21,"Nonmatching","Stranger","StrangerTeam","Stranger","Top","num_3",0.683579271,1,683.579271,"Stranger","Stranger"
"280",1,4,40,24,21,"Nonmatching","Person1","StrangerTeam","Person1","Bottom","num_3",1.164756058,1,1164.756058,"Person1","Self"
"281",1,4,41,24,21,"Matching","Stranger","Stranger","Stranger","Bottom","num_3",0.567299641,0,567.299641,"Stranger","Stranger"
"282",1,4,42,24,21,"Nonmatching","Team","Person1","Team","Top","num_3",1.066903859,1,1066.903859,"Team","Group-Self"
"283",1,4,43,24,21,"Nonmatching","Person1","Team","Person1","Top","z",0.433594174,0,433.594174,"Person1","Self"
"284",1,4,44,24,21,"Matching","StrangerTeam","StrangerTeam","StrangerTeam","Top","num_3",0.633801994,0,633.801994,"StrangerTeam","Group-Stranger"
"285",1,4,45,24,21,"Matching","Stranger","Stranger","Stranger","Bottom","z",0.567077766,1,567.077766,"Stranger","Stranger"
"286",1,4,46,24,21,"Nonmatching","Person2","Stranger","Person2","Bottom","num_3",0.483570032,1,483.570032,"Person2","Self"
"287",1,4,47,24,21,"Matching","Person2","Person2","Person2","Top","num_3",0.650386129,0,650.386129,"Person2","Self"
"288",1,4,48,24,21,"Matching","Stranger","Stranger","Stranger","Bottom","z",0.50028366,1,500.28366,"Stranger","Stranger"
"289",1,4,49,24,21,"Matching","Team","Team","Team","Bottom","z",0.800189738,1,800.189738,"Team","Group-Self"
"290",1,4,50,24,21,"Matching","Stranger","Stranger","Stranger","Bottom","z",0.600270118,1,600.270118,"Stranger","Stranger"
"291",1,4,51,24,21,"Nonmatching","Person1","Team","Person1","Bottom","num_3",0.733594214,1,733.594214,"Person1","Self"
"292",1,4,52,24,21,"Nonmatching","Person2","Team","Person2","Top","num_3",0.633611308,1,633.611308,"Person2","Self"
"293",1,4,53,24,21,"Matching","Team","Team","Team","Top","z",0.966936351,1,966.936351,"Team","Group-Self"
"294",1,4,54,24,21,"Nonmatching","StrangerTeam","Stranger","StrangerTeam","Bottom","num_3",1.483667942,1,1483.667942,"StrangerTeam","Group-Stranger"
"295",1,4,55,24,21,"Matching","Team","Team","Team","Bottom","z",0.71693033,1,716.93033,"Team","Group-Self"
"296",1,4,56,24,21,"Matching","StrangerTeam","StrangerTeam","StrangerTeam","Bottom","z",0.60039211,1,600.39211,"StrangerTeam","Group-Stranger"
"297",1,4,57,24,21,"Nonmatching","Stranger","Person1","Stranger","Top","num_3",0.783600471,1,783.600471,"Stranger","Stranger"
"298",1,4,58,24,21,"Matching","Person2","Person2","Person2","Top","z",0.633586041,1,633.586041,"Person2","Self"
"299",1,4,59,24,21,"Nonmatching","Person1","Stranger","Person1","Bottom","num_3",0.883699841,1,883.699841,"Person1","Self"
"300",1,4,60,24,21,"Matching","Person2","Person2","Person2","Top","z",0.733581185,1,733.581185,"Person2","Self"
"301",1,4,61,24,21,"Nonmatching","Team","Stranger","Team","Bottom","None",NA,3,NA,"Team","Group-Self"
"302",1,4,62,24,21,"Matching","Person1","Person1","Person1","Bottom","z",0.500344458,1,500.344458,"Person1","Self"
"303",1,4,63,24,21,"Matching","Stranger","Stranger","Stranger","Bottom","num_3",0.60026775,0,600.26775,"Stranger","Stranger"
"304",1,4,64,24,21,"Matching","Team","Team","Team","Bottom","z",0.700274343,1,700.274343,"Team","Group-Self"
"305",1,4,65,24,21,"Nonmatching","Stranger","StrangerTeam","Stranger","Bottom","num_3",0.683603353,1,683.603353,"Stranger","Stranger"
"306",1,4,66,24,21,"Nonmatching","Stranger","Person1","Stranger","Bottom","num_3",0.718562411,1,718.562411,"Stranger","Stranger"
"307",1,4,67,24,21,"Nonmatching","Stranger","Person2","Stranger","Top","num_3",0.733597767,1,733.597767,"Stranger","Stranger"
"308",1,4,68,24,21,"Nonmatching","Team","Person1","Team","Bottom","num_3",0.666892489,1,666.892489,"Team","Group-Self"
"309",1,4,69,24,21,"Nonmatching","Team","Person2","Team","Top","num_3",0.633751855,1,633.751855,"Team","Group-Self"
"310",1,4,70,24,21,"Matching","Person1","Person1","Person1","Bottom","z",1.433560222,1,1433.560222,"Person1","Self"
"311",1,4,71,24,21,"Matching","Team","Team","Team","Top","z",0.800254879,1,800.254879,"Team","Group-Self"
"312",1,4,72,24,21,"Matching","Stranger","Stranger","Stranger","Bottom","z",0.550238989,1,550.238989,"Stranger","Stranger"
"313",1,4,73,24,21,"Matching","Stranger","Stranger","Stranger","Bottom","z",0.433757619,1,433.757619,"Stranger","Stranger"
"314",1,4,74,24,21,"Nonmatching","Stranger","Team","Stranger","Bottom","num_3",0.650247556,1,650.247556,"Stranger","Stranger"
"315",1,4,75,24,21,"Nonmatching","Person2","StrangerTeam","Person2","Bottom","num_3",0.617058757,1,617.058757,"Person2","Self"
"316",1,4,76,24,21,"Matching","Person1","Person1","Person1","Bottom","z",0.5669159,1,566.9159,"Person1","Self"
"317",1,4,77,24,21,"Nonmatching","Person2","StrangerTeam","Person2","Top","num_3",0.766972119,1,766.972119,"Person2","Self"
"318",1,4,78,24,21,"Nonmatching","StrangerTeam","Person1","StrangerTeam","Bottom","num_3",0.65026848,1,650.26848,"StrangerTeam","Group-Stranger"
"319",1,4,79,24,21,"Nonmatching","StrangerTeam","Person2","StrangerTeam","Bottom","num_3",0.550261097,1,550.261097,"StrangerTeam","Group-Stranger"
"320",1,4,80,24,21,"Nonmatching","Person2","Person1","Person2","Bottom","num_3",0.950252728,1,950.252728,"Person2","Self"
"321",1,5,1,24,21,"Nonmatching","Person2","StrangerTeam","Person2","Top","num_3",0.833592121,1,833.592121,"Person2","Self"
"322",1,5,2,24,21,"Nonmatching","Team","Person2","Team","Bottom","num_3",0.700285002,1,700.285002,"Team","Group-Self"
"323",1,5,3,24,21,"Nonmatching","StrangerTeam","Person1","StrangerTeam","Top","num_3",0.750269546,1,750.269546,"StrangerTeam","Group-Stranger"
"324",1,5,4,24,21,"Nonmatching","Team","Stranger","Team","Bottom","num_3",0.80025409,1,800.25409,"Team","Group-Self"
"325",1,5,5,24,21,"Nonmatching","Person1","Person2","Person1","Bottom","num_3",1.166902162,1,1166.902162,"Person1","Self"
"326",1,5,6,24,21,"Nonmatching","Team","Person1","Team","Top","num_3",0.816938897,1,816.938897,"Team","Group-Self"
"327",1,5,7,24,21,"Matching","Person2","Person2","Person2","Bottom","num_3",0.717037714,0,717.037714,"Person2","Self"
"328",1,5,8,24,21,"Matching","Team","Team","Team","Bottom","z",0.618753215,1,618.753215,"Team","Group-Self"
"329",1,5,9,24,21,"Matching","Team","Team","Team","Bottom","z",0.650268875,1,650.268875,"Team","Group-Self"
"330",1,5,10,24,21,"Matching","Team","Team","Team","Top","z",1.016931949,1,1016.931949,"Team","Group-Self"
"331",1,5,11,24,21,"Matching","Team","Team","Team","Top","z",0.483609117,1,483.609117,"Team","Group-Self"
"332",1,5,12,24,21,"Nonmatching","Person1","Person2","Person1","Top","num_3",0.650237686,1,650.237686,"Person1","Self"
"333",1,5,13,24,21,"Matching","Stranger","Stranger","Stranger","Bottom","z",0.533609058,1,533.609058,"Stranger","Stranger"
"334",1,5,14,24,21,"Matching","Person1","Person1","Person1","Top","z",0.516979916,1,516.979916,"Person1","Self"
"335",1,5,15,24,21,"Nonmatching","Person1","Team","Person1","Top","num_3",0.633748697,1,633.748697,"Person1","Self"
"336",1,5,16,24,21,"Nonmatching","Person2","Stranger","Person2","Bottom","num_3",0.650230975,1,650.230975,"Person2","Self"
"337",1,5,17,24,21,"Nonmatching","Stranger","Team","Stranger","Top","num_3",0.716993892,1,716.993892,"Stranger","Stranger"
"338",1,5,18,24,21,"Matching","Person1","Person1","Person1","Top","z",0.583599129,1,583.599129,"Person1","Self"
"339",1,5,19,24,21,"Matching","StrangerTeam","StrangerTeam","StrangerTeam","Bottom","z",0.733792006,1,733.792006,"StrangerTeam","Group-Stranger"
"340",1,5,20,24,21,"Matching","Stranger","Stranger","Stranger","Bottom","z",0.58355807,1,583.55807,"Stranger","Stranger"
"341",1,5,21,24,21,"Nonmatching","Person2","StrangerTeam","Person2","Bottom","num_3",0.683598221,1,683.598221,"Person2","Self"
"342",1,5,22,24,21,"Matching","Person1","Person1","Person1","Top","z",0.550270178,1,550.270178,"Person1","Self"
"343",1,5,23,24,21,"Nonmatching","Stranger","StrangerTeam","Stranger","Bottom","num_3",0.716903879,1,716.903879,"Stranger","Stranger"
"344",1,5,24,24,21,"Nonmatching","Person1","StrangerTeam","Person1","Top","num_3",0.566939588,1,566.939588,"Person1","Self"
"345",1,5,25,24,21,"Matching","StrangerTeam","StrangerTeam","StrangerTeam","Top","num_3",0.567100664,0,567.100664,"StrangerTeam","Group-Stranger"
"346",1,5,26,24,21,"Matching","StrangerTeam","StrangerTeam","StrangerTeam","Top","z",0.766924349,1,766.924349,"StrangerTeam","Group-Stranger"
"347",1,5,27,24,21,"Matching","Person2","Person2","Person2","Top","z",1.40023206,1,1400.23206,"Person2","Self"
"348",1,5,28,24,21,"Nonmatching","Team","StrangerTeam","Team","Top","num_3",0.716948096,1,716.948096,"Team","Group-Self"
"349",1,5,29,24,21,"Matching","Stranger","Stranger","Stranger","Bottom","z",0.516969652,1,516.969652,"Stranger","Stranger"
"350",1,5,30,24,21,"Matching","Stranger","Stranger","Stranger","Bottom","z",0.400416824,1,400.416824,"Stranger","Stranger"
"351",1,5,31,24,21,"Matching","Team","Team","Team","Top","z",0.550341241,1,550.341241,"Team","Group-Self"
"352",1,5,32,24,21,"Nonmatching","StrangerTeam","Person2","StrangerTeam","Top","z",0.650409027,0,650.409027,"StrangerTeam","Group-Stranger"
"353",1,5,33,24,21,"Nonmatching","Team","Person2","Team","Top","z",0.667029483,0,667.029483,"Team","Group-Self"
"354",1,5,34,24,21,"Matching","Person1","Person1","Person1","Top","z",0.483623724,1,483.623724,"Person1","Self"
"355",1,5,35,24,21,"Nonmatching","StrangerTeam","Team","StrangerTeam","Bottom","num_3",0.783602445,1,783.602445,"StrangerTeam","Group-Stranger"
"356",1,5,36,24,21,"Matching","Person2","Person2","Person2","Bottom","z",0.633599859,1,633.599859,"Person2","Self"
"357",1,5,37,24,21,"Matching","Team","Team","Team","Top","z",0.63374317,1,633.74317,"Team","Group-Self"
"358",1,5,38,24,21,"Matching","Person1","Person1","Person1","Bottom","z",0.466925099,1,466.925099,"Person1","Self"
"359",1,5,39,24,21,"Nonmatching","Stranger","Person1","Stranger","Top","num_3",0.600458041,1,600.458041,"Stranger","Stranger"
"360",1,5,40,24,21,"Nonmatching","Team","StrangerTeam","Team","Bottom","num_3",0.766929876,1,766.929876,"Team","Group-Self"
"361",1,5,41,24,21,"Nonmatching","Person1","Team","Person1","Bottom","num_3",0.833582251,1,833.582251,"Person1","Self"
"362",1,5,42,24,21,"Matching","Team","Team","Team","Bottom","z",0.850292326,1,850.292326,"Team","Group-Self"
"363",1,5,43,24,21,"Nonmatching","StrangerTeam","Person1","StrangerTeam","Bottom","num_3",0.800155391,1,800.155391,"StrangerTeam","Group-Stranger"
"364",1,5,44,24,21,"Matching","Person2","Person2","Person2","Top","z",0.817128399,1,817.128399,"Person2","Self"
"365",1,5,45,24,21,"Nonmatching","Stranger","Person1","Stranger","Bottom","num_3",0.550439544,1,550.439544,"Stranger","Stranger"
"366",1,5,46,24,21,"Nonmatching","Person1","Stranger","Person1","Bottom","num_3",0.966952143,1,966.952143,"Person1","Self"
"367",1,5,47,24,21,"Nonmatching","Person2","Person1","Person2","Top","num_3",0.716900326,1,716.900326,"Person2","Self"
"368",1,5,48,24,21,"Matching","Person2","Person2","Person2","Top","z",0.833609887,1,833.609887,"Person2","Self"
"369",1,5,49,24,21,"Matching","Person1","Person1","Person1","Bottom","num_3",0.533361522,0,533.361522,"Person1","Self"
"370",1,5,50,24,21,"Nonmatching","Stranger","Person2","Stranger","Bottom","num_3",0.566986964,1,566.986964,"Stranger","Stranger"
"371",1,5,51,24,21,"Nonmatching","Person1","Stranger","Person1","Bottom","num_3",0.766926718,1,766.926718,"Person1","Self"
"372",1,5,52,24,21,"Nonmatching","Team","Person1","Team","Bottom","num_3",0.500265104,1,500.265104,"Team","Group-Self"
"373",1,5,53,24,21,"Matching","Person2","Person2","Person2","Bottom","z",0.733566183,1,733.566183,"Person2","Self"
"374",1,5,54,24,21,"Nonmatching","Person2","Person1","Person2","Bottom","num_3",0.516937279,1,516.937279,"Person2","Self"
"375",1,5,55,24,21,"Matching","Stranger","Stranger","Stranger","Bottom","z",0.616951768,1,616.951768,"Stranger","Stranger"
"376",1,5,56,24,21,"Matching","Person2","Person2","Person2","Bottom","z",0.783587048,1,783.587048,"Person2","Self"
"377",1,5,57,24,21,"Nonmatching","Person2","Team","Person2","Bottom","num_3",0.600263012,1,600.263012,"Person2","Self"
"378",1,5,58,24,21,"Matching","StrangerTeam","StrangerTeam","StrangerTeam","Bottom","num_3",0.648765892,0,648.765892,"StrangerTeam","Group-Stranger"
"379",1,5,59,24,21,"Nonmatching","StrangerTeam","Person2","StrangerTeam","Bottom","num_3",0.51694478,1,516.94478,"StrangerTeam","Group-Stranger"
"380",1,5,60,24,21,"Nonmatching","Stranger","Team","Stranger","Bottom","num_3",0.933725443,1,933.725443,"Stranger","Stranger"
"381",1,5,61,24,21,"Matching","Team","Team","Team","Bottom","z",0.450360309,1,450.360309,"Team","Group-Self"
"382",1,5,62,24,21,"Matching","StrangerTeam","StrangerTeam","StrangerTeam","Bottom","z",0.683723765,1,683.723765,"StrangerTeam","Group-Stranger"
"383",1,5,63,24,21,"Nonmatching","Stranger","Person2","Stranger","Top","num_3",0.566929718,1,566.929718,"Stranger","Stranger"
"384",1,5,64,24,21,"Matching","StrangerTeam","StrangerTeam","StrangerTeam","Top","z",0.61693795,1,616.93795,"StrangerTeam","Group-Stranger"
"385",1,5,65,24,21,"Matching","Stranger","Stranger","Stranger","Bottom","z",0.583599524,1,583.599524,"Stranger","Stranger"
"386",1,5,66,24,21,"Nonmatching","StrangerTeam","Stranger","StrangerTeam","Bottom","num_3",0.733590661,1,733.590661,"StrangerTeam","Group-Stranger"
"387",1,5,67,24,21,"Nonmatching","Team","Stranger","Team","Bottom","num_3",1.00025938,1,1000.25938,"Team","Group-Self"
"388",1,5,68,24,21,"Nonmatching","StrangerTeam","Team","StrangerTeam","Top","num_3",0.866946734,1,866.946734,"StrangerTeam","Group-Stranger"
"389",1,5,69,24,21,"Nonmatching","StrangerTeam","Stranger","StrangerTeam","Bottom","num_3",0.617029542,1,617.029542,"StrangerTeam","Group-Stranger"
"390",1,5,70,24,21,"Matching","Stranger","Stranger","Stranger","Bottom","z",0.633602623,1,633.602623,"Stranger","Stranger"
"391",1,5,71,24,21,"Matching","StrangerTeam","StrangerTeam","StrangerTeam","Bottom","num_3",0.65038376,0,650.38376,"StrangerTeam","Group-Stranger"
"392",1,5,72,24,21,"Matching","Stranger","Stranger","Stranger","Bottom","z",0.500276159,1,500.276159,"Stranger","Stranger"
"393",1,5,73,24,21,"Matching","StrangerTeam","StrangerTeam","StrangerTeam","Top","z",0.650355335,1,650.355335,"StrangerTeam","Group-Stranger"
"394",1,5,74,24,21,"Matching","Person1","Person1","Person1","Bottom","z",0.450264769,1,450.264769,"Person1","Self"
"395",1,5,75,24,21,"Nonmatching","Person1","StrangerTeam","Person1","Bottom","num_3",0.750361928,1,750.361928,"Person1","Self"
"396",1,5,76,24,21,"Matching","Person2","Person2","Person2","Top","z",0.733593819,1,733.593819,"Person2","Self"
"397",1,5,77,24,21,"Nonmatching","Person2","Stranger","Person2","Bottom","num_3",0.600436722,1,600.436722,"Person2","Self"
"398",1,5,78,24,21,"Nonmatching","Stranger","StrangerTeam","Stranger","Top","num_3",0.816912051,1,816.912051,"Stranger","Stranger"
"399",1,5,79,24,21,"Matching","Person1","Person1","Person1","Bottom","z",0.550271757,1,550.271757,"Person1","Self"
"400",1,5,80,24,21,"Nonmatching","Person2","Team","Person2","Top","num_3",0.65030796,1,650.30796,"Person2","Self"
"401",1,6,1,24,21,"Nonmatching","Stranger","StrangerTeam","Stranger","Bottom","num_3",0.616932028,1,616.932028,"Stranger","Stranger"
"402",1,6,2,24,21,"Matching","StrangerTeam","StrangerTeam","StrangerTeam","Top","z",0.667049223,1,667.049223,"StrangerTeam","Group-Stranger"
"403",1,6,3,24,21,"Matching","Person1","Person1","Person1","Top","z",0.516928593,1,516.928593,"Person1","Self"
"404",1,6,4,24,21,"Matching","Person1","Person1","Person1","Bottom","z",0.516891088,1,516.891088,"Person1","Self"
"405",1,6,5,24,21,"Matching","Team","Team","Team","Bottom","z",0.633549325,1,633.549325,"Team","Group-Self"
"406",1,6,6,24,21,"Nonmatching","Person1","Stranger","Person1","Bottom","num_3",0.517111383,1,517.111383,"Person1","Self"
"407",1,6,7,24,21,"Matching","Person1","Person1","Person1","Top","z",0.433776964,1,433.776964,"Person1","Self"
"408",1,6,8,24,21,"Nonmatching","Person2","Stranger","Person2","Bottom","num_3",0.517200607,1,517.200607,"Person2","Self"
"409",1,6,9,24,21,"Matching","Person2","Person2","Person2","Top","z",0.716941384,1,716.941384,"Person2","Self"
"410",1,6,10,24,21,"Matching","Stranger","Stranger","Stranger","Bottom","z",0.550270178,1,550.270178,"Stranger","Stranger"
"411",1,6,11,24,21,"Matching","Stranger","Stranger","Stranger","Bottom","z",0.467013533,1,467.013533,"Stranger","Stranger"
"412",1,6,12,24,21,"Nonmatching","StrangerTeam","Person2","StrangerTeam","Top","num_3",0.550306894,1,550.306894,"StrangerTeam","Group-Stranger"
"413",1,6,13,24,21,"Matching","Stranger","Stranger","Stranger","Bottom","z",0.550274126,1,550.274126,"Stranger","Stranger"
"414",1,6,14,24,21,"Nonmatching","Team","Person1","Team","Bottom","num_3",0.633610913,1,633.610913,"Team","Group-Self"
"415",1,6,15,24,21,"Matching","Stranger","Stranger","Stranger","Bottom","z",0.466968527,1,466.968527,"Stranger","Stranger"
"416",1,6,16,24,21,"Matching","Person1","Person1","Person1","Top","z",0.533706967,1,533.706967,"Person1","Self"
"417",1,6,17,24,21,"Nonmatching","Stranger","Team","Stranger","Bottom","num_3",0.533726312,1,533.726312,"Stranger","Stranger"
"418",1,6,18,24,21,"Nonmatching","Stranger","Team","Stranger","Top","num_3",0.917195395,1,917.195395,"Stranger","Stranger"
"419",1,6,19,24,21,"Matching","Person1","Person1","Person1","Bottom","z",0.516907274,1,516.907274,"Person1","Self"
"420",1,6,20,24,21,"Nonmatching","Person2","Person1","Person2","Bottom","num_3",0.800239482,1,800.239482,"Person2","Self"
"421",1,6,21,24,21,"Nonmatching","Team","StrangerTeam","Team","Top","num_3",0.833562906,1,833.562906,"Team","Group-Self"
"422",1,6,22,24,21,"Nonmatching","StrangerTeam","Team","StrangerTeam","Top","num_3",0.916943516,1,916.943516,"StrangerTeam","Group-Stranger"
"423",1,6,23,24,21,"Matching","Team","Team","Team","Top","num_3",0.600247615,0,600.247615,"Team","Group-Self"
"424",1,6,24,24,21,"Matching","Person1","Person1","Person1","Bottom","z",0.516954255,1,516.954255,"Person1","Self"
"425",1,6,25,24,21,"Nonmatching","StrangerTeam","Person2","StrangerTeam","Bottom","num_3",0.650255847,1,650.255847,"StrangerTeam","Group-Stranger"
"426",1,6,26,24,21,"Nonmatching","StrangerTeam","Stranger","StrangerTeam","Bottom","num_3",0.616979403,1,616.979403,"StrangerTeam","Group-Stranger"
"427",1,6,27,24,21,"Matching","Team","Team","Team","Bottom","z",0.516891088,1,516.891088,"Team","Group-Self"
"428",1,6,28,24,21,"Nonmatching","Person1","Person2","Person1","Top","z",0.550297418,0,550.297418,"Person1","Self"
"429",1,6,29,24,21,"Nonmatching","Team","Stranger","Team","Bottom","num_3",0.800250537,1,800.250537,"Team","Group-Self"
"430",1,6,30,24,21,"Matching","Person1","Person1","Person1","Bottom","z",0.466960236,1,466.960236,"Person1","Self"
"431",1,6,31,24,21,"Nonmatching","Person2","StrangerTeam","Person2","Top","num_3",0.616922553,1,616.922553,"Person2","Self"
"432",1,6,32,24,21,"Nonmatching","Stranger","Person2","Stranger","Top","num_3",0.6502594,1,650.2594,"Stranger","Stranger"
"433",1,6,33,24,21,"Nonmatching","Stranger","Person1","Stranger","Top","num_3",0.61694624,1,616.94624,"Stranger","Stranger"
"434",1,6,34,24,21,"Matching","StrangerTeam","StrangerTeam","StrangerTeam","Bottom","z",0.650268085,1,650.268085,"StrangerTeam","Group-Stranger"
"435",1,6,35,24,21,"Nonmatching","Team","Person2","Team","Bottom","num_3",0.600264197,1,600.264197,"Team","Group-Self"
"436",1,6,36,24,21,"Matching","StrangerTeam","StrangerTeam","StrangerTeam","Bottom","z",0.633578935,1,633.578935,"StrangerTeam","Group-Stranger"
"437",1,6,37,24,21,"Nonmatching","Person2","Team","Person2","Bottom","num_3",0.617107712,1,617.107712,"Person2","Self"
"438",1,6,38,24,21,"Matching","StrangerTeam","StrangerTeam","StrangerTeam","Top","z",0.633557221,1,633.557221,"StrangerTeam","Group-Stranger"
"439",1,6,39,24,21,"Matching","Team","Team","Team","Top","z",0.566942747,1,566.942747,"Team","Group-Self"
"440",1,6,40,24,21,"Nonmatching","Team","StrangerTeam","Team","Bottom","num_3",0.666988029,1,666.988029,"Team","Group-Self"
"441",1,6,41,24,21,"Matching","Person2","Person2","Person2","Bottom","z",0.850256794,1,850.256794,"Person2","Self"
"442",1,6,42,24,21,"Matching","Team","Team","Team","Bottom","z",0.766876184,1,766.876184,"Team","Group-Self"
"443",1,6,43,24,21,"Matching","Stranger","Stranger","Stranger","Bottom","z",0.55026544,1,550.26544,"Stranger","Stranger"
"444",1,6,44,24,21,"Nonmatching","Person2","StrangerTeam","Person2","Bottom","z",0.567041445,0,567.041445,"Person2","Self"
"445",1,6,45,24,21,"Matching","Person2","Person2","Person2","Bottom","num_3",0.366942194,0,366.942194,"Person2","Self"
"446",1,6,46,24,21,"Nonmatching","StrangerTeam","Person1","StrangerTeam","Bottom","num_3",0.816885995,1,816.885995,"StrangerTeam","Group-Stranger"
"447",1,6,47,24,21,"Matching","Person2","Person2","Person2","Top","z",0.550235436,1,550.235436,"Person2","Self"
"448",1,6,48,24,21,"Nonmatching","Person1","StrangerTeam","Person1","Top","num_3",0.633633022,1,633.633022,"Person1","Self"
"449",1,6,49,24,21,"Matching","StrangerTeam","StrangerTeam","StrangerTeam","Bottom","z",0.616971112,1,616.971112,"StrangerTeam","Group-Stranger"
"450",1,6,50,24,21,"Nonmatching","Person1","Stranger","Person1","Bottom","num_3",0.666916572,1,666.916572,"Person1","Self"
"451",1,6,51,24,21,"Nonmatching","Person1","Person2","Person1","Bottom","num_3",0.650253873,1,650.253873,"Person1","Self"
"452",1,6,52,24,21,"Matching","Person2","Person2","Person2","Top","z",0.600306834,1,600.306834,"Person2","Self"
"453",1,6,53,24,21,"Nonmatching","Stranger","Person2","Stranger","Bottom","num_3",0.583601892,1,583.601892,"Stranger","Stranger"
"454",1,6,54,24,21,"Matching","Person2","Person2","Person2","Top","z",0.833584225,1,833.584225,"Person2","Self"
"455",1,6,55,24,21,"Nonmatching","Person1","StrangerTeam","Person1","Bottom","num_3",0.516936094,1,516.936094,"Person1","Self"
"456",1,6,56,24,21,"Matching","Team","Team","Team","Top","z",0.566954195,1,566.954195,"Team","Group-Self"
"457",1,6,57,24,21,"Nonmatching","StrangerTeam","Stranger","StrangerTeam","Bottom","num_3",0.533564051,1,533.564051,"StrangerTeam","Group-Stranger"
"458",1,6,58,24,21,"Matching","StrangerTeam","StrangerTeam","StrangerTeam","Top","z",0.717004946,1,717.004946,"StrangerTeam","Group-Stranger"
"459",1,6,59,24,21,"Nonmatching","Stranger","StrangerTeam","Stranger","Top","num_3",0.400271934,1,400.271934,"Stranger","Stranger"
"460",1,6,60,24,21,"Matching","Person2","Person2","Person2","Bottom","z",0.550238989,1,550.238989,"Person2","Self"
"461",1,6,61,24,21,"Nonmatching","Team","Person1","Team","Top","num_3",0.716947306,1,716.947306,"Team","Group-Self"
"462",1,6,62,24,21,"Nonmatching","StrangerTeam","Team","StrangerTeam","Bottom","num_3",0.750240331,1,750.240331,"StrangerTeam","Group-Stranger"
"463",1,6,63,24,21,"Matching","Team","Team","Team","Bottom","z",0.616945056,1,616.945056,"Team","Group-Self"
"464",1,6,64,24,21,"Matching","Stranger","Stranger","Stranger","Bottom","z",0.566921822,1,566.921822,"Stranger","Stranger"
"465",1,6,65,24,21,"Nonmatching","Team","Person2","Team","Top","num_3",0.683591904,1,683.591904,"Team","Group-Self"
"466",1,6,66,24,21,"Matching","Stranger","Stranger","Stranger","Bottom","z",0.616934791,1,616.934791,"Stranger","Stranger"
"467",1,6,67,24,21,"Matching","StrangerTeam","StrangerTeam","StrangerTeam","Bottom","z",0.683595062,1,683.595062,"StrangerTeam","Group-Stranger"
"468",1,6,68,24,21,"Matching","Stranger","Stranger","Stranger","Bottom","z",0.583636634,1,583.636634,"Stranger","Stranger"
"469",1,6,69,24,21,"Nonmatching","Team","Stranger","Team","Bottom","num_3",0.668603924,1,668.603924,"Team","Group-Self"
"470",1,6,70,24,21,"Nonmatching","Person2","Stranger","Person2","Bottom","num_3",0.650265322,1,650.265322,"Person2","Self"
"471",1,6,71,24,21,"Nonmatching","StrangerTeam","Person1","StrangerTeam","Top","num_3",1.000209636,1,1000.209636,"StrangerTeam","Group-Stranger"
"472",1,6,72,24,21,"Nonmatching","Person2","Team","Person2","Top","num_3",0.633598675,1,633.598675,"Person2","Self"
"473",1,6,73,24,21,"Nonmatching","Person2","Person1","Person2","Top","z",0.750266782,0,750.266782,"Person2","Self"
"474",1,6,74,24,21,"Matching","Team","Team","Team","Top","z",0.633584857,1,633.584857,"Team","Group-Self"
"475",1,6,75,24,21,"Matching","StrangerTeam","StrangerTeam","StrangerTeam","Top","z",0.600268145,1,600.268145,"StrangerTeam","Group-Stranger"
"476",1,6,76,24,21,"Matching","Person2","Person2","Person2","Bottom","num_3",0.600222348,0,600.222348,"Person2","Self"
"477",1,6,77,24,21,"Nonmatching","Stranger","Person1","Stranger","Bottom","num_3",0.683590325,1,683.590325,"Stranger","Stranger"
"478",1,6,78,24,21,"Nonmatching","Person1","Team","Person1","Top","num_3",0.650365205,1,650.365205,"Person1","Self"
"479",1,6,79,24,21,"Matching","Person1","Person1","Person1","Top","z",0.883517841,1,883.517841,"Person1","Self"
"480",1,6,80,24,21,"Nonmatching","Person1","Team","Person1","Bottom","num_3",0.550312026,1,550.312026,"Person1","Self"
"481",1,7,1,24,21,"Nonmatching","Person2","Stranger","Person2","Bottom","num_3",0.516925435,1,516.925435,"Person2","Self"
"482",1,7,2,24,21,"Nonmatching","StrangerTeam","Team","StrangerTeam","Bottom","num_3",0.850261137,1,850.261137,"StrangerTeam","Group-Stranger"
"483",1,7,3,24,21,"Matching","Stranger","Stranger","Stranger","Bottom","z",0.600291437,1,600.291437,"Stranger","Stranger"
"484",1,7,4,24,21,"Matching","Person2","Person2","Person2","Top","z",0.500231152,1,500.231152,"Person2","Self"
"485",1,7,5,24,21,"Matching","Person1","Person1","Person1","Top","z",0.450360309,1,450.360309,"Person1","Self"
"486",1,7,6,24,21,"Nonmatching","Team","Person1","Team","Bottom","num_3",0.583581758,1,583.581758,"Team","Group-Self"
"487",1,7,7,24,21,"Nonmatching","Team","Person2","Team","Top","num_3",0.550278863,1,550.278863,"Team","Group-Self"
"488",1,7,8,24,21,"Nonmatching","Person2","Person1","Person2","Top","num_3",0.700500955,1,700.500955,"Person2","Self"
"489",1,7,9,24,21,"Nonmatching","Person1","StrangerTeam","Person1","Top","num_3",0.617153902,1,617.153902,"Person1","Self"
"490",1,7,10,24,21,"Nonmatching","Person1","Stranger","Person1","Bottom","num_3",0.616898075,1,616.898075,"Person1","Self"
"491",1,7,11,24,21,"Nonmatching","Person1","Person2","Person1","Bottom","num_3",0.70046187,1,700.46187,"Person1","Self"
"492",1,7,12,24,21,"Matching","StrangerTeam","StrangerTeam","StrangerTeam","Top","z",0.650255057,1,650.255057,"StrangerTeam","Group-Stranger"
"493",1,7,13,24,21,"Nonmatching","StrangerTeam","Person2","StrangerTeam","Top","num_3",0.55026544,1,550.26544,"StrangerTeam","Group-Stranger"
"494",1,7,14,24,21,"Nonmatching","Team","Stranger","Team","Bottom","num_3",0.917112094,1,917.112094,"Team","Group-Self"
"495",1,7,15,24,21,"Matching","Stranger","Stranger","Stranger","Bottom","z",0.566889844,1,566.889844,"Stranger","Stranger"
"496",1,7,16,24,21,"Nonmatching","Person2","Team","Person2","Top","num_3",0.583620448,1,583.620448,"Person2","Self"
"497",1,7,17,24,21,"Nonmatching","Person2","Stranger","Person2","Bottom","num_3",0.600253537,1,600.253537,"Person2","Self"
"498",1,7,18,24,21,"Nonmatching","Team","Stranger","Team","Bottom","num_3",1.066905438,1,1066.905438,"Team","Group-Self"
"499",1,7,19,24,21,"Nonmatching","Person2","StrangerTeam","Person2","Top","num_3",0.850233501,1,850.233501,"Person2","Self"
"500",1,7,20,24,21,"Matching","Stranger","Stranger","Stranger","Bottom","z",0.667097782,1,667.097782,"Stranger","Stranger"
"501",1,7,21,24,21,"Matching","Person1","Person1","Person1","Top","z",0.583601497,1,583.601497,"Person1","Self"
"502",1,7,22,24,21,"Nonmatching","Team","Person2","Team","Bottom","num_3",0.717076404,1,717.076404,"Team","Group-Self"
"503",1,7,23,24,21,"Matching","Team","Team","Team","Top","num_3",0.583587285,0,583.587285,"Team","Group-Self"
"504",1,7,24,24,21,"Matching","Person1","Person1","Person1","Bottom","z",0.500422233,1,500.422233,"Person1","Self"
"505",1,7,25,24,21,"Nonmatching","StrangerTeam","Stranger","StrangerTeam","Bottom","num_3",0.600233797,1,600.233797,"StrangerTeam","Group-Stranger"
"506",1,7,26,24,21,"Matching","Person1","Person1","Person1","Bottom","z",0.500419864,1,500.419864,"Person1","Self"
"507",1,7,27,24,21,"Matching","Team","Team","Team","Bottom","z",0.750289286,1,750.289286,"Team","Group-Self"
"508",1,7,28,24,21,"Matching","Person2","Person2","Person2","Top","z",0.70024118,1,700.24118,"Person2","Self"
"509",1,7,29,24,21,"Nonmatching","StrangerTeam","Team","StrangerTeam","Top","num_3",0.633569065,1,633.569065,"StrangerTeam","Group-Stranger"
"510",1,7,30,24,21,"Nonmatching","Stranger","Person1","Stranger","Bottom","num_3",0.765014728,1,765.014728,"Stranger","Stranger"
"511",1,7,31,24,21,"Matching","StrangerTeam","StrangerTeam","StrangerTeam","Top","z",0.633644866,1,633.644866,"StrangerTeam","Group-Stranger"
"512",1,7,32,24,21,"Matching","Team","Team","Team","Top","z",0.600264986,1,600.264986,"Team","Group-Self"
"513",1,7,33,24,21,"Nonmatching","Person2","StrangerTeam","Person2","Bottom","num_3",0.716943358,1,716.943358,"Person2","Self"
"514",1,7,34,24,21,"Matching","Stranger","Stranger","Stranger","Bottom","z",0.583614921,1,583.614921,"Stranger","Stranger"
"515",1,7,35,24,21,"Nonmatching","StrangerTeam","Stranger","StrangerTeam","Bottom","num_3",0.666905123,1,666.905123,"StrangerTeam","Group-Stranger"
"516",1,7,36,24,21,"Nonmatching","Person1","Person2","Person1","Top","z",0.51696294,0,516.96294,"Person1","Self"
"517",1,7,37,24,21,"Matching","Team","Team","Team","Top","z",0.750477208,1,750.477208,"Team","Group-Self"
"518",1,7,38,24,21,"Matching","Stranger","Stranger","Stranger","Bottom","z",0.566930113,1,566.930113,"Stranger","Stranger"
"519",1,7,39,24,21,"Matching","Team","Team","Team","Bottom","z",0.717046005,1,717.046005,"Team","Group-Self"
"520",1,7,40,24,21,"Matching","Person2","Person2","Person2","Bottom","z",0.666927231,1,666.927231,"Person2","Self"
"521",1,7,41,24,21,"Matching","Team","Team","Team","Top","num_3",0.55026623,0,550.26623,"Team","Group-Self"
"522",1,7,42,24,21,"Matching","Person1","Person1","Person1","Bottom","z",0.566938799,1,566.938799,"Person1","Self"
"523",1,7,43,24,21,"Matching","Person1","Person1","Person1","Top","z",0.383600945,1,383.600945,"Person1","Self"
"524",1,7,44,24,21,"Nonmatching","StrangerTeam","Person2","StrangerTeam","Bottom","num_3",0.733634877,1,733.634877,"StrangerTeam","Group-Stranger"
"525",1,7,45,24,21,"Nonmatching","Person2","Person1","Person2","Bottom","num_3",0.71688335,1,716.88335,"Person2","Self"
"526",1,7,46,24,21,"Nonmatching","Stranger","Person2","Stranger","Bottom","num_3",0.650246372,1,650.246372,"Stranger","Stranger"
"527",1,7,47,24,21,"Nonmatching","Stranger","Person1","Stranger","Top","num_3",0.600292622,1,600.292622,"Stranger","Stranger"
"528",1,7,48,24,21,"Nonmatching","Person1","Stranger","Person1","Bottom","num_3",0.583630712,1,583.630712,"Person1","Self"
"529",1,7,49,24,21,"Matching","StrangerTeam","StrangerTeam","StrangerTeam","Bottom","z",0.516891482,1,516.891482,"StrangerTeam","Group-Stranger"
"530",1,7,50,24,21,"Nonmatching","Person1","Team","Person1","Bottom","num_3",0.633563933,1,633.563933,"Person1","Self"
"531",1,7,51,24,21,"Matching","Team","Team","Team","Bottom","z",0.566984595,1,566.984595,"Team","Group-Self"
"532",1,7,52,24,21,"Nonmatching","StrangerTeam","Person1","StrangerTeam","Bottom","num_3",0.683564268,1,683.564268,"StrangerTeam","Group-Stranger"
"533",1,7,53,24,21,"Matching","StrangerTeam","StrangerTeam","StrangerTeam","Top","z",0.650375469,1,650.375469,"StrangerTeam","Group-Stranger"
"534",1,7,54,24,21,"Matching","Person1","Person1","Person1","Top","z",0.633601044,1,633.601044,"Person1","Self"
"535",1,7,55,24,21,"Nonmatching","Stranger","StrangerTeam","Stranger","Bottom","num_3",0.550285575,1,550.285575,"Stranger","Stranger"
"536",1,7,56,24,21,"Nonmatching","Team","StrangerTeam","Team","Top","num_3",0.583643741,1,583.643741,"Team","Group-Self"
"537",1,7,57,24,21,"Nonmatching","Stranger","Team","Stranger","Bottom","num_3",0.483615039,1,483.615039,"Stranger","Stranger"
"538",1,7,58,24,21,"Matching","StrangerTeam","StrangerTeam","StrangerTeam","Top","z",0.733570526,1,733.570526,"StrangerTeam","Group-Stranger"
"539",1,7,59,24,21,"Matching","Stranger","Stranger","Stranger","Bottom","z",0.683603748,1,683.603748,"Stranger","Stranger"
"540",1,7,60,24,21,"Nonmatching","Person1","StrangerTeam","Person1","Bottom","num_3",0.598485647,1,598.485647,"Person1","Self"
"541",1,7,61,24,21,"Nonmatching","Person1","Team","Person1","Top","num_3",0.583650847,1,583.650847,"Person1","Self"
"542",1,7,62,24,21,"Matching","StrangerTeam","StrangerTeam","StrangerTeam","Bottom","z",0.600251958,1,600.251958,"StrangerTeam","Group-Stranger"
"543",1,7,63,24,21,"Matching","Person1","Person1","Person1","Bottom","z",0.633514978,1,633.514978,"Person1","Self"
"544",1,7,64,24,21,"Matching","Person2","Person2","Person2","Top","num_3",0.583705329,0,583.705329,"Person2","Self"
"545",1,7,65,24,21,"Matching","Person2","Person2","Person2","Bottom","z",0.816927843,1,816.927843,"Person2","Self"
"546",1,7,66,24,21,"Matching","Team","Team","Team","Bottom","z",0.650260584,1,650.260584,"Team","Group-Self"
"547",1,7,67,24,21,"Matching","Person2","Person2","Person2","Top","z",0.717169971,1,717.169971,"Person2","Self"
"548",1,7,68,24,21,"Matching","Person2","Person2","Person2","Bottom","z",1.050247477,1,1050.247477,"Person2","Self"
"549",1,7,69,24,21,"Nonmatching","Person2","Team","Person2","Bottom","num_3",0.550254781,1,550.254781,"Person2","Self"
"550",1,7,70,24,21,"Matching","Stranger","Stranger","Stranger","Bottom","z",0.516916749,1,516.916749,"Stranger","Stranger"
"551",1,7,71,24,21,"Matching","StrangerTeam","StrangerTeam","StrangerTeam","Bottom","z",0.616943082,1,616.943082,"StrangerTeam","Group-Stranger"
"552",1,7,72,24,21,"Nonmatching","StrangerTeam","Person1","StrangerTeam","Top","num_3",0.783627317,1,783.627317,"StrangerTeam","Group-Stranger"
"553",1,7,73,24,21,"Nonmatching","Stranger","Team","Stranger","Top","num_3",0.583560439,1,583.560439,"Stranger","Stranger"
"554",1,7,74,24,21,"Nonmatching","Stranger","StrangerTeam","Stranger","Top","num_3",0.583603472,1,583.603472,"Stranger","Stranger"
"555",1,7,75,24,21,"Nonmatching","Team","StrangerTeam","Team","Bottom","num_3",0.850268243,1,850.268243,"Team","Group-Self"
"556",1,7,76,24,21,"Matching","Person2","Person2","Person2","Bottom","z",0.633574198,1,633.574198,"Person2","Self"
"557",1,7,77,24,21,"Matching","StrangerTeam","StrangerTeam","StrangerTeam","Bottom","z",0.73361119,1,733.61119,"StrangerTeam","Group-Stranger"
"558",1,7,78,24,21,"Nonmatching","Team","Person1","Team","Top","num_3",0.716874664,1,716.874664,"Team","Group-Self"
"559",1,7,79,24,21,"Nonmatching","Stranger","Person2","Stranger","Top","num_3",0.716906643,1,716.906643,"Stranger","Stranger"
"560",1,7,80,24,21,"Matching","Stranger","Stranger","Stranger","Bottom","z",0.633560774,1,633.560774,"Stranger","Stranger"
"561",1,8,1,24,21,"Matching","Person1","Person1","Person1","Bottom","z",0.615018459,1,615.018459,"Person1","Self"
"562",1,8,2,24,21,"Matching","StrangerTeam","StrangerTeam","StrangerTeam","Bottom","z",0.666929995,1,666.929995,"StrangerTeam","Group-Stranger"
"563",1,8,3,24,21,"Matching","Person2","Person2","Person2","Top","z",0.66700619,1,667.00619,"Person2","Self"
"564",1,8,4,24,21,"Matching","Person2","Person2","Person2","Top","z",0.583555701,1,583.555701,"Person2","Self"
"565",1,8,5,24,21,"Matching","Person1","Person1","Person1","Bottom","z",0.567073029,1,567.073029,"Person1","Self"
"566",1,8,6,24,21,"Nonmatching","StrangerTeam","Person1","StrangerTeam","Top","num_3",0.550255965,1,550.255965,"StrangerTeam","Group-Stranger"
"567",1,8,7,24,21,"Matching","Stranger","Stranger","Stranger","Bottom","z",0.56701381,1,567.01381,"Stranger","Stranger"
"568",1,8,8,24,21,"Nonmatching","Person2","Person1","Person2","Top","num_3",0.81720341,1,817.20341,"Person2","Self"
"569",1,8,9,24,21,"Matching","Stranger","Stranger","Stranger","Bottom","z",0.600274066,1,600.274066,"Stranger","Stranger"
"570",1,8,10,24,21,"Nonmatching","Stranger","Team","Stranger","Top","num_3",0.483602406,1,483.602406,"Stranger","Stranger"
"571",1,8,11,24,21,"Nonmatching","Person2","Person1","Person2","Bottom","num_3",0.683578876,1,683.578876,"Person2","Self"
"572",1,8,12,24,21,"Nonmatching","Team","Stranger","Team","Bottom","num_3",0.633753829,1,633.753829,"Team","Group-Self"
"573",1,8,13,24,21,"Matching","Team","Team","Team","Top","z",0.700313033,1,700.313033,"Team","Group-Self"
"574",1,8,14,24,21,"Matching","Stranger","Stranger","Stranger","Bottom","z",0.56690682,1,566.90682,"Stranger","Stranger"
"575",1,8,15,24,21,"Nonmatching","Stranger","Person1","Stranger","Top","num_3",0.58353833,1,583.53833,"Stranger","Stranger"
"576",1,8,16,24,21,"Matching","Person1","Person1","Person1","Bottom","z",0.550254386,1,550.254386,"Person1","Self"
"577",1,8,17,24,21,"Nonmatching","StrangerTeam","Person1","StrangerTeam","Bottom","num_3",0.59674026,1,596.74026,"StrangerTeam","Group-Stranger"
"578",1,8,18,24,21,"Nonmatching","Stranger","Person1","Stranger","Bottom","num_3",0.550279258,1,550.279258,"Stranger","Stranger"
"579",1,8,19,24,21,"Nonmatching","StrangerTeam","Stranger","StrangerTeam","Bottom","num_3",0.68360059,1,683.60059,"StrangerTeam","Group-Stranger"
"580",1,8,20,24,21,"Nonmatching","Person1","Stranger","Person1","Bottom","num_3",0.583602682,1,583.602682,"Person1","Self"
"581",1,8,21,24,21,"Matching","Person1","Person1","Person1","Top","z",0.800243036,1,800.243036,"Person1","Self"
"582",1,8,22,24,21,"Nonmatching","Person2","StrangerTeam","Person2","Top","num_3",1.000255432,1,1000.255432,"Person2","Self"
"583",1,8,23,24,21,"Nonmatching","Person2","Stranger","Person2","Bottom","num_3",0.583610183,1,583.610183,"Person2","Self"
"584",1,8,24,24,21,"Nonmatching","Person1","Stranger","Person1","Bottom","num_3",0.716901905,1,716.901905,"Person1","Self"
"585",1,8,25,24,21,"Nonmatching","Team","Stranger","Team","Bottom","num_3",0.70026092,1,700.26092,"Team","Group-Self"
"586",1,8,26,24,21,"Matching","Stranger","Stranger","Stranger","Bottom","z",0.61711916,1,617.11916,"Stranger","Stranger"
"587",1,8,27,24,21,"Matching","Team","Team","Team","Bottom","z",0.616952557,1,616.952557,"Team","Group-Self"
"588",1,8,28,24,21,"Matching","Team","Team","Team","Top","z",1.466891542,1,1466.891542,"Team","Group-Self"
"589",1,8,29,24,21,"Matching","Person2","Person2","Person2","Bottom","z",0.583600708,1,583.600708,"Person2","Self"
"590",1,8,30,24,21,"Matching","Stranger","Stranger","Stranger","Bottom","z",0.631891978,1,631.891978,"Stranger","Stranger"
"591",1,8,31,24,21,"Matching","Team","Team","Team","Bottom","z",0.650244003,1,650.244003,"Team","Group-Self"
"592",1,8,32,24,21,"Nonmatching","Stranger","Person2","Stranger","Bottom","num_3",0.616965191,1,616.965191,"Stranger","Stranger"
"593",1,8,33,24,21,"Nonmatching","Team","Person1","Team","Bottom","num_3",0.633546167,1,633.546167,"Team","Group-Self"
"594",1,8,34,24,21,"Nonmatching","Team","StrangerTeam","Team","Bottom","num_3",0.566921033,1,566.921033,"Team","Group-Self"
"595",1,8,35,24,21,"Nonmatching","Person2","Stranger","Person2","Bottom","num_3",0.600269724,1,600.269724,"Person2","Self"
"596",1,8,36,24,21,"Nonmatching","StrangerTeam","Stranger","StrangerTeam","Bottom","num_3",0.633556037,1,633.556037,"StrangerTeam","Group-Stranger"
"597",1,8,37,24,21,"Matching","StrangerTeam","StrangerTeam","StrangerTeam","Top","z",0.683578876,1,683.578876,"StrangerTeam","Group-Stranger"
"598",1,8,38,24,21,"Nonmatching","Person2","Team","Person2","Bottom","num_3",0.616937555,1,616.937555,"Person2","Self"
"599",1,8,39,24,21,"Matching","Team","Team","Team","Bottom","num_3",0.850218499,0,850.218499,"Team","Group-Self"
"600",1,8,40,24,21,"Matching","Person2","Person2","Person2","Bottom","z",0.566916295,1,566.916295,"Person2","Self"
"601",1,8,41,24,21,"Nonmatching","Person1","Person2","Person1","Bottom","num_3",0.616933212,1,616.933212,"Person1","Self"
"602",1,8,42,24,21,"Matching","Person2","Person2","Person2","Top","z",0.750216249,1,750.216249,"Person2","Self"
"603",1,8,43,24,21,"Matching","Person2","Person2","Person2","Bottom","z",0.566917085,1,566.917085,"Person2","Self"
"604",1,8,44,24,21,"Nonmatching","Team","Person1","Team","Top","num_3",0.733621454,1,733.621454,"Team","Group-Self"
"605",1,8,45,24,21,"Matching","StrangerTeam","StrangerTeam","StrangerTeam","Top","z",0.566862603,1,566.862603,"StrangerTeam","Group-Stranger"
"606",1,8,46,24,21,"Matching","StrangerTeam","StrangerTeam","StrangerTeam","Bottom","z",0.533574316,1,533.574316,"StrangerTeam","Group-Stranger"
"607",1,8,47,24,21,"Nonmatching","StrangerTeam","Team","StrangerTeam","Top","num_3",0.583619263,1,583.619263,"StrangerTeam","Group-Stranger"
"608",1,8,48,24,21,"Matching","Team","Team","Team","Bottom","z",0.616908735,1,616.908735,"Team","Group-Self"
"609",1,8,49,24,21,"Matching","Person2","Person2","Person2","Bottom","z",0.65024874,1,650.24874,"Person2","Self"
"610",1,8,50,24,21,"Nonmatching","Stranger","StrangerTeam","Stranger","Top","num_3",0.650222289,1,650.222289,"Stranger","Stranger"
"611",1,8,51,24,21,"Nonmatching","StrangerTeam","Person2","StrangerTeam","Top","num_3",0.650278745,1,650.278745,"StrangerTeam","Group-Stranger"
"612",1,8,52,24,21,"Matching","Person1","Person1","Person1","Top","z",0.56693643,1,566.93643,"Person1","Self"
"613",1,8,53,24,21,"Nonmatching","Stranger","StrangerTeam","Stranger","Bottom","num_3",0.5336059,1,533.6059,"Stranger","Stranger"
"614",1,8,54,24,21,"Matching","Person1","Person1","Person1","Top","z",0.533724733,1,533.724733,"Person1","Self"
"615",1,8,55,24,21,"Nonmatching","Person1","StrangerTeam","Person1","Bottom","num_3",0.700240785,1,700.240785,"Person1","Self"
"616",1,8,56,24,21,"Nonmatching","Person1","StrangerTeam","Person1","Top","num_3",0.583622422,1,583.622422,"Person1","Self"
"617",1,8,57,24,21,"Matching","StrangerTeam","StrangerTeam","StrangerTeam","Top","z",0.700209202,1,700.209202,"StrangerTeam","Group-Stranger"
"618",1,8,58,24,21,"Nonmatching","Person2","Team","Person2","Top","num_3",0.566852733,1,566.852733,"Person2","Self"
"619",1,8,59,24,21,"Nonmatching","Person1","Person2","Person1","Top","num_3",0.783560992,1,783.560992,"Person1","Self"
"620",1,8,60,24,21,"Matching","Stranger","Stranger","Stranger","Bottom","z",0.5151761,1,515.1761,"Stranger","Stranger"
"621",1,8,61,24,21,"Nonmatching","Team","StrangerTeam","Team","Top","num_3",0.666980923,1,666.980923,"Team","Group-Self"
"622",1,8,62,24,21,"Matching","Person1","Person1","Person1","Bottom","z",0.516891877,1,516.891877,"Person1","Self"
"623",1,8,63,24,21,"Matching","Team","Team","Team","Top","num_3",0.516930567,0,516.930567,"Team","Group-Self"
"624",1,8,64,24,21,"Matching","Team","Team","Team","Top","z",0.833573171,1,833.573171,"Team","Group-Self"
"625",1,8,65,24,21,"Matching","Stranger","Stranger","Stranger","Bottom","z",0.766940536,1,766.940536,"Stranger","Stranger"
"626",1,8,66,24,21,"Nonmatching","Person1","Team","Person1","Bottom","num_3",0.733597767,1,733.597767,"Person1","Self"
"627",1,8,67,24,21,"Nonmatching","Team","Person2","Team","Bottom","num_3",0.767210575,1,767.210575,"Team","Group-Self"
"628",1,8,68,24,21,"Nonmatching","Stranger","Team","Stranger","Bottom","z",0.5003792,0,500.3792,"Stranger","Stranger"
"629",1,8,69,24,21,"Matching","Person1","Person1","Person1","Top","z",0.533572342,1,533.572342,"Person1","Self"
"630",1,8,70,24,21,"Nonmatching","Stranger","Person2","Stranger","Top","num_3",0.500233521,1,500.233521,"Stranger","Stranger"
"631",1,8,71,24,21,"Nonmatching","Team","Person2","Team","Top","num_3",0.783577968,1,783.577968,"Team","Group-Self"
"632",1,8,72,24,21,"Nonmatching","StrangerTeam","Person2","StrangerTeam","Bottom","num_3",0.800305808,1,800.305808,"StrangerTeam","Group-Stranger"
"633",1,8,73,24,21,"Matching","Stranger","Stranger","Stranger","Bottom","z",0.533579448,1,533.579448,"Stranger","Stranger"
"634",1,8,74,24,21,"Nonmatching","StrangerTeam","Team","StrangerTeam","Bottom","num_3",0.800222111,1,800.222111,"StrangerTeam","Group-Stranger"
"635",1,8,75,24,21,"Matching","Person2","Person2","Person2","Top","z",0.766973304,1,766.973304,"Person2","Self"
"636",1,8,76,24,21,"Matching","StrangerTeam","StrangerTeam","StrangerTeam","Bottom","num_3",0.650313487,0,650.313487,"StrangerTeam","Group-Stranger"
"637",1,8,77,24,21,"Nonmatching","Person1","Team","Person1","Top","num_3",0.833573171,1,833.573171,"Person1","Self"
"638",1,8,78,24,21,"Matching","StrangerTeam","StrangerTeam","StrangerTeam","Bottom","z",0.533588529,1,533.588529,"StrangerTeam","Group-Stranger"
"639",1,8,79,24,21,"Matching","StrangerTeam","StrangerTeam","StrangerTeam","Top","z",0.516940832,1,516.940832,"StrangerTeam","Group-Stranger"
"640",1,8,80,24,21,"Nonmatching","Person2","StrangerTeam","Person2","Bottom","num_3",0.650251504,1,650.251504,"Person2","Self"
"641",2,1,1,24,23,"Nonmatching","Team","StrangerTeam","Team","Bottom","num_3",0.816895075,1,816.895075,"Team","Group-Self"
"642",2,1,2,24,23,"Matching","Person2","Person2","Person2","Top","z",1.50016917,1,1500.16917,"Person2","Self"
"643",2,1,3,24,23,"Nonmatching","Team","Person1","Team","Bottom","num_3",0.733532231,1,733.532231,"Team","Group-Self"
"644",2,1,4,24,23,"Nonmatching","Stranger","Person2","Stranger","Bottom","num_3",1.016836014,1,1016.836014,"Stranger","Stranger"
"645",2,1,5,24,23,"Matching","StrangerTeam","StrangerTeam","StrangerTeam","Bottom","num_3",0.650206103,0,650.206103,"StrangerTeam","Group-Stranger"
"646",2,1,6,24,23,"Matching","Person2","Person2","Person2","Bottom","z",1.517074667,1,1517.074667,"Person2","Self"
"647",2,1,7,24,23,"Matching","StrangerTeam","StrangerTeam","StrangerTeam","Top","num_3",0.683559926,0,683.559926,"StrangerTeam","Group-Stranger"
"648",2,1,8,24,23,"Nonmatching","Person1","StrangerTeam","Person1","Bottom","num_3",0.80018579,1,800.18579,"Person1","Self"
"649",2,1,9,24,23,"Nonmatching","Person2","Team","Person2","Bottom","num_3",0.750182691,1,750.182691,"Person2","Self"
"650",2,1,10,24,23,"Nonmatching","Stranger","Person2","Stranger","Top","num_3",1.033522795,1,1033.522795,"Stranger","Stranger"
"651",2,1,11,24,23,"Nonmatching","Team","Person2","Team","Top","num_3",0.716868742,1,716.868742,"Team","Group-Self"
"652",2,1,12,24,23,"Matching","Stranger","Stranger","Stranger","Bottom","z",0.783533751,1,783.533751,"Stranger","Stranger"
"653",2,1,13,24,23,"Nonmatching","Team","Person2","Team","Bottom","None",NA,3,NA,"Team","Group-Self"
"654",2,1,14,24,23,"Matching","Stranger","Stranger","Stranger","Bottom","z",1.016839567,1,1016.839567,"Stranger","Stranger"
"655",2,1,15,24,23,"Matching","Person1","Person1","Person1","Bottom","z",0.833495397,1,833.495397,"Person1","Self"
"656",2,1,16,24,23,"Matching","Stranger","Stranger","Stranger","Bottom","z",0.983524039,1,983.524039,"Stranger","Stranger"
"657",2,1,17,24,23,"Matching","Person2","Person2","Person2","Top","z",1.233505582,1,1233.505582,"Person2","Self"
"658",2,1,18,24,23,"Nonmatching","StrangerTeam","Person1","StrangerTeam","Bottom","num_3",0.766856839,1,766.856839,"StrangerTeam","Group-Stranger"
"659",2,1,19,24,23,"Matching","Person1","Person1","Person1","Top","z",0.766862366,1,766.862366,"Person1","Self"
"660",2,1,20,24,23,"Nonmatching","Person2","Person1","Person2","Bottom","num_3",0.850193232,1,850.193232,"Person2","Self"
"661",2,1,21,24,23,"Matching","StrangerTeam","StrangerTeam","StrangerTeam","Bottom","num_3",0.800196055,0,800.196055,"StrangerTeam","Group-Stranger"
"662",2,1,22,24,23,"Matching","StrangerTeam","StrangerTeam","StrangerTeam","Bottom","z",0.750200062,1,750.200062,"StrangerTeam","Group-Stranger"
"663",2,1,23,24,23,"Matching","Person1","Person1","Person1","Top","z",0.700207228,1,700.207228,"Person1","Self"
"664",2,1,24,24,23,"Matching","StrangerTeam","StrangerTeam","StrangerTeam","Top","z",1.016841936,1,1016.841936,"StrangerTeam","Group-Stranger"
"665",2,1,25,24,23,"Nonmatching","StrangerTeam","Person2","StrangerTeam","Bottom","z",0.900181329,0,900.181329,"StrangerTeam","Group-Stranger"
"666",2,1,26,24,23,"Nonmatching","StrangerTeam","Team","StrangerTeam","Bottom","num_3",1.398265194,1,1398.265194,"StrangerTeam","Group-Stranger"
"667",2,1,27,24,23,"Nonmatching","Person1","Stranger","Person1","Bottom","num_3",1.000180421,1,1000.180421,"Person1","Self"
"668",2,1,28,24,23,"Nonmatching","Person1","Team","Person1","Top","num_3",0.60022827,1,600.22827,"Person1","Self"
"669",2,1,29,24,23,"Nonmatching","Person1","Team","Person1","Bottom","num_3",0.833558169,1,833.558169,"Person1","Self"
"670",2,1,30,24,23,"Nonmatching","Person2","Team","Person2","Top","num_3",0.550211748,1,550.211748,"Person2","Self"
"671",2,1,31,24,23,"Nonmatching","StrangerTeam","Person1","StrangerTeam","Top","num_3",0.850189679,1,850.189679,"StrangerTeam","Group-Stranger"
"672",2,1,32,24,23,"Nonmatching","StrangerTeam","Person2","StrangerTeam","Top","z",0.866921072,0,866.921072,"StrangerTeam","Group-Stranger"
"673",2,1,33,24,23,"Matching","Person2","Person2","Person2","Top","num_3",0.733537363,0,733.537363,"Person2","Self"
"674",2,1,34,24,23,"Nonmatching","Person2","Stranger","Person2","Bottom","z",0.833533297,0,833.533297,"Person2","Self"
"675",2,1,35,24,23,"Matching","Person1","Person1","Person1","Bottom","z",0.933501595,1,933.501595,"Person1","Self"
"676",2,1,36,24,23,"Nonmatching","StrangerTeam","Stranger","StrangerTeam","Bottom","num_3",1.100179118,1,1100.179118,"StrangerTeam","Group-Stranger"
"677",2,1,37,24,23,"Matching","Stranger","Stranger","Stranger","Bottom","z",0.86685751,1,866.85751,"Stranger","Stranger"
"678",2,1,38,24,23,"Nonmatching","Person1","Person2","Person1","Bottom","num_3",0.816899813,1,816.899813,"Person1","Self"
"679",2,1,39,24,23,"Nonmatching","Person1","Person2","Person1","Top","num_3",0.966838442,1,966.838442,"Person1","Self"
"680",2,1,40,24,23,"Matching","Stranger","Stranger","Stranger","Bottom","z",0.816858359,1,816.858359,"Stranger","Stranger"
"681",2,1,41,24,23,"Matching","Person2","Person2","Person2","Bottom","z",0.916851529,1,916.851529,"Person2","Self"
"682",2,1,42,24,23,"Nonmatching","Stranger","Person1","Stranger","Top","z",0.566869315,0,566.869315,"Stranger","Stranger"
"683",2,1,43,24,23,"Matching","Team","Team","Team","Top","z",1.516872532,1,1516.872532,"Team","Group-Self"
"684",2,1,44,24,23,"Matching","StrangerTeam","StrangerTeam","StrangerTeam","Top","num_3",1.066893595,0,1066.893595,"StrangerTeam","Group-Stranger"
"685",2,1,45,24,23,"Matching","Person1","Person1","Person1","Top","num_3",1.000180816,0,1000.180816,"Person1","Self"
"686",2,1,46,24,23,"Matching","Person1","Person1","Person1","Bottom","z",0.650196233,1,650.196233,"Person1","Self"
"687",2,1,47,24,23,"Nonmatching","Team","Stranger","Team","Bottom","z",0.916858241,0,916.858241,"Team","Group-Self"
"688",2,1,48,24,23,"Nonmatching","StrangerTeam","Stranger","StrangerTeam","Bottom","num_3",0.583540699,1,583.540699,"StrangerTeam","Group-Stranger"
"689",2,1,49,24,23,"Nonmatching","Person2","Stranger","Person2","Bottom","num_3",0.883332682,1,883.332682,"Person2","Self"
"690",2,1,50,24,23,"Nonmatching","Stranger","StrangerTeam","Stranger","Top","num_3",0.966856997,1,966.856997,"Stranger","Stranger"
"691",2,1,51,24,23,"Nonmatching","Person1","Stranger","Person1","Bottom","num_3",0.666870381,1,666.870381,"Person1","Self"
"692",2,1,52,24,23,"Nonmatching","Person2","Person1","Person2","Top","num_3",0.633542614,1,633.542614,"Person2","Self"
"693",2,1,53,24,23,"Nonmatching","Person1","StrangerTeam","Person1","Top","num_3",0.600206951,1,600.206951,"Person1","Self"
"694",2,1,54,24,23,"Matching","Team","Team","Team","Top","z",0.716864005,1,716.864005,"Team","Group-Self"
"695",2,1,55,24,23,"Nonmatching","StrangerTeam","Team","StrangerTeam","Top","num_3",0.666873539,1,666.873539,"StrangerTeam","Group-Stranger"
"696",2,1,56,24,23,"Matching","Team","Team","Team","Top","z",0.616866492,1,616.866492,"Team","Group-Self"
"697",2,1,57,24,23,"Matching","Person1","Person1","Person1","Top","z",0.633557221,1,633.557221,"Person1","Self"
"698",2,1,58,24,23,"Nonmatching","Stranger","StrangerTeam","Stranger","Bottom","num_3",0.80019566,1,800.19566,"Stranger","Stranger"
"699",2,1,59,24,23,"Matching","StrangerTeam","StrangerTeam","StrangerTeam","Top","None",NA,3,NA,"StrangerTeam","Group-Stranger"
"700",2,1,60,24,23,"Matching","Person2","Person2","Person2","Top","num_3",0.833561327,0,833.561327,"Person2","Self"
"701",2,1,61,24,23,"Matching","Team","Team","Team","Bottom","z",1.300122031,1,1300.122031,"Team","Group-Self"
"702",2,1,62,24,23,"Matching","Stranger","Stranger","Stranger","Bottom","z",0.883552977,1,883.552977,"Stranger","Stranger"
"703",2,1,63,24,23,"Matching","Person2","Person2","Person2","Bottom","num_3",0.900187646,0,900.187646,"Person2","Self"
"704",2,1,64,24,23,"Matching","Team","Team","Team","Bottom","z",0.516892667,1,516.892667,"Team","Group-Self"
"705",2,1,65,24,23,"Matching","Person1","Person1","Person1","Bottom","z",0.550214512,1,550.214512,"Person1","Self"
"706",2,1,66,24,23,"Nonmatching","Stranger","Team","Stranger","Bottom","num_3",0.850212972,1,850.212972,"Stranger","Stranger"
"707",2,1,67,24,23,"Matching","Stranger","Stranger","Stranger","Bottom","z",1.183511169,1,1183.511169,"Stranger","Stranger"
"708",2,1,68,24,23,"Nonmatching","Person2","StrangerTeam","Person2","Top","num_3",1.283481441,1,1283.481441,"Person2","Self"
"709",2,1,69,24,23,"Matching","Team","Team","Team","Bottom","z",0.466892726,1,466.892726,"Team","Group-Self"
"710",2,1,70,24,23,"Matching","StrangerTeam","StrangerTeam","StrangerTeam","Bottom","None",NA,3,NA,"StrangerTeam","Group-Stranger"
"711",2,1,71,24,23,"Nonmatching","Team","Person1","Team","Top","z",0.883539554,0,883.539554,"Team","Group-Self"
"712",2,1,72,24,23,"Matching","Team","Team","Team","Bottom","z",0.71686282,1,716.86282,"Team","Group-Self"
"713",2,1,73,24,23,"Nonmatching","Stranger","Team","Stranger","Top","num_3",0.583544252,1,583.544252,"Stranger","Stranger"
"714",2,1,74,24,23,"Nonmatching","Team","Stranger","Team","Bottom","z",0.75020401,0,750.20401,"Team","Group-Self"
"715",2,1,75,24,23,"Matching","Team","Team","Team","Top","None",NA,3,NA,"Team","Group-Self"
"716",2,1,76,24,23,"Nonmatching","Person2","StrangerTeam","Person2","Bottom","num_3",0.65023058,1,650.23058,"Person2","Self"
"717",2,1,77,24,23,"Matching","Person2","Person2","Person2","Bottom","z",1.166841758,1,1166.841758,"Person2","Self"
"718",2,1,78,24,23,"Nonmatching","Stranger","Person1","Stranger","Bottom","num_3",0.550199509,1,550.199509,"Stranger","Stranger"
"719",2,1,79,24,23,"Nonmatching","Team","StrangerTeam","Team","Top","num_3",0.716865979,1,716.865979,"Team","Group-Self"
"720",2,1,80,24,23,"Matching","Stranger","Stranger","Stranger","Bottom","num_3",0.566866946,0,566.866946,"Stranger","Stranger"
"721",2,2,1,24,23,"Matching","Person1","Person1","Person1","Top","z",0.633519321,1,633.519321,"Person1","Self"
"722",2,2,2,24,23,"Matching","Person2","Person2","Person2","Bottom","z",0.700198937,1,700.198937,"Person2","Self"
"723",2,2,3,24,23,"Matching","StrangerTeam","StrangerTeam","StrangerTeam","Bottom","z",1.333504279,1,1333.504279,"StrangerTeam","Group-Stranger"
"724",2,2,4,24,23,"Nonmatching","Stranger","Person2","Stranger","Top","num_3",0.916834158,1,916.834158,"Stranger","Stranger"
"725",2,2,5,24,23,"Nonmatching","Team","Person1","Team","Top","z",0.400217058,0,400.217058,"Team","Group-Self"
"726",2,2,6,24,23,"Nonmatching","Stranger","Team","Stranger","Top","num_3",0.933622797,1,933.622797,"Stranger","Stranger"
"727",2,2,7,24,23,"Matching","StrangerTeam","StrangerTeam","StrangerTeam","Top","z",0.883539949,1,883.539949,"StrangerTeam","Group-Stranger"
"728",2,2,8,24,23,"Nonmatching","StrangerTeam","Stranger","StrangerTeam","Bottom","num_3",0.633530375,1,633.530375,"StrangerTeam","Group-Stranger"
"729",2,2,9,24,23,"Nonmatching","Person2","StrangerTeam","Person2","Top","z",0.816861912,0,816.861912,"Person2","Self"
"730",2,2,10,24,23,"Nonmatching","StrangerTeam","Team","StrangerTeam","Top","num_3",0.650212024,1,650.212024,"StrangerTeam","Group-Stranger"
"731",2,2,11,24,23,"Matching","Person2","Person2","Person2","Bottom","z",0.816870598,1,816.870598,"Person2","Self"
"732",2,2,12,24,23,"Matching","StrangerTeam","StrangerTeam","StrangerTeam","Bottom","num_3",0.666869591,0,666.869591,"StrangerTeam","Group-Stranger"
"733",2,2,13,24,23,"Matching","Person1","Person1","Person1","Top","z",0.783540857,1,783.540857,"Person1","Self"
"734",2,2,14,24,23,"Nonmatching","Person1","Person2","Person1","Bottom","num_3",0.966848312,1,966.848312,"Person1","Self"
"735",2,2,15,24,23,"Matching","Person2","Person2","Person2","Top","z",1.135146072,1,1135.146072,"Person2","Self"
"736",2,2,16,24,23,"Nonmatching","Team","Stranger","Team","Bottom","num_3",0.700189067,1,700.189067,"Team","Group-Self"
"737",2,2,17,24,23,"Matching","Person2","Person2","Person2","Top","z",0.966862524,1,966.862524,"Person2","Self"
"738",2,2,18,24,23,"Nonmatching","Person2","Team","Person2","Top","num_3",0.81685678,1,816.85678,"Person2","Self"
"739",2,2,19,24,23,"Matching","Team","Team","Team","Top","z",0.666856168,1,666.856168,"Team","Group-Self"
"740",2,2,20,24,23,"Nonmatching","Person2","Stranger","Person2","Bottom","num_3",1.066842666,1,1066.842666,"Person2","Self"
"741",2,2,21,24,23,"Nonmatching","Team","StrangerTeam","Team","Top","num_3",0.883528105,1,883.528105,"Team","Group-Self"
"742",2,2,22,24,23,"Matching","StrangerTeam","StrangerTeam","StrangerTeam","Top","z",1.166847285,1,1166.847285,"StrangerTeam","Group-Stranger"
"743",2,2,23,24,23,"Nonmatching","StrangerTeam","Person2","StrangerTeam","Bottom","num_3",0.833528559,1,833.528559,"StrangerTeam","Group-Stranger"
"744",2,2,24,24,23,"Matching","Stranger","Stranger","Stranger","Bottom","z",0.750189008,1,750.189008,"Stranger","Stranger"
"745",2,2,25,24,23,"Matching","Team","Team","Team","Bottom","z",0.566871683,1,566.871683,"Team","Group-Self"
"746",2,2,26,24,23,"Nonmatching","Team","StrangerTeam","Team","Bottom","num_3",0.683533869,1,683.533869,"Team","Group-Self"
"747",2,2,27,24,23,"Nonmatching","StrangerTeam","Person1","StrangerTeam","Top","num_3",0.950285101,1,950.285101,"StrangerTeam","Group-Stranger"
"748",2,2,28,24,23,"Nonmatching","Team","Stranger","Team","Bottom","num_3",0.633547746,1,633.547746,"Team","Group-Self"
"749",2,2,29,24,23,"Matching","Stranger","Stranger","Stranger","Bottom","z",0.633537876,1,633.537876,"Stranger","Stranger"
"750",2,2,30,24,23,"Matching","Stranger","Stranger","Stranger","Bottom","z",0.600179711,1,600.179711,"Stranger","Stranger"
"751",2,2,31,24,23,"Matching","Team","Team","Team","Top","z",0.633532744,1,633.532744,"Team","Group-Self"
"752",2,2,32,24,23,"Nonmatching","Stranger","StrangerTeam","Stranger","Top","num_3",0.716884929,1,716.884929,"Stranger","Stranger"
"753",2,2,33,24,23,"Matching","Stranger","Stranger","Stranger","Bottom","z",0.733558287,1,733.558287,"Stranger","Stranger"
"754",2,2,34,24,23,"Matching","Team","Team","Team","Bottom","num_3",0.550355848,0,550.355848,"Team","Group-Self"
"755",2,2,35,24,23,"Matching","Team","Team","Team","Top","z",0.883513893,1,883.513893,"Team","Group-Self"
"756",2,2,36,24,23,"Matching","Stranger","Stranger","Stranger","Bottom","z",0.900190015,1,900.190015,"Stranger","Stranger"
"757",2,2,37,24,23,"Nonmatching","Person1","StrangerTeam","Person1","Top","num_3",0.733534994,1,733.534994,"Person1","Self"
"758",2,2,38,24,23,"Matching","Person2","Person2","Person2","Bottom","z",0.81688639,1,816.88639,"Person2","Self"
"759",2,2,39,24,23,"Nonmatching","Stranger","Person1","Stranger","Bottom","num_3",0.750193351,1,750.193351,"Stranger","Stranger"
"760",2,2,40,24,23,"Matching","Stranger","Stranger","Stranger","Bottom","z",0.683529526,1,683.529526,"Stranger","Stranger"
"761",2,2,41,24,23,"Matching","StrangerTeam","StrangerTeam","StrangerTeam","Top","z",1.400390768,1,1400.390768,"StrangerTeam","Group-Stranger"
"762",2,2,42,24,23,"Nonmatching","Stranger","Person2","Stranger","Bottom","num_3",0.735191947,1,735.191947,"Stranger","Stranger"
"763",2,2,43,24,23,"Nonmatching","Stranger","Person1","Stranger","Top","num_3",0.650193469,1,650.193469,"Stranger","Stranger"
"764",2,2,44,24,23,"Matching","Person1","Person1","Person1","Bottom","num_3",0.566874842,0,566.874842,"Person1","Self"
"765",2,2,45,24,23,"Nonmatching","Team","Person2","Team","Top","num_3",0.866876066,1,866.876066,"Team","Group-Self"
"766",2,2,46,24,23,"Matching","Person1","Person1","Person1","Top","z",0.800216979,1,800.216979,"Person1","Self"
"767",2,2,47,24,23,"Matching","Person2","Person2","Person2","Top","z",0.716860057,1,716.860057,"Person2","Self"
"768",2,2,48,24,23,"Nonmatching","Person1","StrangerTeam","Person1","Bottom","num_3",0.633552879,1,633.552879,"Person1","Self"
"769",2,2,49,24,23,"Nonmatching","StrangerTeam","Stranger","StrangerTeam","Bottom","num_3",0.8668583,1,866.8583,"StrangerTeam","Group-Stranger"
"770",2,2,50,24,23,"Nonmatching","StrangerTeam","Person1","StrangerTeam","Bottom","num_3",0.750202826,1,750.202826,"StrangerTeam","Group-Stranger"
"771",2,2,51,24,23,"Nonmatching","StrangerTeam","Person2","StrangerTeam","Top","z",0.600207741,0,600.207741,"StrangerTeam","Group-Stranger"
"772",2,2,52,24,23,"Nonmatching","Person2","StrangerTeam","Person2","Bottom","num_3",0.566872868,1,566.872868,"Person2","Self"
"773",2,2,53,24,23,"Nonmatching","Person1","Team","Person1","Bottom","num_3",0.650216762,1,650.216762,"Person1","Self"
"774",2,2,54,24,23,"Matching","Person1","Person1","Person1","Bottom","z",0.916866137,1,916.866137,"Person1","Self"
"775",2,2,55,24,23,"Nonmatching","Person1","Stranger","Person1","Bottom","num_3",0.58355807,1,583.55807,"Person1","Self"
"776",2,2,56,24,23,"Nonmatching","Team","Person1","Team","Bottom","num_3",0.616875177,1,616.875177,"Team","Group-Self"
"777",2,2,57,24,23,"Nonmatching","Stranger","Team","Stranger","Bottom","num_3",0.566877211,1,566.877211,"Stranger","Stranger"
"778",2,2,58,24,23,"Nonmatching","Person1","Stranger","Person1","Bottom","z",0.633533928,0,633.533928,"Person1","Self"
"779",2,2,59,24,23,"Nonmatching","Person1","Team","Person1","Top","num_3",0.783528618,1,783.528618,"Person1","Self"
"780",2,2,60,24,23,"Matching","Person2","Person2","Person2","Top","z",1.000185948,1,1000.185948,"Person2","Self"
"781",2,2,61,24,23,"Matching","Person1","Person1","Person1","Bottom","num_3",0.533571947,0,533.571947,"Person1","Self"
"782",2,2,62,24,23,"Nonmatching","Person1","Person2","Person1","Top","None",NA,3,NA,"Person1","Self"
"783",2,2,63,24,23,"Matching","Person1","Person1","Person1","Bottom","z",0.66687196,1,666.87196,"Person1","Self"
"784",2,2,64,24,23,"Matching","StrangerTeam","StrangerTeam","StrangerTeam","Bottom","z",1.133510833,1,1133.510833,"StrangerTeam","Group-Stranger"
"785",2,2,65,24,23,"Nonmatching","Team","Person2","Team","Bottom","num_3",0.716871901,1,716.871901,"Team","Group-Self"
"786",2,2,66,24,23,"Nonmatching","Person2","Person1","Person2","Top","num_3",0.750235594,1,750.235594,"Person2","Self"
"787",2,2,67,24,23,"Matching","Team","Team","Team","Bottom","z",0.850196391,1,850.196391,"Team","Group-Self"
"788",2,2,68,24,23,"Matching","StrangerTeam","StrangerTeam","StrangerTeam","Top","z",1.183761073,1,1183.761073,"StrangerTeam","Group-Stranger"
"789",2,2,69,24,23,"Nonmatching","StrangerTeam","Team","StrangerTeam","Bottom","num_3",0.533539179,1,533.539179,"StrangerTeam","Group-Stranger"
"790",2,2,70,24,23,"Matching","Team","Team","Team","Bottom","z",0.700215124,1,700.215124,"Team","Group-Self"
"791",2,2,71,24,23,"Nonmatching","Person2","Person1","Person2","Bottom","num_3",0.933509491,1,933.509491,"Person2","Self"
"792",2,2,72,24,23,"Matching","Person1","Person1","Person1","Top","z",0.533541153,1,533.541153,"Person1","Self"
"793",2,2,73,24,23,"Matching","StrangerTeam","StrangerTeam","StrangerTeam","Bottom","None",NA,3,NA,"StrangerTeam","Group-Stranger"
"794",2,2,74,24,23,"Matching","Person2","Person2","Person2","Bottom","z",0.700206043,1,700.206043,"Person2","Self"
"795",2,2,75,24,23,"Matching","Stranger","Stranger","Stranger","Bottom","z",0.533547075,1,533.547075,"Stranger","Stranger"
"796",2,2,76,24,23,"Matching","Stranger","Stranger","Stranger","Bottom","num_3",0.550206221,0,550.206221,"Stranger","Stranger"
"797",2,2,77,24,23,"Nonmatching","Person2","Stranger","Person2","Bottom","num_3",0.650221894,1,650.221894,"Person2","Self"
"798",2,2,78,24,23,"Matching","Team","Team","Team","Top","z",0.516879244,1,516.879244,"Team","Group-Self"
"799",2,2,79,24,23,"Nonmatching","Person2","Team","Person2","Bottom","num_3",0.900190015,1,900.190015,"Person2","Self"
"800",2,2,80,24,23,"Nonmatching","Stranger","StrangerTeam","Stranger","Bottom","z",0.6834936,0,683.4936,"Stranger","Stranger"
"801",2,3,1,24,23,"Nonmatching","Stranger","StrangerTeam","Stranger","Bottom","num_3",0.63353077,1,633.53077,"Stranger","Stranger"
"802",2,3,2,24,23,"Matching","Person2","Person2","Person2","Top","z",0.700200121,1,700.200121,"Person2","Self"
"803",2,3,3,24,23,"Matching","StrangerTeam","StrangerTeam","StrangerTeam","Top","num_3",0.533515097,0,533.515097,"StrangerTeam","Group-Stranger"
"804",2,3,4,24,23,"Nonmatching","Person1","StrangerTeam","Person1","Top","z",0.416880941,0,416.880941,"Person1","Self"
"805",2,3,5,24,23,"Matching","Stranger","Stranger","Stranger","Bottom","z",0.616895707,1,616.895707,"Stranger","Stranger"
"806",2,3,6,24,23,"Nonmatching","Person1","StrangerTeam","Person1","Bottom","num_3",0.550203457,1,550.203457,"Person1","Self"
"807",2,3,7,24,23,"Matching","Team","Team","Team","Bottom","z",0.533541943,1,533.541943,"Team","Group-Self"
"808",2,3,8,24,23,"Nonmatching","Team","Stranger","Team","Bottom","num_3",0.700185119,1,700.185119,"Team","Group-Self"
"809",2,3,9,24,23,"Nonmatching","Person1","Stranger","Person1","Bottom","num_3",0.566885501,1,566.885501,"Person1","Self"
"810",2,3,10,24,23,"Matching","Team","Team","Team","Top","z",0.600218005,1,600.218005,"Team","Group-Self"
