"Subject","Block","Trial","Shape","Label","Matching","Label_Identity","Origin_Identity","English_Identity","Standarlized_Identity","Response","RT_ms","RT_sec","ACC"
2,1,1,"T.bmp","Vreemde","Matching","Stranger","Stranger","Stranger","Stranger","n",791,0.791,0
2,1,2,"S.bmp","Ikzelf","Matching","Self","Self","Self","Self","m",1009,1.009,1
2,1,3,"C.bmp","Bekende","Matching","Friend","Friend","Friend","Close","m",876,0.876,1
2,1,4,"S.bmp","Bekende","Nonmatching","Friend","Self","Self","Self","n",1046,1.046,1
2,1,5,"T.bmp","Ikzelf","Nonmatching","Self","Stranger","Stranger","Stranger","n",912,0.912,1
2,1,6,"T.bmp","Bekende","Nonmatching","Friend","Stranger","Stranger","Stranger","n",1434,1.434,1
2,1,7,"T.bmp","Vreemde","Matching","Stranger","Stranger","Stranger","Stranger","m",820,0.82,1
2,1,8,"C.bmp","Bekende","Matching","Friend","Friend","Friend","Close","m",958,0.958,1
2,1,9,"S.bmp","Vreemde","Nonmatching","Stranger","Self","Self","Self","n",872,0.872,1
2,1,10,"C.bmp","Ikzelf","Nonmatching","Self","Friend","Friend","Close","n",914,0.914,1
2,1,11,"S.bmp","Ikzelf","Matching","Self","Self","Self","Self","m",1229,1.229,1
2,1,12,"C.bmp","Vreemde","Nonmatching","Stranger","Friend","Friend","Close","n",1079,1.079,1
2,1,13,"S.bmp","Vreemde","Nonmatching","Stranger","Self","Self","Self","n",1184,1.184,1
2,1,14,"S.bmp","Ikzelf","Matching","Self","Self","Self","Self","m",810,0.81,1
2,1,15,"T.bmp","Vreemde","Matching","Stranger","Stranger","Stranger","Stranger","n",1044,1.044,0
2,1,16,"C.bmp","Vreemde","Nonmatching","Stranger","Friend","Friend","Close","n",1214,1.214,1
2,1,17,"C.bmp","Bekende","Matching","Friend","Friend","Friend","Close","m",968,0.968,1
2,1,18,"T.bmp","Vreemde","Matching","Stranger","Stranger","Stranger","Stranger","m",946,0.946,1
2,1,19,"T.bmp","Ikzelf","Nonmatching","Self","Stranger","Stranger","Stranger","n",861,0.861,1
2,1,20,"T.bmp","Bekende","Nonmatching","Friend","Stranger","Stranger","Stranger","n",1399,1.399,1
2,1,21,"C.bmp","Ikzelf","Nonmatching","Self","Friend","Friend","Close","n",1089,1.089,1
2,1,22,"C.bmp","Bekende","Matching","Friend","Friend","Friend","Close","m",843,0.843,1
2,1,23,"S.bmp","Ikzelf","Matching","Self","Self","Self","Self","m",933,0.933,1
2,1,24,"S.bmp","Bekende","Nonmatching","Friend","Self","Self","Self","n",910,0.91,1
2,1,25,"T.bmp","Vreemde","Matching","Stranger","Stranger","Stranger","Stranger","m",1432,1.432,1
2,1,26,"S.bmp","Vreemde","Nonmatching","Stranger","Self","Self","Self","n",930,0.93,1
2,1,27,"C.bmp","Bekende","Matching","Friend","Friend","Friend","Close","m",829,0.829,1
2,1,28,"T.bmp","Ikzelf","Nonmatching","Self","Stranger","Stranger","Stranger","n",775,0.775,1
2,1,29,"S.bmp","Bekende","Nonmatching","Friend","Self","Self","Self","m",1041,1.041,0
2,1,30,"C.bmp","Bekende","Matching","Friend","Friend","Friend","Close","m",1243,1.243,1
2,1,31,"S.bmp","Ikzelf","Matching","Self","Self","Self","Self","m",853,0.853,1
2,1,32,"T.bmp","Vreemde","Matching","Stranger","Stranger","Stranger","Stranger","m",927,0.927,1
2,1,33,"C.bmp","Ikzelf","Nonmatching","Self","Friend","Friend","Close","n",1289,1.289,1
2,1,34,"T.bmp","Bekende","Nonmatching","Friend","Stranger","Stranger","Stranger","n",1011,1.011,1
2,1,35,"C.bmp","Vreemde","Nonmatching","Stranger","Friend","Friend","Close","m",878,0.878,0
2,1,36,"S.bmp","Ikzelf","Matching","Self","Self","Self","Self","m",711,0.711,1
2,1,37,"T.bmp","Bekende","Nonmatching","Friend","Stranger","Stranger","Stranger","n",1089,1.089,1
2,1,38,"T.bmp","Ikzelf","Nonmatching","Self","Stranger","Stranger","Stranger","n",923,0.923,1
2,1,39,"S.bmp","Ikzelf","Matching","Self","Self","Self","Self","m",853,0.853,1
2,1,40,"S.bmp","Bekende","Nonmatching","Friend","Self","Self","Self","n",831,0.831,1
2,1,41,"C.bmp","Vreemde","Nonmatching","Stranger","Friend","Friend","Close","n",969,0.969,1
2,1,42,"S.bmp","Ikzelf","Matching","Self","Self","Self","Self","m",691,0.691,1
2,1,43,"C.bmp","Bekende","Matching","Friend","Friend","Friend","Close","m",990,0.99,1
2,1,44,"C.bmp","Bekende","Matching","Friend","Friend","Friend","Close","m",600,0.6,1
2,1,45,"T.bmp","Vreemde","Matching","Stranger","Stranger","Stranger","Stranger","m",834,0.834,1
2,1,46,"C.bmp","Ikzelf","Nonmatching","Self","Friend","Friend","Close","m",540,0.54,0
2,1,47,"T.bmp","Vreemde","Matching","Stranger","Stranger","Stranger","Stranger","m",1045,1.045,1
2,1,48,"S.bmp","Vreemde","Nonmatching","Stranger","Self","Self","Self","n",735,0.735,1
2,1,49,"T.bmp","Bekende","Nonmatching","Friend","Stranger","Stranger","Stranger","n",969,0.969,1
2,1,50,"T.bmp","Vreemde","Matching","Stranger","Stranger","Stranger","Stranger","m",1219,1.219,1
2,1,51,"C.bmp","Bekende","Matching","Friend","Friend","Friend","Close","m",910,0.91,1
2,1,52,"S.bmp","Ikzelf","Matching","Self","Self","Self","Self","m",456,0.456,1
2,1,53,"T.bmp","Vreemde","Matching","Stranger","Stranger","Stranger","Stranger","n",1058,1.058,0
2,1,54,"S.bmp","Bekende","Nonmatching","Friend","Self","Self","Self","m",1052,1.052,0
2,1,55,"T.bmp","Ikzelf","Nonmatching","Self","Stranger","Stranger","Stranger","n",886,0.886,1
2,1,56,"S.bmp","Vreemde","Nonmatching","Stranger","Self","Self","Self","n",1136,1.136,1
2,1,57,"S.bmp","Ikzelf","Matching","Self","Self","Self","Self","m",714,0.714,1
2,1,58,"C.bmp","Ikzelf","Nonmatching","Self","Friend","Friend","Close","m",643,0.643,0
2,1,59,"C.bmp","Bekende","Matching","Friend","Friend","Friend","Close","m",1102,1.102,1
2,1,60,"C.bmp","Vreemde","Nonmatching","Stranger","Friend","Friend","Close","n",1144,1.144,1
2,2,1,"S.bmp","Ikzelf","Matching","Self","Self","Self","Self","m",943,0.943,1
2,2,2,"C.bmp","Ikzelf","Nonmatching","Self","Friend","Friend","Close","n",729,0.729,1
2,2,3,"C.bmp","Bekende","Matching","Friend","Friend","Friend","Close","m",850,0.85,1
2,2,4,"T.bmp","Ikzelf","Nonmatching","Self","Stranger","Stranger","Stranger","n",828,0.828,1
2,2,5,"T.bmp","Bekende","Nonmatching","Friend","Stranger","Stranger","Stranger","n",1046,1.046,1
2,2,6,"S.bmp","Ikzelf","Matching","Self","Self","Self","Self","m",624,0.624,1
2,2,7,"C.bmp","Vreemde","Nonmatching","Stranger","Friend","Friend","Close","n",779,0.779,1
2,2,8,"S.bmp","Bekende","Nonmatching","Friend","Self","Self","Self","n",1381,1.381,1
2,2,9,"C.bmp","Bekende","Matching","Friend","Friend","Friend","Close","m",1263,1.263,1
2,2,10,"T.bmp","Vreemde","Matching","Stranger","Stranger","Stranger","Stranger","m",809,0.809,1
2,2,11,"S.bmp","Vreemde","Nonmatching","Stranger","Self","Self","Self","n",1043,1.043,1
2,2,12,"T.bmp","Vreemde","Matching","Stranger","Stranger","Stranger","Stranger","m",877,0.877,1
2,2,13,"C.bmp","Ikzelf","Nonmatching","Self","Friend","Friend","Close","n",678,0.678,1
2,2,14,"C.bmp","Vreemde","Nonmatching","Stranger","Friend","Friend","Close","n",1312,1.312,1
2,2,15,"C.bmp","Bekende","Matching","Friend","Friend","Friend","Close","m",1083,1.083,1
2,2,16,"S.bmp","Ikzelf","Matching","Self","Self","Self","Self","m",693,0.693,1
2,2,17,"T.bmp","Vreemde","Matching","Stranger","Stranger","Stranger","Stranger","m",815,0.815,1
2,2,18,"T.bmp","Vreemde","Matching","Stranger","Stranger","Stranger","Stranger","m",681,0.681,1
2,2,19,"C.bmp","Bekende","Matching","Friend","Friend","Friend","Close","m",867,0.867,1
2,2,20,"T.bmp","Bekende","Nonmatching","Friend","Stranger","Stranger","Stranger","n",765,0.765,1
2,2,21,"S.bmp","Ikzelf","Matching","Self","Self","Self","Self","m",647,0.647,1
2,2,22,"S.bmp","Bekende","Nonmatching","Friend","Self","Self","Self","n",1297,1.297,1
2,2,23,"T.bmp","Ikzelf","Nonmatching","Self","Stranger","Stranger","Stranger","n",972,0.972,1
2,2,24,"S.bmp","Vreemde","Nonmatching","Stranger","Self","Self","Self","",0,0,0
2,2,25,"C.bmp","Bekende","Matching","Friend","Friend","Friend","Close","m",655,0.655,1
2,2,26,"S.bmp","Bekende","Nonmatching","Friend","Self","Self","Self","n",729,0.729,1
2,2,27,"S.bmp","Ikzelf","Matching","Self","Self","Self","Self","m",643,0.643,1
2,2,28,"C.bmp","Vreemde","Nonmatching","Stranger","Friend","Friend","Close","n",973,0.973,1
2,2,29,"S.bmp","Ikzelf","Matching","Self","Self","Self","Self","m",679,0.679,1
2,2,30,"T.bmp","Bekende","Nonmatching","Friend","Stranger","Stranger","Stranger","n",977,0.977,1
2,2,31,"C.bmp","Bekende","Matching","Friend","Friend","Friend","Close","m",1020,1.02,1
2,2,32,"T.bmp","Vreemde","Matching","Stranger","Stranger","Stranger","Stranger","m",822,0.822,1
2,2,33,"S.bmp","Vreemde","Nonmatching","Stranger","Self","Self","Self","n",768,0.768,1
2,2,34,"T.bmp","Ikzelf","Nonmatching","Self","Stranger","Stranger","Stranger","n",730,0.73,1
2,2,35,"T.bmp","Vreemde","Matching","Stranger","Stranger","Stranger","Stranger","m",900,0.9,1
2,2,36,"C.bmp","Ikzelf","Nonmatching","Self","Friend","Friend","Close","n",845,0.845,1
2,2,37,"S.bmp","Bekende","Nonmatching","Friend","Self","Self","Self","n",1063,1.063,1
2,2,38,"S.bmp","Ikzelf","Matching","Self","Self","Self","Self","m",817,0.817,1
2,2,39,"C.bmp","Bekende","Matching","Friend","Friend","Friend","Close","m",1036,1.036,1
2,2,40,"S.bmp","Vreemde","Nonmatching","Stranger","Self","Self","Self","n",758,0.758,1
2,2,41,"T.bmp","Bekende","Nonmatching","Friend","Stranger","Stranger","Stranger","n",960,0.96,1
2,2,42,"C.bmp","Vreemde","Nonmatching","Stranger","Friend","Friend","Close","n",890,0.89,1
2,2,43,"T.bmp","Ikzelf","Nonmatching","Self","Stranger","Stranger","Stranger","n",900,0.9,1
2,2,44,"T.bmp","Vreemde","Matching","Stranger","Stranger","Stranger","Stranger","m",734,0.734,1
2,2,45,"C.bmp","Ikzelf","Nonmatching","Self","Friend","Friend","Close","n",824,0.824,1
2,2,46,"S.bmp","Ikzelf","Matching","Self","Self","Self","Self","m",643,0.643,1
2,2,47,"T.bmp","Vreemde","Matching","Stranger","Stranger","Stranger","Stranger","m",1052,1.052,1
2,2,48,"C.bmp","Bekende","Matching","Friend","Friend","Friend","Close","m",1094,1.094,1
2,2,49,"S.bmp","Vreemde","Nonmatching","Stranger","Self","Self","Self","n",848,0.848,1
2,2,50,"C.bmp","Ikzelf","Nonmatching","Self","Friend","Friend","Close","n",730,0.73,1
2,2,51,"T.bmp","Vreemde","Matching","Stranger","Stranger","Stranger","Stranger","m",804,0.804,1
2,2,52,"T.bmp","Ikzelf","Nonmatching","Self","Stranger","Stranger","Stranger","n",766,0.766,1
2,2,53,"T.bmp","Vreemde","Matching","Stranger","Stranger","Stranger","Stranger","m",744,0.744,1
2,2,54,"S.bmp","Ikzelf","Matching","Self","Self","Self","Self","m",738,0.738,1
2,2,55,"C.bmp","Bekende","Matching","Friend","Friend","Friend","Close","n",637,0.637,0
2,2,56,"C.bmp","Bekende","Matching","Friend","Friend","Friend","Close","m",711,0.711,1
2,2,57,"T.bmp","Bekende","Nonmatching","Friend","Stranger","Stranger","Stranger","n",1025,1.025,1
2,2,58,"C.bmp","Vreemde","Nonmatching","Stranger","Friend","Friend","Close","m",987,0.987,0
2,2,59,"S.bmp","Ikzelf","Matching","Self","Self","Self","Self","m",676,0.676,1
2,2,60,"S.bmp","Bekende","Nonmatching","Friend","Self","Self","Self","m",894,0.894,0
2,3,1,"C.bmp","Vreemde","Nonmatching","Stranger","Friend","Friend","Close","n",1173,1.173,1
2,3,2,"C.bmp","Bekende","Matching","Friend","Friend","Friend","Close","m",1087,1.087,1
2,3,3,"T.bmp","Bekende","Nonmatching","Friend","Stranger","Stranger","Stranger","n",745,0.745,1
2,3,4,"T.bmp","Vreemde","Matching","Stranger","Stranger","Stranger","Stranger","m",899,0.899,1
2,3,5,"S.bmp","Vreemde","Nonmatching","Stranger","Self","Self","Self","n",861,0.861,1
2,3,6,"C.bmp","Bekende","Matching","Friend","Friend","Friend","Close","m",663,0.663,1
2,3,7,"T.bmp","Vreemde","Matching","Stranger","Stranger","Stranger","Stranger","m",1137,1.137,1
2,3,8,"S.bmp","Ikzelf","Matching","Self","Self","Self","Self","m",651,0.651,1
2,3,9,"T.bmp","Ikzelf","Nonmatching","Self","Stranger","Stranger","Stranger","n",773,0.773,1
2,3,10,"S.bmp","Ikzelf","Matching","Self","Self","Self","Self","m",927,0.927,1
2,3,11,"C.bmp","Ikzelf","Nonmatching","Self","Friend","Friend","Close","n",746,0.746,1
2,3,12,"S.bmp","Bekende","Nonmatching","Friend","Self","Self","Self","n",1156,1.156,1
2,3,13,"T.bmp","Bekende","Nonmatching","Friend","Stranger","Stranger","Stranger","n",1005,1.005,1
2,3,14,"C.bmp","Vreemde","Nonmatching","Stranger","Friend","Friend","Close","n",935,0.935,1
2,3,15,"T.bmp","Vreemde","Matching","Stranger","Stranger","Stranger","Stranger","m",929,0.929,1
2,3,16,"C.bmp","Bekende","Matching","Friend","Friend","Friend","Close","m",1083,1.083,1
2,3,17,"T.bmp","Ikzelf","Nonmatching","Self","Stranger","Stranger","Stranger","n",901,0.901,1
2,3,18,"S.bmp","Bekende","Nonmatching","Friend","Self","Self","Self","n",1071,1.071,1
2,3,19,"S.bmp","Ikzelf","Matching","Self","Self","Self","Self","m",826,0.826,1
2,3,20,"C.bmp","Bekende","Matching","Friend","Friend","Friend","Close","n",1124,1.124,0
2,3,21,"S.bmp","Vreemde","Nonmatching","Stranger","Self","Self","Self","",0,0,0
2,3,22,"T.bmp","Vreemde","Matching","Stranger","Stranger","Stranger","Stranger","m",968,0.968,1
2,3,23,"C.bmp","Ikzelf","Nonmatching","Self","Friend","Friend","Close","m",626,0.626,0
2,3,24,"S.bmp","Ikzelf","Matching","Self","Self","Self","Self","m",588,0.588,1
2,3,25,"T.bmp","Vreemde","Matching","Stranger","Stranger","Stranger","Stranger","m",821,0.821,1
2,3,26,"S.bmp","Bekende","Nonmatching","Friend","Self","Self","Self","n",991,0.991,1
2,3,27,"C.bmp","Bekende","Matching","Friend","Friend","Friend","Close","m",698,0.698,1
2,3,28,"T.bmp","Bekende","Nonmatching","Friend","Stranger","Stranger","Stranger","n",884,0.884,1
2,3,29,"T.bmp","Ikzelf","Nonmatching","Self","Stranger","Stranger","Stranger","n",1038,1.038,1
2,3,30,"C.bmp","Bekende","Matching","Friend","Friend","Friend","Close","m",1192,1.192,1
2,3,31,"S.bmp","Ikzelf","Matching","Self","Self","Self","Self","m",802,0.802,1
2,3,32,"C.bmp","Vreemde","Nonmatching","Stranger","Friend","Friend","Close","n",1036,1.036,1
2,3,33,"S.bmp","Ikzelf","Matching","Self","Self","Self","Self","m",790,0.79,1
2,3,34,"C.bmp","Ikzelf","Nonmatching","Self","Friend","Friend","Close","n",993,0.993,1
2,3,35,"T.bmp","Vreemde","Matching","Stranger","Stranger","Stranger","Stranger","m",795,0.795,1
2,3,36,"S.bmp","Vreemde","Nonmatching","Stranger","Self","Self","Self","n",708,0.708,1
2,3,37,"T.bmp","Vreemde","Matching","Stranger","Stranger","Stranger","Stranger","m",878,0.878,1
2,3,38,"S.bmp","Ikzelf","Matching","Self","Self","Self","Self","m",744,0.744,1
2,3,39,"S.bmp","Vreemde","Nonmatching","Stranger","Self","Self","Self","n",882,0.882,1
2,3,40,"T.bmp","Ikzelf","Nonmatching","Self","Stranger","Stranger","Stranger","n",812,0.812,1
2,3,41,"C.bmp","Bekende","Matching","Friend","Friend","Friend","Close","m",598,0.598,1
2,3,42,"C.bmp","Vreemde","Nonmatching","Stranger","Friend","Friend","Close","n",769,0.769,1
2,3,43,"C.bmp","Bekende","Matching","Friend","Friend","Friend","Close","m",699,0.699,1
2,3,44,"C.bmp","Ikzelf","Nonmatching","Self","Friend","Friend","Close","n",725,0.725,1
2,3,45,"S.bmp","Ikzelf","Matching","Self","Self","Self","Self","m",719,0.719,1
2,3,46,"T.bmp","Vreemde","Matching","Stranger","Stranger","Stranger","Stranger","n",761,0.761,0
2,3,47,"S.bmp","Bekende","Nonmatching","Friend","Self","Self","Self","n",914,0.914,1
2,3,48,"T.bmp","Bekende","Nonmatching","Friend","Stranger","Stranger","Stranger","n",780,0.78,1
2,3,49,"T.bmp","Ikzelf","Nonmatching","Self","Stranger","Stranger","Stranger","n",790,0.79,1
2,3,50,"C.bmp","Ikzelf","Nonmatching","Self","Friend","Friend","Close","n",833,0.833,1
2,3,51,"S.bmp","Ikzelf","Matching","Self","Self","Self","Self","m",731,0.731,1
2,3,52,"C.bmp","Vreemde","Nonmatching","Stranger","Friend","Friend","Close","m",693,0.693,0
2,3,53,"T.bmp","Vreemde","Matching","Stranger","Stranger","Stranger","Stranger","m",607,0.607,1
2,3,54,"T.bmp","Bekende","Nonmatching","Friend","Stranger","Stranger","Stranger","n",937,0.937,1
2,3,55,"C.bmp","Bekende","Matching","Friend","Friend","Friend","Close","m",1011,1.011,1
2,3,56,"S.bmp","Ikzelf","Matching","Self","Self","Self","Self","m",685,0.685,1
2,3,57,"S.bmp","Vreemde","Nonmatching","Stranger","Self","Self","Self","n",791,0.791,1
2,3,58,"T.bmp","Vreemde","Matching","Stranger","Stranger","Stranger","Stranger","m",738,0.738,1
2,3,59,"C.bmp","Bekende","Matching","Friend","Friend","Friend","Close","m",763,0.763,1
2,3,60,"S.bmp","Bekende","Nonmatching","Friend","Self","Self","Self","n",725,0.725,1
2,4,1,"T.bmp","Bekende","Nonmatching","Friend","Stranger","Stranger","Stranger","n",1180,1.18,1
2,4,2,"S.bmp","Ikzelf","Matching","Self","Self","Self","Self","m",614,0.614,1
2,4,3,"C.bmp","Ikzelf","Nonmatching","Self","Friend","Friend","Close","n",623,0.623,1
2,4,4,"T.bmp","Ikzelf","Nonmatching","Self","Stranger","Stranger","Stranger","n",793,0.793,1
2,4,5,"S.bmp","Vreemde","Nonmatching","Stranger","Self","Self","Self","n",899,0.899,1
2,4,6,"S.bmp","Bekende","Nonmatching","Friend","Self","Self","Self","m",1261,1.261,0
2,4,7,"T.bmp","Vreemde","Matching","Stranger","Stranger","Stranger","Stranger","m",872,0.872,1
2,4,8,"S.bmp","Ikzelf","Matching","Self","Self","Self","Self","m",626,0.626,1
2,4,9,"T.bmp","Vreemde","Matching","Stranger","Stranger","Stranger","Stranger","n",636,0.636,0
2,4,10,"C.bmp","Bekende","Matching","Friend","Friend","Friend","Close","m",822,0.822,1
2,4,11,"C.bmp","Vreemde","Nonmatching","Stranger","Friend","Friend","Close","n",864,0.864,1
2,4,12,"C.bmp","Bekende","Matching","Friend","Friend","Friend","Close","m",794,0.794,1
2,4,13,"T.bmp","Vreemde","Matching","Stranger","Stranger","Stranger","Stranger","m",788,0.788,1
2,4,14,"T.bmp","Bekende","Nonmatching","Friend","Stranger","Stranger","Stranger","n",942,0.942,1
2,4,15,"S.bmp","Ikzelf","Matching","Self","Self","Self","Self","m",616,0.616,1
2,4,16,"S.bmp","Ikzelf","Matching","Self","Self","Self","Self","m",658,0.658,1
2,4,17,"C.bmp","Vreemde","Nonmatching","Stranger","Friend","Friend","Close","m",716,0.716,0
2,4,18,"C.bmp","Ikzelf","Nonmatching","Self","Friend","Friend","Close","n",918,0.918,1
2,4,19,"C.bmp","Bekende","Matching","Friend","Friend","Friend","Close","m",736,0.736,1
2,4,20,"S.bmp","Bekende","Nonmatching","Friend","Self","Self","Self","n",954,0.954,1
2,4,21,"T.bmp","Ikzelf","Nonmatching","Self","Stranger","Stranger","Stranger","n",1188,1.188,1
2,4,22,"T.bmp","Vreemde","Matching","Stranger","Stranger","Stranger","Stranger","m",751,0.751,1
2,4,23,"S.bmp","Vreemde","Nonmatching","Stranger","Self","Self","Self","n",825,0.825,1
2,4,24,"C.bmp","Bekende","Matching","Friend","Friend","Friend","Close","m",611,0.611,1
2,4,25,"S.bmp","Ikzelf","Matching","Self","Self","Self","Self","m",604,0.604,1
2,4,26,"C.bmp","Bekende","Matching","Friend","Friend","Friend","Close","m",886,0.886,1
2,4,27,"S.bmp","Vreemde","Nonmatching","Stranger","Self","Self","Self","n",832,0.832,1
2,4,28,"C.bmp","Vreemde","Nonmatching","Stranger","Friend","Friend","Close","n",1018,1.018,1
2,4,29,"T.bmp","Ikzelf","Nonmatching","Self","Stranger","Stranger","Stranger","n",820,0.82,1
2,4,30,"C.bmp","Ikzelf","Nonmatching","Self","Friend","Friend","Close","n",863,0.863,1
2,4,31,"S.bmp","Ikzelf","Matching","Self","Self","Self","Self","m",665,0.665,1
2,4,32,"T.bmp","Bekende","Nonmatching","Friend","Stranger","Stranger","Stranger","n",723,0.723,1
2,4,33,"T.bmp","Vreemde","Matching","Stranger","Stranger","Stranger","Stranger","m",781,0.781,1
2,4,34,"S.bmp","Bekende","Nonmatching","Friend","Self","Self","Self","n",839,0.839,1
2,4,35,"C.bmp","Bekende","Matching","Friend","Friend","Friend","Close","m",625,0.625,1
2,4,36,"T.bmp","Vreemde","Matching","Stranger","Stranger","Stranger","Stranger","m",874,0.874,1
2,4,37,"S.bmp","Vreemde","Nonmatching","Stranger","Self","Self","Self","n",852,0.852,1
2,4,38,"C.bmp","Vreemde","Nonmatching","Stranger","Friend","Friend","Close","n",687,0.687,1
2,4,39,"S.bmp","Ikzelf","Matching","Self","Self","Self","Self","m",617,0.617,1
2,4,40,"T.bmp","Ikzelf","Nonmatching","Self","Stranger","Stranger","Stranger","n",771,0.771,1
2,4,41,"C.bmp","Bekende","Matching","Friend","Friend","Friend","Close","m",781,0.781,1
2,4,42,"S.bmp","Bekende","Nonmatching","Friend","Self","Self","Self","n",727,0.727,1
2,4,43,"C.bmp","Ikzelf","Nonmatching","Self","Friend","Friend","Close","n",881,0.881,1
2,4,44,"S.bmp","Ikzelf","Matching","Self","Self","Self","Self","m",875,0.875,1
2,4,45,"T.bmp","Bekende","Nonmatching","Friend","Stranger","Stranger","Stranger","n",1173,1.173,1
2,4,46,"T.bmp","Vreemde","Matching","Stranger","Stranger","Stranger","Stranger","m",992,0.992,1
2,4,47,"C.bmp","Bekende","Matching","Friend","Friend","Friend","Close","m",1257,1.257,1
2,4,48,"T.bmp","Vreemde","Matching","Stranger","Stranger","Stranger","Stranger","m",851,0.851,1
2,4,49,"C.bmp","Ikzelf","Nonmatching","Self","Friend","Friend","Close","n",877,0.877,1
2,4,50,"T.bmp","Bekende","Nonmatching","Friend","Stranger","Stranger","Stranger","n",1143,1.143,1
2,4,51,"S.bmp","Bekende","Nonmatching","Friend","Self","Self","Self","n",1105,1.105,1
2,4,52,"C.bmp","Vreemde","Nonmatching","Stranger","Friend","Friend","Close","n",987,0.987,1
2,4,53,"T.bmp","Vreemde","Matching","Stranger","Stranger","Stranger","Stranger","m",709,0.709,1
2,4,54,"C.bmp","Bekende","Matching","Friend","Friend","Friend","Close","m",1168,1.168,1
2,4,55,"S.bmp","Vreemde","Nonmatching","Stranger","Self","Self","Self","n",922,0.922,1
2,4,56,"T.bmp","Ikzelf","Nonmatching","Self","Stranger","Stranger","Stranger","m",676,0.676,0
2,4,57,"S.bmp","Ikzelf","Matching","Self","Self","Self","Self","m",670,0.67,1
2,4,58,"C.bmp","Bekende","Matching","Friend","Friend","Friend","Close","m",936,0.936,1
2,4,59,"S.bmp","Ikzelf","Matching","Self","Self","Self","Self","m",818,0.818,1
2,4,60,"T.bmp","Vreemde","Matching","Stranger","Stranger","Stranger","Stranger","m",859,0.859,1
2,5,1,"S.bmp","Ikzelf","Matching","Self","Self","Self","Self","m",722,0.722,1
2,5,2,"C.bmp","Bekende","Matching","Friend","Friend","Friend","Close","m",653,0.653,1
2,5,3,"S.bmp","Ikzelf","Matching","Self","Self","Self","Self","m",1318,1.318,1
2,5,4,"S.bmp","Bekende","Nonmatching","Friend","Self","Self","Self","n",1392,1.392,1
2,5,5,"T.bmp","Bekende","Nonmatching","Friend","Stranger","Stranger","Stranger","n",1306,1.306,1
2,5,6,"T.bmp","Vreemde","Matching","Stranger","Stranger","Stranger","Stranger","m",772,0.772,1
2,5,7,"S.bmp","Vreemde","Nonmatching","Stranger","Self","Self","Self","n",798,0.798,1
2,5,8,"C.bmp","Vreemde","Nonmatching","Stranger","Friend","Friend","Close","n",984,0.984,1
2,5,9,"C.bmp","Ikzelf","Nonmatching","Self","Friend","Friend","Close","n",930,0.93,1
2,5,10,"C.bmp","Bekende","Matching","Friend","Friend","Friend","Close","m",893,0.893,1
2,5,11,"T.bmp","Ikzelf","Nonmatching","Self","Stranger","Stranger","Stranger","n",823,0.823,1
2,5,12,"T.bmp","Vreemde","Matching","Stranger","Stranger","Stranger","Stranger","m",865,0.865,1
2,5,13,"S.bmp","Vreemde","Nonmatching","Stranger","Self","Self","Self","n",779,0.779,1
2,5,14,"C.bmp","Vreemde","Nonmatching","Stranger","Friend","Friend","Close","n",1076,1.076,1
2,5,15,"C.bmp","Bekende","Matching","Friend","Friend","Friend","Close","m",958,0.958,1
2,5,16,"S.bmp","Bekende","Nonmatching","Friend","Self","Self","Self","n",856,0.856,1
2,5,17,"T.bmp","Vreemde","Matching","Stranger","Stranger","Stranger","Stranger","m",914,0.914,1
2,5,18,"T.bmp","Ikzelf","Nonmatching","Self","Stranger","Stranger","Stranger","n",765,0.765,1
2,5,19,"T.bmp","Bekende","Nonmatching","Friend","Stranger","Stranger","Stranger","n",983,0.983,1
2,5,20,"T.bmp","Vreemde","Matching","Stranger","Stranger","Stranger","Stranger","m",849,0.849,1
2,5,21,"S.bmp","Ikzelf","Matching","Self","Self","Self","Self","m",763,0.763,1
2,5,22,"S.bmp","Ikzelf","Matching","Self","Self","Self","Self","m",693,0.693,1
2,5,23,"C.bmp","Bekende","Matching","Friend","Friend","Friend","Close","m",1215,1.215,1
2,5,24,"C.bmp","Ikzelf","Nonmatching","Self","Friend","Friend","Close","n",1545,1.545,1
2,5,25,"C.bmp","Vreemde","Nonmatching","Stranger","Friend","Friend","Close","n",1075,1.075,1
2,5,26,"S.bmp","Ikzelf","Matching","Self","Self","Self","Self","m",765,0.765,1
2,5,27,"T.bmp","Ikzelf","Nonmatching","Self","Stranger","Stranger","Stranger","n",791,0.791,1
2,5,28,"T.bmp","Vreemde","Matching","Stranger","Stranger","Stranger","Stranger","m",881,0.881,1
2,5,29,"T.bmp","Vreemde","Matching","Stranger","Stranger","Stranger","Stranger","m",683,0.683,1
2,5,30,"T.bmp","Bekende","Nonmatching","Friend","Stranger","Stranger","Stranger","n",725,0.725,1
2,5,31,"S.bmp","Ikzelf","Matching","Self","Self","Self","Self","m",735,0.735,1
2,5,32,"C.bmp","Bekende","Matching","Friend","Friend","Friend","Close","m",953,0.953,1
2,5,33,"C.bmp","Bekende","Matching","Friend","Friend","Friend","Close","m",1012,1.012,1
2,5,34,"C.bmp","Ikzelf","Nonmatching","Self","Friend","Friend","Close","n",814,0.814,1
2,5,35,"S.bmp","Bekende","Nonmatching","Friend","Self","Self","Self","m",1320,1.32,0
2,5,36,"S.bmp","Vreemde","Nonmatching","Stranger","Self","Self","Self","n",1345,1.345,1
2,5,37,"T.bmp","Bekende","Nonmatching","Friend","Stranger","Stranger","Stranger","n",1371,1.371,1
2,5,38,"T.bmp","Ikzelf","Nonmatching","Self","Stranger","Stranger","Stranger","n",757,0.757,1
2,5,39,"T.bmp","Vreemde","Matching","Stranger","Stranger","Stranger","Stranger","m",767,0.767,1
2,5,40,"C.bmp","Ikzelf","Nonmatching","Self","Friend","Friend","Close","n",937,0.937,1
2,5,41,"C.bmp","Bekende","Matching","Friend","Friend","Friend","Close","m",835,0.835,1
2,5,42,"S.bmp","Bekende","Nonmatching","Friend","Self","Self","Self","n",782,0.782,1
2,5,43,"C.bmp","Vreemde","Nonmatching","Stranger","Friend","Friend","Close","n",872,0.872,1
2,5,44,"S.bmp","Ikzelf","Matching","Self","Self","Self","Self","m",706,0.706,1
2,5,45,"S.bmp","Ikzelf","Matching","Self","Self","Self","Self","m",636,0.636,1
2,5,46,"T.bmp","Vreemde","Matching","Stranger","Stranger","Stranger","Stranger","m",902,0.902,1
2,5,47,"S.bmp","Vreemde","Nonmatching","Stranger","Self","Self","Self","n",832,0.832,1
2,5,48,"C.bmp","Bekende","Matching","Friend","Friend","Friend","Close","m",874,0.874,1
2,5,49,"S.bmp","Ikzelf","Matching","Self","Self","Self","Self","m",628,0.628,1
2,5,50,"T.bmp","Ikzelf","Nonmatching","Self","Stranger","Stranger","Stranger","n",702,0.702,1
2,5,51,"C.bmp","Bekende","Matching","Friend","Friend","Friend","Close","m",648,0.648,1
2,5,52,"T.bmp","Vreemde","Matching","Stranger","Stranger","Stranger","Stranger","m",1122,1.122,1
2,5,53,"T.bmp","Bekende","Nonmatching","Friend","Stranger","Stranger","Stranger","n",764,0.764,1
2,5,54,"C.bmp","Bekende","Matching","Friend","Friend","Friend","Close","m",1046,1.046,1
2,5,55,"S.bmp","Ikzelf","Matching","Self","Self","Self","Self","m",656,0.656,1
2,5,56,"C.bmp","Vreemde","Nonmatching","Stranger","Friend","Friend","Close","n",842,0.842,1
2,5,57,"S.bmp","Vreemde","Nonmatching","Stranger","Self","Self","Self","n",1237,1.237,1
2,5,58,"S.bmp","Bekende","Nonmatching","Friend","Self","Self","Self","n",1023,1.023,1
2,5,59,"C.bmp","Ikzelf","Nonmatching","Self","Friend","Friend","Close","n",729,0.729,1
2,5,60,"T.bmp","Vreemde","Matching","Stranger","Stranger","Stranger","Stranger","m",642,0.642,1
2,6,1,"C.bmp","Ikzelf","Nonmatching","Self","Friend","Friend","Close","n",921,0.921,1
2,6,2,"C.bmp","Vreemde","Nonmatching","Stranger","Friend","Friend","Close","n",1251,1.251,1
2,6,3,"S.bmp","Vreemde","Nonmatching","Stranger","Self","Self","Self","n",1100,1.1,1
2,6,4,"T.bmp","Vreemde","Matching","Stranger","Stranger","Stranger","Stranger","m",934,0.934,1
2,6,5,"T.bmp","Vreemde","Matching","Stranger","Stranger","Stranger","Stranger","m",704,0.704,1
2,6,6,"T.bmp","Bekende","Nonmatching","Friend","Stranger","Stranger","Stranger","n",843,0.843,1
2,6,7,"S.bmp","Bekende","Nonmatching","Friend","Self","Self","Self","n",1173,1.173,1
2,6,8,"S.bmp","Ikzelf","Matching","Self","Self","Self","Self","m",735,0.735,1
2,6,9,"T.bmp","Ikzelf","Nonmatching","Self","Stranger","Stranger","Stranger","n",713,0.713,1
2,6,10,"S.bmp","Ikzelf","Matching","Self","Self","Self","Self","m",963,0.963,1
2,6,11,"C.bmp","Bekende","Matching","Friend","Friend","Friend","Close","m",813,0.813,1
2,6,12,"C.bmp","Bekende","Matching","Friend","Friend","Friend","Close","m",663,0.663,1
2,6,13,"S.bmp","Ikzelf","Matching","Self","Self","Self","Self","m",641,0.641,1
2,6,14,"C.bmp","Vreemde","Nonmatching","Stranger","Friend","Friend","Close","n",1100,1.1,1
2,6,15,"T.bmp","Vreemde","Matching","Stranger","Stranger","Stranger","Stranger","m",709,0.709,1
2,6,16,"T.bmp","Vreemde","Matching","Stranger","Stranger","Stranger","Stranger","m",879,0.879,1
2,6,17,"C.bmp","Bekende","Matching","Friend","Friend","Friend","Close","m",777,0.777,1
2,6,18,"S.bmp","Ikzelf","Matching","Self","Self","Self","Self","m",691,0.691,1
2,6,19,"S.bmp","Bekende","Nonmatching","Friend","Self","Self","Self","n",893,0.893,1
2,6,20,"C.bmp","Bekende","Matching","Friend","Friend","Friend","Close","m",679,0.679,1
2,6,21,"T.bmp","Ikzelf","Nonmatching","Self","Stranger","Stranger","Stranger","n",994,0.994,1
2,6,22,"T.bmp","Bekende","Nonmatching","Friend","Stranger","Stranger","Stranger","n",956,0.956,1
2,6,23,"S.bmp","Vreemde","Nonmatching","Stranger","Self","Self","Self","n",870,0.87,1
2,6,24,"C.bmp","Ikzelf","Nonmatching","Self","Friend","Friend","Close","n",768,0.768,1
2,6,25,"T.bmp","Vreemde","Matching","Stranger","Stranger","Stranger","Stranger","m",938,0.938,1
2,6,26,"S.bmp","Bekende","Nonmatching","Friend","Self","Self","Self","n",788,0.788,1
2,6,27,"C.bmp","Ikzelf","Nonmatching","Self","Friend","Friend","Close","n",845,0.845,1
2,6,28,"S.bmp","Ikzelf","Matching","Self","Self","Self","Self","m",711,0.711,1
2,6,29,"C.bmp","Bekende","Matching","Friend","Friend","Friend","Close","n",1202,1.202,0
2,6,30,"S.bmp","Ikzelf","Matching","Self","Self","Self","Self","m",1100,1.1,1
2,6,31,"T.bmp","Ikzelf","Nonmatching","Self","Stranger","Stranger","Stranger","n",1190,1.19,1
2,6,32,"T.bmp","Bekende","Nonmatching","Friend","Stranger","Stranger","Stranger","n",1168,1.168,1
2,6,33,"S.bmp","Vreemde","Nonmatching","Stranger","Self","Self","Self","n",1082,1.082,1
2,6,34,"C.bmp","Vreemde","Nonmatching","Stranger","Friend","Friend","Close","n",1108,1.108,1
2,6,35,"T.bmp","Vreemde","Matching","Stranger","Stranger","Stranger","Stranger","m",846,0.846,1
2,6,36,"C.bmp","Bekende","Matching","Friend","Friend","Friend","Close","m",696,0.696,1
2,6,37,"C.bmp","Ikzelf","Nonmatching","Self","Friend","Friend","Close","n",787,0.787,1
2,6,38,"S.bmp","Bekende","Nonmatching","Friend","Self","Self","Self","n",940,0.94,1
2,6,39,"C.bmp","Bekende","Matching","Friend","Friend","Friend","Close","m",982,0.982,1
2,6,40,"S.bmp","Ikzelf","Matching","Self","Self","Self","Self","m",832,0.832,1
2,6,41,"C.bmp","Bekende","Matching","Friend","Friend","Friend","Close","m",810,0.81,1
2,6,42,"S.bmp","Ikzelf","Matching","Self","Self","Self","Self","m",724,0.724,1
2,6,43,"T.bmp","Bekende","Nonmatching","Friend","Stranger","Stranger","Stranger","n",670,0.67,1
2,6,44,"S.bmp","Vreemde","Nonmatching","Stranger","Self","Self","Self","n",872,0.872,1
2,6,45,"C.bmp","Vreemde","Nonmatching","Stranger","Friend","Friend","Close","n",1107,1.107,1
2,6,46,"T.bmp","Ikzelf","Nonmatching","Self","Stranger","Stranger","Stranger","n",1037,1.037,1
2,6,47,"T.bmp","Vreemde","Matching","Stranger","Stranger","Stranger","Stranger","m",903,0.903,1
2,6,48,"T.bmp","Vreemde","Matching","Stranger","Stranger","Stranger","Stranger","m",625,0.625,1
2,6,49,"S.bmp","Bekende","Nonmatching","Friend","Self","Self","Self","n",842,0.842,1
2,6,50,"C.bmp","Bekende","Matching","Friend","Friend","Friend","Close","",0,0,0
2,6,51,"T.bmp","Vreemde","Matching","Stranger","Stranger","Stranger","Stranger","m",1118,1.118,1
2,6,52,"S.bmp","Vreemde","Nonmatching","Stranger","Self","Self","Self","n",744,0.744,1
2,6,53,"C.bmp","Vreemde","Nonmatching","Stranger","Friend","Friend","Close","n",1075,1.075,1
2,6,54,"S.bmp","Ikzelf","Matching","Self","Self","Self","Self","m",669,0.669,1
2,6,55,"S.bmp","Ikzelf","Matching","Self","Self","Self","Self","m",887,0.887,1
2,6,56,"T.bmp","Ikzelf","Nonmatching","Self","Stranger","Stranger","Stranger","n",625,0.625,1
2,6,57,"C.bmp","Ikzelf","Nonmatching","Self","Friend","Friend","Close","n",843,0.843,1
2,6,58,"T.bmp","Vreemde","Matching","Stranger","Stranger","Stranger","Stranger","m",949,0.949,1
2,6,59,"C.bmp","Bekende","Matching","Friend","Friend","Friend","Close","m",1183,1.183,1
2,6,60,"T.bmp","Bekende","Nonmatching","Friend","Stranger","Stranger","Stranger","n",1320,1.32,1
3,1,1,"C.bmp","Vreemde","Nonmatching","Stranger","Self","Self","Self","",0,0,0
3,1,2,"C.bmp","Ikzelf","Matching","Self","Self","Self","Self","",0,0,0
3,1,3,"S.bmp","Vreemde","Matching","Stranger","Stranger","Stranger","Stranger","m",776,0.776,0
3,1,4,"T.bmp","Vreemde","Nonmatching","Stranger","Friend","Friend","Close","m",674,0.674,1
3,1,5,"T.bmp","Bekende","Matching","Friend","Friend","Friend","Close","m",525,0.525,0
3,1,6,"T.bmp","Ikzelf","Nonmatching","Self","Friend","Friend","Close","m",759,0.759,1
3,1,7,"C.bmp","Bekende","Nonmatching","Friend","Self","Self","Self","m",865,0.865,1
3,1,8,"C.bmp","Ikzelf","Matching","Self","Self","Self","Self","n",667,0.667,1
3,1,9,"T.bmp","Bekende","Matching","Friend","Friend","Friend","Close","m",949,0.949,0
3,1,10,"S.bmp","Ikzelf","Nonmatching","Self","Stranger","Stranger","Stranger","m",799,0.799,1
3,1,11,"S.bmp","Vreemde","Matching","Stranger","Stranger","Stranger","Stranger","m",1177,1.177,0
3,1,12,"S.bmp","Bekende","Nonmatching","Friend","Stranger","Stranger","Stranger","m",1443,1.443,1
3,1,13,"T.bmp","Ikzelf","Nonmatching","Self","Friend","Friend","Close","m",844,0.844,1
3,1,14,"S.bmp","Vreemde","Matching","Stranger","Stranger","Stranger","Stranger","n",870,0.87,1
3,1,15,"S.bmp","Ikzelf","Nonmatching","Self","Stranger","Stranger","Stranger","m",737,0.737,1
3,1,16,"T.bmp","Bekende","Matching","Friend","Friend","Friend","Close","n",699,0.699,1
3,1,17,"C.bmp","Ikzelf","Matching","Self","Self","Self","Self","n",645,0.645,1
3,1,18,"T.bmp","Bekende","Matching","Friend","Friend","Friend","Close","n",879,0.879,1
3,1,19,"T.bmp","Vreemde","Nonmatching","Stranger","Friend","Friend","Close","m",1193,1.193,1
3,1,20,"S.bmp","Vreemde","Matching","Stranger","Stranger","Stranger","Stranger","n",915,0.915,1
3,1,21,"C.bmp","Vreemde","Nonmatching","Stranger","Self","Self","Self","m",861,0.861,1
3,1,22,"C.bmp","Ikzelf","Matching","Self","Self","Self","Self","n",567,0.567,1
3,1,23,"S.bmp","Bekende","Nonmatching","Friend","Stranger","Stranger","Stranger","n",977,0.977,0
3,1,24,"C.bmp","Bekende","Nonmatching","Friend","Self","Self","Self","m",924,0.924,1
3,1,25,"C.bmp","Vreemde","Nonmatching","Stranger","Self","Self","Self","m",822,0.822,1
3,1,26,"T.bmp","Bekende","Matching","Friend","Friend","Friend","Close","n",783,0.783,1
3,1,27,"S.bmp","Bekende","Nonmatching","Friend","Stranger","Stranger","Stranger","m",825,0.825,1
3,1,28,"S.bmp","Vreemde","Matching","Stranger","Stranger","Stranger","Stranger","n",723,0.723,1
3,1,29,"T.bmp","Bekende","Matching","Friend","Friend","Friend","Close","n",893,0.893,1
3,1,30,"C.bmp","Ikzelf","Matching","Self","Self","Self","Self","n",615,0.615,1
3,1,31,"T.bmp","Ikzelf","Nonmatching","Self","Friend","Friend","Close","m",705,0.705,1
3,1,32,"T.bmp","Vreemde","Nonmatching","Stranger","Friend","Friend","Close","m",843,0.843,1
3,1,33,"C.bmp","Ikzelf","Matching","Self","Self","Self","Self","n",694,0.694,1
3,1,34,"S.bmp","Vreemde","Matching","Stranger","Stranger","Stranger","Stranger","n",816,0.816,1
3,1,35,"C.bmp","Bekende","Nonmatching","Friend","Self","Self","Self","m",938,0.938,1
3,1,36,"S.bmp","Ikzelf","Nonmatching","Self","Stranger","Stranger","Stranger","m",772,0.772,1
3,1,37,"C.bmp","Ikzelf","Matching","Self","Self","Self","Self","n",590,0.59,1
3,1,38,"C.bmp","Vreemde","Nonmatching","Stranger","Self","Self","Self","m",808,0.808,1
3,1,39,"C.bmp","Bekende","Nonmatching","Friend","Self","Self","Self","m",754,0.754,1
3,1,40,"S.bmp","Vreemde","Matching","Stranger","Stranger","Stranger","Stranger","n",1004,1.004,1
3,1,41,"S.bmp","Vreemde","Matching","Stranger","Stranger","Stranger","Stranger","n",741,0.741,1
3,1,42,"T.bmp","Ikzelf","Nonmatching","Self","Friend","Friend","Close","n",688,0.688,0
3,1,43,"S.bmp","Ikzelf","Nonmatching","Self","Stranger","Stranger","Stranger","m",810,0.81,1
3,1,44,"S.bmp","Bekende","Nonmatching","Friend","Stranger","Stranger","Stranger","m",1012,1.012,1
3,1,45,"T.bmp","Bekende","Matching","Friend","Friend","Friend","Close","n",718,0.718,1
3,1,46,"C.bmp","Ikzelf","Matching","Self","Self","Self","Self","n",664,0.664,1
3,1,47,"T.bmp","Bekende","Matching","Friend","Friend","Friend","Close","m",706,0.706,0
3,1,48,"T.bmp","Vreemde","Nonmatching","Stranger","Friend","Friend","Close","m",892,0.892,1
3,1,49,"S.bmp","Ikzelf","Nonmatching","Self","Stranger","Stranger","Stranger","m",790,0.79,1
3,1,50,"T.bmp","Ikzelf","Nonmatching","Self","Friend","Friend","Close","m",736,0.736,1
3,1,51,"T.bmp","Vreemde","Nonmatching","Stranger","Friend","Friend","Close","m",731,0.731,1
3,1,52,"T.bmp","Bekende","Matching","Friend","Friend","Friend","Close","n",677,0.677,1
3,1,53,"C.bmp","Vreemde","Nonmatching","Stranger","Self","Self","Self","m",767,0.767,1
3,1,54,"S.bmp","Bekende","Nonmatching","Friend","Stranger","Stranger","Stranger","n",953,0.953,0
3,1,55,"C.bmp","Ikzelf","Matching","Self","Self","Self","Self","n",802,0.802,1
3,1,56,"C.bmp","Bekende","Nonmatching","Friend","Self","Self","Self","m",732,0.732,1
3,1,57,"S.bmp","Vreemde","Matching","Stranger","Stranger","Stranger","Stranger","n",838,0.838,1
3,1,58,"S.bmp","Vreemde","Matching","Stranger","Stranger","Stranger","Stranger","n",704,0.704,1
3,1,59,"T.bmp","Bekende","Matching","Friend","Friend","Friend","Close","n",858,0.858,1
3,1,60,"C.bmp","Ikzelf","Matching","Self","Self","Self","Self","n",660,0.66,1
3,2,1,"S.bmp","Bekende","Nonmatching","Friend","Stranger","Stranger","Stranger","m",971,0.971,1
3,2,2,"C.bmp","Ikzelf","Matching","Self","Self","Self","Self","n",677,0.677,1
3,2,3,"T.bmp","Ikzelf","Nonmatching","Self","Friend","Friend","Close","m",751,0.751,1
3,2,4,"C.bmp","Bekende","Nonmatching","Friend","Self","Self","Self","m",713,0.713,1
3,2,5,"T.bmp","Bekende","Matching","Friend","Friend","Friend","Close","n",723,0.723,1
3,2,6,"C.bmp","Vreemde","Nonmatching","Stranger","Self","Self","Self","m",829,0.829,1
3,2,7,"T.bmp","Bekende","Matching","Friend","Friend","Friend","Close","n",887,0.887,1
3,2,8,"C.bmp","Ikzelf","Matching","Self","Self","Self","Self","n",609,0.609,1
3,2,9,"S.bmp","Ikzelf","Nonmatching","Self","Stranger","Stranger","Stranger","m",651,0.651,1
3,2,10,"T.bmp","Vreemde","Nonmatching","Stranger","Friend","Friend","Close","n",853,0.853,0
3,2,11,"S.bmp","Vreemde","Matching","Stranger","Stranger","Stranger","Stranger","n",847,0.847,1
3,2,12,"S.bmp","Vreemde","Matching","Stranger","Stranger","Stranger","Stranger","n",650,0.65,1
3,2,13,"S.bmp","Bekende","Nonmatching","Friend","Stranger","Stranger","Stranger","m",708,0.708,1
3,2,14,"T.bmp","Bekende","Matching","Friend","Friend","Friend","Close","n",654,0.654,1
3,2,15,"S.bmp","Ikzelf","Nonmatching","Self","Stranger","Stranger","Stranger","m",680,0.68,1
3,2,16,"T.bmp","Bekende","Matching","Friend","Friend","Friend","Close","n",674,0.674,1
3,2,17,"S.bmp","Vreemde","Matching","Stranger","Stranger","Stranger","Stranger","m",731,0.731,0
3,2,18,"C.bmp","Ikzelf","Matching","Self","Self","Self","Self","n",629,0.629,1
3,2,19,"C.bmp","Bekende","Nonmatching","Friend","Self","Self","Self","m",671,0.671,1
3,2,20,"T.bmp","Vreemde","Nonmatching","Stranger","Friend","Friend","Close","m",841,0.841,1
3,2,21,"T.bmp","Ikzelf","Nonmatching","Self","Friend","Friend","Close","m",772,0.772,1
3,2,22,"C.bmp","Vreemde","Nonmatching","Stranger","Self","Self","Self","m",798,0.798,1
3,2,23,"C.bmp","Ikzelf","Matching","Self","Self","Self","Self","n",632,0.632,1
3,2,24,"S.bmp","Vreemde","Matching","Stranger","Stranger","Stranger","Stranger","n",818,0.818,1
3,2,25,"T.bmp","Vreemde","Nonmatching","Stranger","Friend","Friend","Close","m",796,0.796,1
3,2,26,"C.bmp","Ikzelf","Matching","Self","Self","Self","Self","n",646,0.646,1
3,2,27,"C.bmp","Vreemde","Nonmatching","Stranger","Self","Self","Self","m",752,0.752,1
3,2,28,"S.bmp","Vreemde","Matching","Stranger","Stranger","Stranger","Stranger","n",794,0.794,1
3,2,29,"S.bmp","Ikzelf","Nonmatching","Self","Stranger","Stranger","Stranger","m",676,0.676,1
3,2,30,"S.bmp","Bekende","Nonmatching","Friend","Stranger","Stranger","Stranger","n",863,0.863,0
3,2,31,"T.bmp","Ikzelf","Nonmatching","Self","Friend","Friend","Close","m",809,0.809,1
3,2,32,"T.bmp","Bekende","Matching","Friend","Friend","Friend","Close","n",882,0.882,1
3,2,33,"T.bmp","Bekende","Matching","Friend","Friend","Friend","Close","n",700,0.7,1
3,2,34,"C.bmp","Bekende","Nonmatching","Friend","Self","Self","Self","m",774,0.774,1
3,2,35,"S.bmp","Vreemde","Matching","Stranger","Stranger","Stranger","Stranger","n",832,0.832,1
3,2,36,"C.bmp","Ikzelf","Matching","Self","Self","Self","Self","n",714,0.714,1
3,2,37,"T.bmp","Bekende","Matching","Friend","Friend","Friend","Close","n",740,0.74,1
3,2,38,"T.bmp","Bekende","Matching","Friend","Friend","Friend","Close","n",654,0.654,1
3,2,39,"C.bmp","Ikzelf","Matching","Self","Self","Self","Self","n",633,0.633,1
3,2,40,"C.bmp","Ikzelf","Matching","Self","Self","Self","Self","n",707,0.707,1
3,2,41,"S.bmp","Bekende","Nonmatching","Friend","Stranger","Stranger","Stranger","n",717,0.717,0
3,2,42,"S.bmp","Vreemde","Matching","Stranger","Stranger","Stranger","Stranger","n",839,0.839,1
3,2,43,"T.bmp","Vreemde","Nonmatching","Stranger","Friend","Friend","Close","m",817,0.817,1
3,2,44,"T.bmp","Ikzelf","Nonmatching","Self","Friend","Friend","Close","m",811,0.811,1
3,2,45,"S.bmp","Vreemde","Matching","Stranger","Stranger","Stranger","Stranger","n",885,0.885,1
3,2,46,"C.bmp","Vreemde","Nonmatching","Stranger","Self","Self","Self","m",702,0.702,1
3,2,47,"C.bmp","Bekende","Nonmatching","Friend","Self","Self","Self","m",648,0.648,1
3,2,48,"S.bmp","Ikzelf","Nonmatching","Self","Stranger","Stranger","Stranger","m",771,0.771,1
3,2,49,"C.bmp","Bekende","Nonmatching","Friend","Self","Self","Self","m",701,0.701,1
3,2,50,"T.bmp","Bekende","Matching","Friend","Friend","Friend","Close","n",679,0.679,1
3,2,51,"T.bmp","Bekende","Matching","Friend","Friend","Friend","Close","n",689,0.689,1
3,2,52,"T.bmp","Vreemde","Nonmatching","Stranger","Friend","Friend","Close","m",907,0.907,1
3,2,53,"T.bmp","Ikzelf","Nonmatching","Self","Friend","Friend","Close","m",757,0.757,1
3,2,54,"C.bmp","Vreemde","Nonmatching","Stranger","Self","Self","Self","m",799,0.799,1
3,2,55,"S.bmp","Bekende","Nonmatching","Friend","Stranger","Stranger","Stranger","m",1113,1.113,1
3,2,56,"S.bmp","Ikzelf","Nonmatching","Self","Stranger","Stranger","Stranger","m",771,0.771,1
3,2,57,"S.bmp","Vreemde","Matching","Stranger","Stranger","Stranger","Stranger","n",861,0.861,1
3,2,58,"C.bmp","Ikzelf","Matching","Self","Self","Self","Self","n",648,0.648,1
3,2,59,"C.bmp","Ikzelf","Matching","Self","Self","Self","Self","n",594,0.594,1
3,2,60,"S.bmp","Vreemde","Matching","Stranger","Stranger","Stranger","Stranger","n",891,0.891,1
3,3,1,"C.bmp","Ikzelf","Matching","Self","Self","Self","Self","n",594,0.594,1
3,3,2,"T.bmp","Ikzelf","Nonmatching","Self","Friend","Friend","Close","m",796,0.796,1
3,3,3,"S.bmp","Vreemde","Matching","Stranger","Stranger","Stranger","Stranger","n",646,0.646,1
3,3,4,"C.bmp","Bekende","Nonmatching","Friend","Self","Self","Self","m",768,0.768,1
3,3,5,"S.bmp","Vreemde","Matching","Stranger","Stranger","Stranger","Stranger","n",746,0.746,1
3,3,6,"S.bmp","Bekende","Nonmatching","Friend","Stranger","Stranger","Stranger","m",836,0.836,1
3,3,7,"C.bmp","Ikzelf","Matching","Self","Self","Self","Self","n",654,0.654,1
3,3,8,"T.bmp","Vreemde","Nonmatching","Stranger","Friend","Friend","Close","m",680,0.68,1
3,3,9,"C.bmp","Vreemde","Nonmatching","Stranger","Self","Self","Self","m",706,0.706,1
3,3,10,"T.bmp","Bekende","Matching","Friend","Friend","Friend","Close","n",844,0.844,1
3,3,11,"S.bmp","Ikzelf","Nonmatching","Self","Stranger","Stranger","Stranger","m",758,0.758,1
3,3,12,"T.bmp","Bekende","Matching","Friend","Friend","Friend","Close","n",704,0.704,1
3,3,13,"C.bmp","Ikzelf","Matching","Self","Self","Self","Self","n",746,0.746,1
3,3,14,"T.bmp","Bekende","Matching","Friend","Friend","Friend","Close","n",740,0.74,1
3,3,15,"S.bmp","Vreemde","Matching","Stranger","Stranger","Stranger","Stranger","n",734,0.734,1
3,3,16,"C.bmp","Bekende","Nonmatching","Friend","Self","Self","Self","m",632,0.632,1
3,3,17,"T.bmp","Vreemde","Nonmatching","Stranger","Friend","Friend","Close","m",1042,1.042,1
3,3,18,"C.bmp","Vreemde","Nonmatching","Stranger","Self","Self","Self","m",749,0.749,1
3,3,19,"S.bmp","Vreemde","Matching","Stranger","Stranger","Stranger","Stranger","n",807,0.807,1
3,3,20,"C.bmp","Ikzelf","Matching","Self","Self","Self","Self","n",801,0.801,1
3,3,21,"S.bmp","Ikzelf","Nonmatching","Self","Stranger","Stranger","Stranger","m",698,0.698,1
3,3,22,"S.bmp","Bekende","Nonmatching","Friend","Stranger","Stranger","Stranger","m",980,0.98,1
3,3,23,"T.bmp","Ikzelf","Nonmatching","Self","Friend","Friend","Close","m",814,0.814,1
3,3,24,"T.bmp","Bekende","Matching","Friend","Friend","Friend","Close","n",696,0.696,1
3,3,25,"C.bmp","Ikzelf","Matching","Self","Self","Self","Self","n",642,0.642,1
3,3,26,"S.bmp","Vreemde","Matching","Stranger","Stranger","Stranger","Stranger","n",716,0.716,1
3,3,27,"S.bmp","Vreemde","Matching","Stranger","Stranger","Stranger","Stranger","n",919,0.919,1
3,3,28,"T.bmp","Ikzelf","Nonmatching","Self","Friend","Friend","Close","m",657,0.657,1
3,3,29,"C.bmp","Vreemde","Nonmatching","Stranger","Self","Self","Self","m",715,0.715,1
3,3,30,"C.bmp","Bekende","Nonmatching","Friend","Self","Self","Self","m",757,0.757,1
3,3,31,"T.bmp","Bekende","Matching","Friend","Friend","Friend","Close","n",767,0.767,1
3,3,32,"S.bmp","Bekende","Nonmatching","Friend","Stranger","Stranger","Stranger","n",841,0.841,0
3,3,33,"S.bmp","Ikzelf","Nonmatching","Self","Stranger","Stranger","Stranger","m",691,0.691,1
3,3,34,"T.bmp","Bekende","Matching","Friend","Friend","Friend","Close","n",781,0.781,1
3,3,35,"T.bmp","Vreemde","Nonmatching","Stranger","Friend","Friend","Close","m",870,0.87,1
3,3,36,"C.bmp","Ikzelf","Matching","Self","Self","Self","Self","n",673,0.673,1
3,3,37,"C.bmp","Bekende","Nonmatching","Friend","Self","Self","Self","m",1035,1.035,1
3,3,38,"C.bmp","Ikzelf","Matching","Self","Self","Self","Self","n",693,0.693,1
3,3,39,"S.bmp","Vreemde","Matching","Stranger","Stranger","Stranger","Stranger","n",767,0.767,1
3,3,40,"T.bmp","Ikzelf","Nonmatching","Self","Friend","Friend","Close","m",889,0.889,1
3,3,41,"C.bmp","Vreemde","Nonmatching","Stranger","Self","Self","Self","m",819,0.819,1
3,3,42,"S.bmp","Bekende","Nonmatching","Friend","Stranger","Stranger","Stranger","m",941,0.941,1
3,3,43,"T.bmp","Bekende","Matching","Friend","Friend","Friend","Close","n",647,0.647,1
3,3,44,"S.bmp","Vreemde","Matching","Stranger","Stranger","Stranger","Stranger","n",689,0.689,1
3,3,45,"T.bmp","Bekende","Matching","Friend","Friend","Friend","Close","n",764,0.764,1
3,3,46,"C.bmp","Ikzelf","Matching","Self","Self","Self","Self","n",646,0.646,1
3,3,47,"S.bmp","Ikzelf","Nonmatching","Self","Stranger","Stranger","Stranger","m",704,0.704,1
3,3,48,"T.bmp","Vreemde","Nonmatching","Stranger","Friend","Friend","Close","m",938,0.938,1
3,3,49,"S.bmp","Ikzelf","Nonmatching","Self","Stranger","Stranger","Stranger","m",740,0.74,1
3,3,50,"S.bmp","Vreemde","Matching","Stranger","Stranger","Stranger","Stranger","n",1037,1.037,1
3,3,51,"S.bmp","Bekende","Nonmatching","Friend","Stranger","Stranger","Stranger","m",887,0.887,1
3,3,52,"C.bmp","Bekende","Nonmatching","Friend","Self","Self","Self","m",881,0.881,1
3,3,53,"T.bmp","Bekende","Matching","Friend","Friend","Friend","Close","n",619,0.619,1
3,3,54,"C.bmp","Ikzelf","Matching","Self","Self","Self","Self","n",694,0.694,1
3,3,55,"T.bmp","Vreemde","Nonmatching","Stranger","Friend","Friend","Close","m",752,0.752,1
3,3,56,"C.bmp","Vreemde","Nonmatching","Stranger","Self","Self","Self","m",810,0.81,1
3,3,57,"C.bmp","Ikzelf","Matching","Self","Self","Self","Self","n",708,0.708,1
3,3,58,"S.bmp","Vreemde","Matching","Stranger","Stranger","Stranger","Stranger","n",670,0.67,1
3,3,59,"T.bmp","Bekende","Matching","Friend","Friend","Friend","Close","n",696,0.696,1
3,3,60,"T.bmp","Ikzelf","Nonmatching","Self","Friend","Friend","Close","m",690,0.69,1
3,4,1,"C.bmp","Ikzelf","Matching","Self","Self","Self","Self","n",648,0.648,1
3,4,2,"T.bmp","Ikzelf","Nonmatching","Self","Friend","Friend","Close","m",738,0.738,1
3,4,3,"T.bmp","Bekende","Matching","Friend","Friend","Friend","Close","n",780,0.78,1
3,4,4,"S.bmp","Ikzelf","Nonmatching","Self","Stranger","Stranger","Stranger","m",694,0.694,1
3,4,5,"C.bmp","Vreemde","Nonmatching","Stranger","Self","Self","Self","m",848,0.848,1
3,4,6,"T.bmp","Vreemde","Nonmatching","Stranger","Friend","Friend","Close","m",1115,1.115,1
3,4,7,"C.bmp","Ikzelf","Matching","Self","Self","Self","Self","n",709,0.709,1
3,4,8,"C.bmp","Bekende","Nonmatching","Friend","Self","Self","Self","m",671,0.671,1
3,4,9,"S.bmp","Vreemde","Matching","Stranger","Stranger","Stranger","Stranger","n",649,0.649,1
3,4,10,"S.bmp","Vreemde","Matching","Stranger","Stranger","Stranger","Stranger","n",803,0.803,1
3,4,11,"S.bmp","Bekende","Nonmatching","Friend","Stranger","Stranger","Stranger","m",1020,1.02,1
3,4,12,"T.bmp","Bekende","Matching","Friend","Friend","Friend","Close","n",806,0.806,1
3,4,13,"C.bmp","Bekende","Nonmatching","Friend","Self","Self","Self","m",656,0.656,1
3,4,14,"T.bmp","Ikzelf","Nonmatching","Self","Friend","Friend","Close","m",698,0.698,1
3,4,15,"T.bmp","Bekende","Matching","Friend","Friend","Friend","Close","n",757,0.757,1
3,4,16,"T.bmp","Bekende","Matching","Friend","Friend","Friend","Close","m",719,0.719,0
3,4,17,"S.bmp","Bekende","Nonmatching","Friend","Stranger","Stranger","Stranger","m",953,0.953,1
3,4,18,"S.bmp","Ikzelf","Nonmatching","Self","Stranger","Stranger","Stranger","m",707,0.707,1
3,4,19,"C.bmp","Ikzelf","Matching","Self","Self","Self","Self","n",781,0.781,1
3,4,20,"T.bmp","Vreemde","Nonmatching","Stranger","Friend","Friend","Close","m",1271,1.271,1
3,4,21,"C.bmp","Vreemde","Nonmatching","Stranger","Self","Self","Self","m",1089,1.089,1
3,4,22,"C.bmp","Ikzelf","Matching","Self","Self","Self","Self","n",603,0.603,1
3,4,23,"S.bmp","Vreemde","Matching","Stranger","Stranger","Stranger","Stranger","n",805,0.805,1
3,4,24,"S.bmp","Vreemde","Matching","Stranger","Stranger","Stranger","Stranger","n",608,0.608,1
3,4,25,"S.bmp","Bekende","Nonmatching","Friend","Stranger","Stranger","Stranger","m",714,0.714,1
3,4,26,"C.bmp","Ikzelf","Matching","Self","Self","Self","Self","n",708,0.708,1
3,4,27,"T.bmp","Vreemde","Nonmatching","Stranger","Friend","Friend","Close","n",765,0.765,0
3,4,28,"S.bmp","Vreemde","Matching","Stranger","Stranger","Stranger","Stranger","n",791,0.791,1
3,4,29,"T.bmp","Bekende","Matching","Friend","Friend","Friend","Close","n",1025,1.025,1
3,4,30,"T.bmp","Bekende","Matching","Friend","Friend","Friend","Close","n",715,0.715,1
3,4,31,"C.bmp","Bekende","Nonmatching","Friend","Self","Self","Self","n",741,0.741,0
3,4,32,"T.bmp","Ikzelf","Nonmatching","Self","Friend","Friend","Close","m",735,0.735,1
3,4,33,"S.bmp","Vreemde","Matching","Stranger","Stranger","Stranger","Stranger","m",858,0.858,0
3,4,34,"C.bmp","Ikzelf","Matching","Self","Self","Self","Self","n",708,0.708,1
3,4,35,"S.bmp","Ikzelf","Nonmatching","Self","Stranger","Stranger","Stranger","m",718,0.718,1
3,4,36,"C.bmp","Vreemde","Nonmatching","Stranger","Self","Self","Self","m",664,0.664,1
3,4,37,"S.bmp","Ikzelf","Nonmatching","Self","Stranger","Stranger","Stranger","m",754,0.754,1
3,4,38,"S.bmp","Vreemde","Matching","Stranger","Stranger","Stranger","Stranger","n",812,0.812,1
3,4,39,"T.bmp","Ikzelf","Nonmatching","Self","Friend","Friend","Close","m",758,0.758,1
3,4,40,"T.bmp","Bekende","Matching","Friend","Friend","Friend","Close","n",736,0.736,1
3,4,41,"T.bmp","Vreemde","Nonmatching","Stranger","Friend","Friend","Close","m",793,0.793,1
3,4,42,"T.bmp","Bekende","Matching","Friend","Friend","Friend","Close","n",708,0.708,1
3,4,43,"S.bmp","Bekende","Nonmatching","Friend","Stranger","Stranger","Stranger","m",782,0.782,1
3,4,44,"C.bmp","Vreemde","Nonmatching","Stranger","Self","Self","Self","m",776,0.776,1
3,4,45,"S.bmp","Vreemde","Matching","Stranger","Stranger","Stranger","Stranger","n",770,0.77,1
3,4,46,"C.bmp","Bekende","Nonmatching","Friend","Self","Self","Self","m",684,0.684,1
3,4,47,"C.bmp","Ikzelf","Matching","Self","Self","Self","Self","n",630,0.63,1
3,4,48,"C.bmp","Ikzelf","Matching","Self","Self","Self","Self","n",640,0.64,1
3,4,49,"T.bmp","Bekende","Matching","Friend","Friend","Friend","Close","n",842,0.842,1
3,4,50,"C.bmp","Ikzelf","Matching","Self","Self","Self","Self","n",756,0.756,1
3,4,51,"S.bmp","Vreemde","Matching","Stranger","Stranger","Stranger","Stranger","n",767,0.767,1
3,4,52,"C.bmp","Ikzelf","Matching","Self","Self","Self","Self","n",617,0.617,1
3,4,53,"C.bmp","Bekende","Nonmatching","Friend","Self","Self","Self","m",867,0.867,1
3,4,54,"S.bmp","Vreemde","Matching","Stranger","Stranger","Stranger","Stranger","n",860,0.86,1
3,4,55,"T.bmp","Bekende","Matching","Friend","Friend","Friend","Close","n",838,0.838,1
3,4,56,"C.bmp","Vreemde","Nonmatching","Stranger","Self","Self","Self","m",704,0.704,1
3,4,57,"S.bmp","Ikzelf","Nonmatching","Self","Stranger","Stranger","Stranger","m",714,0.714,1
3,4,58,"T.bmp","Vreemde","Nonmatching","Stranger","Friend","Friend","Close","n",820,0.82,0
3,4,59,"S.bmp","Bekende","Nonmatching","Friend","Stranger","Stranger","Stranger","n",942,0.942,0
3,4,60,"T.bmp","Ikzelf","Nonmatching","Self","Friend","Friend","Close","m",872,0.872,1
3,5,1,"S.bmp","Bekende","Nonmatching","Friend","Stranger","Stranger","Stranger","m",1022,1.022,1
3,5,2,"T.bmp","Ikzelf","Nonmatching","Self","Friend","Friend","Close","m",664,0.664,1
3,5,3,"C.bmp","Ikzelf","Matching","Self","Self","Self","Self","n",547,0.547,1
3,5,4,"C.bmp","Ikzelf","Matching","Self","Self","Self","Self","n",605,0.605,1
3,5,5,"C.bmp","Bekende","Nonmatching","Friend","Self","Self","Self","m",727,0.727,1
3,5,6,"C.bmp","Vreemde","Nonmatching","Stranger","Self","Self","Self","m",721,0.721,1
3,5,7,"S.bmp","Vreemde","Matching","Stranger","Stranger","Stranger","Stranger","n",619,0.619,1
3,5,8,"S.bmp","Vreemde","Matching","Stranger","Stranger","Stranger","Stranger","n",677,0.677,1
3,5,9,"T.bmp","Vreemde","Nonmatching","Stranger","Friend","Friend","Close","m",959,0.959,1
3,5,10,"T.bmp","Bekende","Matching","Friend","Friend","Friend","Close","n",713,0.713,1
3,5,11,"T.bmp","Bekende","Matching","Friend","Friend","Friend","Close","n",739,0.739,1
3,5,12,"S.bmp","Ikzelf","Nonmatching","Self","Stranger","Stranger","Stranger","m",734,0.734,1
3,5,13,"C.bmp","Bekende","Nonmatching","Friend","Self","Self","Self","m",712,0.712,1
3,5,14,"S.bmp","Vreemde","Matching","Stranger","Stranger","Stranger","Stranger","n",690,0.69,1
3,5,15,"S.bmp","Bekende","Nonmatching","Friend","Stranger","Stranger","Stranger","m",955,0.955,1
3,5,16,"S.bmp","Vreemde","Matching","Stranger","Stranger","Stranger","Stranger","n",1221,1.221,1
3,5,17,"C.bmp","Ikzelf","Matching","Self","Self","Self","Self","n",639,0.639,1
3,5,18,"T.bmp","Ikzelf","Nonmatching","Self","Friend","Friend","Close","m",697,0.697,1
3,5,19,"C.bmp","Ikzelf","Matching","Self","Self","Self","Self","n",707,0.707,1
3,5,20,"T.bmp","Vreemde","Nonmatching","Stranger","Friend","Friend","Close","m",861,0.861,1
3,5,21,"T.bmp","Bekende","Matching","Friend","Friend","Friend","Close","n",744,0.744,1
3,5,22,"S.bmp","Ikzelf","Nonmatching","Self","Stranger","Stranger","Stranger","m",722,0.722,1
3,5,23,"C.bmp","Vreemde","Nonmatching","Stranger","Self","Self","Self","m",668,0.668,1
3,5,24,"T.bmp","Bekende","Matching","Friend","Friend","Friend","Close","n",886,0.886,1
3,5,25,"C.bmp","Ikzelf","Matching","Self","Self","Self","Self","n",624,0.624,1
3,5,26,"S.bmp","Vreemde","Matching","Stranger","Stranger","Stranger","Stranger","n",714,0.714,1
3,5,27,"T.bmp","Bekende","Matching","Friend","Friend","Friend","Close","n",612,0.612,1
3,5,28,"S.bmp","Vreemde","Matching","Stranger","Stranger","Stranger","Stranger","n",750,0.75,1
3,5,29,"C.bmp","Ikzelf","Matching","Self","Self","Self","Self","n",600,0.6,1
3,5,30,"C.bmp","Vreemde","Nonmatching","Stranger","Self","Self","Self","m",611,0.611,1
3,5,31,"T.bmp","Vreemde","Nonmatching","Stranger","Friend","Friend","Close","m",940,0.94,1
3,5,32,"S.bmp","Bekende","Nonmatching","Friend","Stranger","Stranger","Stranger","m",854,0.854,1
3,5,33,"T.bmp","Bekende","Matching","Friend","Friend","Friend","Close","n",608,0.608,1
3,5,34,"C.bmp","Bekende","Nonmatching","Friend","Self","Self","Self","m",618,0.618,1
3,5,35,"T.bmp","Ikzelf","Nonmatching","Self","Friend","Friend","Close","m",644,0.644,1
3,5,36,"S.bmp","Ikzelf","Nonmatching","Self","Stranger","Stranger","Stranger","m",638,0.638,1
3,5,37,"T.bmp","Bekende","Matching","Friend","Friend","Friend","Close","n",648,0.648,1
3,5,38,"C.bmp","Ikzelf","Matching","Self","Self","Self","Self","n",626,0.626,1
3,5,39,"S.bmp","Vreemde","Matching","Stranger","Stranger","Stranger","Stranger","n",701,0.701,1
3,5,40,"S.bmp","Ikzelf","Nonmatching","Self","Stranger","Stranger","Stranger","m",647,0.647,1
3,5,41,"C.bmp","Bekende","Nonmatching","Friend","Self","Self","Self","m",785,0.785,1
3,5,42,"C.bmp","Vreemde","Nonmatching","Stranger","Self","Self","Self","m",667,0.667,1
3,5,43,"S.bmp","Bekende","Nonmatching","Friend","Stranger","Stranger","Stranger","m",1013,1.013,1
3,5,44,"T.bmp","Vreemde","Nonmatching","Stranger","Friend","Friend","Close","m",911,0.911,1
3,5,45,"T.bmp","Ikzelf","Nonmatching","Self","Friend","Friend","Close","m",664,0.664,1
3,5,46,"T.bmp","Bekende","Matching","Friend","Friend","Friend","Close","n",722,0.722,1
3,5,47,"C.bmp","Ikzelf","Matching","Self","Self","Self","Self","n",956,0.956,1
3,5,48,"S.bmp","Vreemde","Matching","Stranger","Stranger","Stranger","Stranger","n",871,0.871,1
3,5,49,"C.bmp","Ikzelf","Matching","Self","Self","Self","Self","n",689,0.689,1
3,5,50,"T.bmp","Bekende","Matching","Friend","Friend","Friend","Close","n",715,0.715,1
3,5,51,"T.bmp","Vreemde","Nonmatching","Stranger","Friend","Friend","Close","m",789,0.789,1
3,5,52,"C.bmp","Vreemde","Nonmatching","Stranger","Self","Self","Self","m",687,0.687,1
3,5,53,"S.bmp","Bekende","Nonmatching","Friend","Stranger","Stranger","Stranger","m",1001,1.001,1
3,5,54,"S.bmp","Vreemde","Matching","Stranger","Stranger","Stranger","Stranger","n",787,0.787,1
3,5,55,"C.bmp","Bekende","Nonmatching","Friend","Self","Self","Self","m",701,0.701,1
3,5,56,"S.bmp","Vreemde","Matching","Stranger","Stranger","Stranger","Stranger","n",919,0.919,1
3,5,57,"T.bmp","Ikzelf","Nonmatching","Self","Friend","Friend","Close","m",737,0.737,1
3,5,58,"T.bmp","Bekende","Matching","Friend","Friend","Friend","Close","n",747,0.747,1
3,5,59,"S.bmp","Ikzelf","Nonmatching","Self","Stranger","Stranger","Stranger","m",693,0.693,1
3,5,60,"C.bmp","Ikzelf","Matching","Self","Self","Self","Self","n",703,0.703,1
3,6,1,"S.bmp","Vreemde","Matching","Stranger","Stranger","Stranger","Stranger","n",1462,1.462,1
3,6,2,"S.bmp","Bekende","Nonmatching","Friend","Stranger","Stranger","Stranger","m",880,0.88,1
3,6,3,"C.bmp","Vreemde","Nonmatching","Stranger","Self","Self","Self","m",762,0.762,1
3,6,4,"C.bmp","Bekende","Nonmatching","Friend","Self","Self","Self","m",772,0.772,1
3,6,5,"S.bmp","Ikzelf","Nonmatching","Self","Stranger","Stranger","Stranger","m",702,0.702,1
3,6,6,"S.bmp","Vreemde","Matching","Stranger","Stranger","Stranger","Stranger","n",855,0.855,1
3,6,7,"T.bmp","Bekende","Matching","Friend","Friend","Friend","Close","n",737,0.737,1
3,6,8,"T.bmp","Bekende","Matching","Friend","Friend","Friend","Close","n",763,0.763,1
3,6,9,"C.bmp","Ikzelf","Matching","Self","Self","Self","Self","n",646,0.646,1
3,6,10,"C.bmp","Ikzelf","Matching","Self","Self","Self","Self","n",784,0.784,1
3,6,11,"T.bmp","Ikzelf","Nonmatching","Self","Friend","Friend","Close","m",698,0.698,1
3,6,12,"T.bmp","Vreemde","Nonmatching","Stranger","Friend","Friend","Close","m",964,0.964,1
3,6,13,"S.bmp","Vreemde","Matching","Stranger","Stranger","Stranger","Stranger","n",654,0.654,1
3,6,14,"T.bmp","Bekende","Matching","Friend","Friend","Friend","Close","n",632,0.632,1
3,6,15,"C.bmp","Ikzelf","Matching","Self","Self","Self","Self","n",642,0.642,1
3,6,16,"T.bmp","Ikzelf","Nonmatching","Self","Friend","Friend","Close","m",636,0.636,1
3,6,17,"C.bmp","Ikzelf","Matching","Self","Self","Self","Self","n",678,0.678,1
3,6,18,"T.bmp","Bekende","Matching","Friend","Friend","Friend","Close","n",673,0.673,1
3,6,19,"C.bmp","Vreemde","Nonmatching","Stranger","Self","Self","Self","m",763,0.763,1
3,6,20,"C.bmp","Bekende","Nonmatching","Friend","Self","Self","Self","m",645,0.645,1
3,6,21,"S.bmp","Ikzelf","Nonmatching","Self","Stranger","Stranger","Stranger","m",734,0.734,1
3,6,22,"S.bmp","Vreemde","Matching","Stranger","Stranger","Stranger","Stranger","n",824,0.824,1
3,6,23,"S.bmp","Bekende","Nonmatching","Friend","Stranger","Stranger","Stranger","m",1074,1.074,1
3,6,24,"T.bmp","Vreemde","Nonmatching","Stranger","Friend","Friend","Close","m",828,0.828,1
3,6,25,"S.bmp","Vreemde","Matching","Stranger","Stranger","Stranger","Stranger","n",774,0.774,1
3,6,26,"C.bmp","Bekende","Nonmatching","Friend","Self","Self","Self","m",736,0.736,1
3,6,27,"T.bmp","Bekende","Matching","Friend","Friend","Friend","Close","n",667,0.667,1
3,6,28,"T.bmp","Bekende","Matching","Friend","Friend","Friend","Close","n",869,0.869,1
3,6,29,"S.bmp","Ikzelf","Nonmatching","Self","Stranger","Stranger","Stranger","m",703,0.703,1
3,6,30,"S.bmp","Vreemde","Matching","Stranger","Stranger","Stranger","Stranger","n",873,0.873,1
3,6,31,"C.bmp","Ikzelf","Matching","Self","Self","Self","Self","n",659,0.659,1
3,6,32,"T.bmp","Vreemde","Nonmatching","Stranger","Friend","Friend","Close","m",765,0.765,1
3,6,33,"C.bmp","Ikzelf","Matching","Self","Self","Self","Self","n",647,0.647,1
3,6,34,"C.bmp","Vreemde","Nonmatching","Stranger","Self","Self","Self","m",689,0.689,1
3,6,35,"S.bmp","Bekende","Nonmatching","Friend","Stranger","Stranger","Stranger","m",1130,1.13,1
3,6,36,"T.bmp","Ikzelf","Nonmatching","Self","Friend","Friend","Close","m",677,0.677,1
3,6,37,"C.bmp","Ikzelf","Matching","Self","Self","Self","Self","n",751,0.751,1
3,6,38,"C.bmp","Vreemde","Nonmatching","Stranger","Self","Self","Self","m",585,0.585,1
3,6,39,"S.bmp","Vreemde","Matching","Stranger","Stranger","Stranger","Stranger","n",675,0.675,1
3,6,40,"T.bmp","Vreemde","Nonmatching","Stranger","Friend","Friend","Close","m",637,0.637,1
3,6,41,"S.bmp","Vreemde","Matching","Stranger","Stranger","Stranger","Stranger","n",807,0.807,1
3,6,42,"T.bmp","Ikzelf","Nonmatching","Self","Friend","Friend","Close","m",641,0.641,1
3,6,43,"C.bmp","Bekende","Nonmatching","Friend","Self","Self","Self","m",651,0.651,1
3,6,44,"S.bmp","Ikzelf","Nonmatching","Self","Stranger","Stranger","Stranger","m",677,0.677,1
3,6,45,"C.bmp","Ikzelf","Matching","Self","Self","Self","Self","n",816,0.816,1
3,6,46,"T.bmp","Bekende","Matching","Friend","Friend","Friend","Close","n",794,0.794,1
3,6,47,"S.bmp","Bekende","Nonmatching","Friend","Stranger","Stranger","Stranger","m",996,0.996,1
3,6,48,"T.bmp","Bekende","Matching","Friend","Friend","Friend","Close","n",702,0.702,1
3,6,49,"T.bmp","Ikzelf","Nonmatching","Self","Friend","Friend","Close","m",632,0.632,1
3,6,50,"T.bmp","Bekende","Matching","Friend","Friend","Friend","Close","n",945,0.945,1
3,6,51,"C.bmp","Bekende","Nonmatching","Friend","Self","Self","Self","m",619,0.619,1
3,6,52,"S.bmp","Vreemde","Matching","Stranger","Stranger","Stranger","Stranger","n",613,0.613,1
3,6,53,"S.bmp","Vreemde","Matching","Stranger","Stranger","Stranger","Stranger","m",671,0.671,0
3,6,54,"T.bmp","Bekende","Matching","Friend","Friend","Friend","Close","n",633,0.633,1
3,6,55,"C.bmp","Ikzelf","Matching","Self","Self","Self","Self","n",612,0.612,1
3,6,56,"S.bmp","Ikzelf","Nonmatching","Self","Stranger","Stranger","Stranger","m",638,0.638,1
3,6,57,"S.bmp","Bekende","Nonmatching","Friend","Stranger","Stranger","Stranger","m",1080,1.08,1
3,6,58,"C.bmp","Vreemde","Nonmatching","Stranger","Self","Self","Self","m",626,0.626,1
3,6,59,"C.bmp","Ikzelf","Matching","Self","Self","Self","Self","n",572,0.572,1
3,6,60,"T.bmp","Vreemde","Nonmatching","Stranger","Friend","Friend","Close","m",838,0.838,1
4,1,1,"C.bmp","Bekende","Matching","Friend","Friend","Friend","Close","",0,0,0
4,1,2,"S.bmp","Ikzelf","Nonmatching","Self","Stranger","Stranger","Stranger","n",1014,1.014,1
4,1,3,"T.bmp","Ikzelf","Matching","Self","Self","Self","Self","m",753,0.753,1
4,1,4,"S.bmp","Vreemde","Matching","Stranger","Stranger","Stranger","Stranger","n",619,0.619,0
4,1,5,"C.bmp","Vreemde","Nonmatching","Stranger","Friend","Friend","Close","n",1029,1.029,1
4,1,6,"T.bmp","Ikzelf","Matching","Self","Self","Self","Self","m",943,0.943,1
4,1,7,"C.bmp","Bekende","Matching","Friend","Friend","Friend","Close","m",841,0.841,1
4,1,8,"T.bmp","Bekende","Nonmatching","Friend","Self","Self","Self","n",787,0.787,1
4,1,9,"C.bmp","Ikzelf","Nonmatching","Self","Friend","Friend","Close","n",957,0.957,1
4,1,10,"T.bmp","Vreemde","Nonmatching","Stranger","Self","Self","Self","n",1111,1.111,1
4,1,11,"S.bmp","Bekende","Nonmatching","Friend","Stranger","Stranger","Stranger","m",1041,1.041,0
4,1,12,"S.bmp","Vreemde","Matching","Stranger","Stranger","Stranger","Stranger","n",1115,1.115,0
4,1,13,"T.bmp","Bekende","Nonmatching","Friend","Self","Self","Self","n",1045,1.045,1
4,1,14,"C.bmp","Bekende","Matching","Friend","Friend","Friend","Close","n",911,0.911,0
4,1,15,"C.bmp","Vreemde","Nonmatching","Stranger","Friend","Friend","Close","n",937,0.937,1
4,1,16,"S.bmp","Ikzelf","Nonmatching","Self","Stranger","Stranger","Stranger","n",787,0.787,1
4,1,17,"T.bmp","Ikzelf","Matching","Self","Self","Self","Self","m",749,0.749,1
4,1,18,"C.bmp","Bekende","Matching","Friend","Friend","Friend","Close","m",1175,1.175,1
4,1,19,"S.bmp","Vreemde","Matching","Stranger","Stranger","Stranger","Stranger","m",705,0.705,1
4,1,20,"T.bmp","Vreemde","Nonmatching","Stranger","Self","Self","Self","n",843,0.843,1
4,1,21,"T.bmp","Ikzelf","Matching","Self","Self","Self","Self","m",758,0.758,1
4,1,22,"S.bmp","Vreemde","Matching","Stranger","Stranger","Stranger","Stranger","m",1136,1.136,1
4,1,23,"S.bmp","Bekende","Nonmatching","Friend","Stranger","Stranger","Stranger","m",794,0.794,0
4,1,24,"C.bmp","Ikzelf","Nonmatching","Self","Friend","Friend","Close","n",724,0.724,1
4,1,25,"C.bmp","Bekende","Matching","Friend","Friend","Friend","Close","m",814,0.814,1
4,1,26,"T.bmp","Ikzelf","Matching","Self","Self","Self","Self","m",824,0.824,1
4,1,27,"C.bmp","Ikzelf","Nonmatching","Self","Friend","Friend","Close","m",737,0.737,0
4,1,28,"S.bmp","Vreemde","Matching","Stranger","Stranger","Stranger","Stranger","m",939,0.939,1
4,1,29,"T.bmp","Bekende","Nonmatching","Friend","Self","Self","Self","n",725,0.725,1
4,1,30,"C.bmp","Bekende","Matching","Friend","Friend","Friend","Close","m",927,0.927,1
4,1,31,"C.bmp","Vreemde","Nonmatching","Stranger","Friend","Friend","Close","n",826,0.826,1
4,1,32,"S.bmp","Bekende","Nonmatching","Friend","Stranger","Stranger","Stranger","m",1332,1.332,0
4,1,33,"T.bmp","Vreemde","Nonmatching","Stranger","Self","Self","Self","m",958,0.958,0
4,1,34,"S.bmp","Vreemde","Matching","Stranger","Stranger","Stranger","Stranger","m",824,0.824,1
4,1,35,"T.bmp","Ikzelf","Matching","Self","Self","Self","Self","m",866,0.866,1
4,1,36,"S.bmp","Ikzelf","Nonmatching","Self","Stranger","Stranger","Stranger","n",972,0.972,1
4,1,37,"T.bmp","Vreemde","Nonmatching","Stranger","Self","Self","Self","n",1190,1.19,1
4,1,38,"T.bmp","Bekende","Nonmatching","Friend","Self","Self","Self","n",944,0.944,1
4,1,39,"C.bmp","Bekende","Matching","Friend","Friend","Friend","Close","m",730,0.73,1
4,1,40,"T.bmp","Ikzelf","Matching","Self","Self","Self","Self","n",661,0.661,0
4,1,41,"C.bmp","Bekende","Matching","Friend","Friend","Friend","Close","n",959,0.959,0
4,1,42,"S.bmp","Bekende","Nonmatching","Friend","Stranger","Stranger","Stranger","n",872,0.872,1
4,1,43,"S.bmp","Vreemde","Matching","Stranger","Stranger","Stranger","Stranger","m",978,0.978,1
4,1,44,"C.bmp","Ikzelf","Nonmatching","Self","Friend","Friend","Close","n",908,0.908,1
4,1,45,"S.bmp","Vreemde","Matching","Stranger","Stranger","Stranger","Stranger","m",870,0.87,1
4,1,46,"T.bmp","Ikzelf","Matching","Self","Self","Self","Self","m",784,0.784,1
4,1,47,"S.bmp","Ikzelf","Nonmatching","Self","Stranger","Stranger","Stranger","n",986,0.986,1
4,1,48,"C.bmp","Vreemde","Nonmatching","Stranger","Friend","Friend","Close","m",1012,1.012,0
4,1,49,"T.bmp","Bekende","Nonmatching","Friend","Self","Self","Self","n",815,0.815,1
4,1,50,"S.bmp","Vreemde","Matching","Stranger","Stranger","Stranger","Stranger","m",1433,1.433,1
4,1,51,"C.bmp","Ikzelf","Nonmatching","Self","Friend","Friend","Close","n",963,0.963,1
4,1,52,"T.bmp","Ikzelf","Matching","Self","Self","Self","Self","m",797,0.797,1
4,1,53,"S.bmp","Bekende","Nonmatching","Friend","Stranger","Stranger","Stranger","n",1367,1.367,1
4,1,54,"S.bmp","Vreemde","Matching","Stranger","Stranger","Stranger","Stranger","m",1073,1.073,1
4,1,55,"T.bmp","Vreemde","Nonmatching","Stranger","Self","Self","Self","n",746,0.746,1
4,1,56,"C.bmp","Vreemde","Nonmatching","Stranger","Friend","Friend","Close","n",772,0.772,1
4,1,57,"C.bmp","Bekende","Matching","Friend","Friend","Friend","Close","m",686,0.686,1
4,1,58,"C.bmp","Bekende","Matching","Friend","Friend","Friend","Close","m",617,0.617,1
4,1,59,"T.bmp","Ikzelf","Matching","Self","Self","Self","Self","m",723,0.723,1
4,1,60,"S.bmp","Ikzelf","Nonmatching","Self","Stranger","Stranger","Stranger","n",797,0.797,1
4,2,1,"S.bmp","Vreemde","Matching","Stranger","Stranger","Stranger","Stranger","m",900,0.9,1
4,2,2,"C.bmp","Bekende","Matching","Friend","Friend","Friend","Close","m",702,0.702,1
4,2,3,"C.bmp","Vreemde","Nonmatching","Stranger","Friend","Friend","Close","n",679,0.679,1
4,2,4,"T.bmp","Ikzelf","Matching","Self","Self","Self","Self","m",657,0.657,1
4,2,5,"S.bmp","Bekende","Nonmatching","Friend","Stranger","Stranger","Stranger","m",1051,1.051,0
4,2,6,"C.bmp","Bekende","Matching","Friend","Friend","Friend","Close","m",965,0.965,1
4,2,7,"S.bmp","Ikzelf","Nonmatching","Self","Stranger","Stranger","Stranger","n",847,0.847,1
4,2,8,"T.bmp","Bekende","Nonmatching","Friend","Self","Self","Self","n",745,0.745,1
4,2,9,"S.bmp","Vreemde","Matching","Stranger","Stranger","Stranger","Stranger","m",852,0.852,1
4,2,10,"C.bmp","Ikzelf","Nonmatching","Self","Friend","Friend","Close","n",974,0.974,1
4,2,11,"T.bmp","Ikzelf","Matching","Self","Self","Self","Self","m",744,0.744,1
4,2,12,"T.bmp","Vreemde","Nonmatching","Stranger","Self","Self","Self","n",914,0.914,1
4,2,13,"C.bmp","Ikzelf","Nonmatching","Self","Friend","Friend","Close","n",988,0.988,1
4,2,14,"T.bmp","Ikzelf","Matching","Self","Self","Self","Self","n",902,0.902,0
4,2,15,"T.bmp","Ikzelf","Matching","Self","Self","Self","Self","m",720,0.72,1
4,2,16,"T.bmp","Vreemde","Nonmatching","Stranger","Self","Self","Self","n",890,0.89,1
4,2,17,"S.bmp","Bekende","Nonmatching","Friend","Stranger","Stranger","Stranger","n",947,0.947,1
4,2,18,"C.bmp","Bekende","Matching","Friend","Friend","Friend","Close","m",1038,1.038,1
4,2,19,"S.bmp","Vreemde","Matching","Stranger","Stranger","Stranger","Stranger","m",1208,1.208,1
4,2,20,"S.bmp","Vreemde","Matching","Stranger","Stranger","Stranger","Stranger","n",1266,1.266,0
4,2,21,"C.bmp","Bekende","Matching","Friend","Friend","Friend","Close","m",748,0.748,1
4,2,22,"S.bmp","Ikzelf","Nonmatching","Self","Stranger","Stranger","Stranger","n",998,0.998,1
4,2,23,"C.bmp","Vreemde","Nonmatching","Stranger","Friend","Friend","Close","m",1184,1.184,0
4,2,24,"T.bmp","Bekende","Nonmatching","Friend","Self","Self","Self","n",970,0.97,1
4,2,25,"S.bmp","Vreemde","Matching","Stranger","Stranger","Stranger","Stranger","m",1028,1.028,1
4,2,26,"C.bmp","Vreemde","Nonmatching","Stranger","Friend","Friend","Close","n",942,0.942,1
4,2,27,"C.bmp","Ikzelf","Nonmatching","Self","Friend","Friend","Close","m",905,0.905,0
4,2,28,"C.bmp","Bekende","Matching","Friend","Friend","Friend","Close","m",1027,1.027,1
4,2,29,"T.bmp","Bekende","Nonmatching","Friend","Self","Self","Self","n",893,0.893,1
4,2,30,"T.bmp","Vreemde","Nonmatching","Stranger","Self","Self","Self","n",1095,1.095,1
4,2,31,"S.bmp","Ikzelf","Nonmatching","Self","Stranger","Stranger","Stranger","n",1072,1.072,1
4,2,32,"C.bmp","Bekende","Matching","Friend","Friend","Friend","Close","m",922,0.922,1
4,2,33,"T.bmp","Ikzelf","Matching","Self","Self","Self","Self","m",804,0.804,1
4,2,34,"T.bmp","Ikzelf","Matching","Self","Self","Self","Self","m",766,0.766,1
4,2,35,"S.bmp","Vreemde","Matching","Stranger","Stranger","Stranger","Stranger","m",648,0.648,1
4,2,36,"S.bmp","Bekende","Nonmatching","Friend","Stranger","Stranger","Stranger","n",770,0.77,1
4,2,37,"S.bmp","Vreemde","Matching","Stranger","Stranger","Stranger","Stranger","m",941,0.941,1
4,2,38,"S.bmp","Bekende","Nonmatching","Friend","Stranger","Stranger","Stranger","m",967,0.967,0
4,2,39,"S.bmp","Vreemde","Matching","Stranger","Stranger","Stranger","Stranger","m",865,0.865,1
4,2,40,"C.bmp","Bekende","Matching","Friend","Friend","Friend","Close","m",699,0.699,1
4,2,41,"T.bmp","Bekende","Nonmatching","Friend","Self","Self","Self","n",997,0.997,1
4,2,42,"S.bmp","Ikzelf","Nonmatching","Self","Stranger","Stranger","Stranger","n",815,0.815,1
4,2,43,"C.bmp","Vreemde","Nonmatching","Stranger","Friend","Friend","Close","m",841,0.841,0
4,2,44,"C.bmp","Bekende","Matching","Friend","Friend","Friend","Close","m",499,0.499,1
4,2,45,"T.bmp","Ikzelf","Matching","Self","Self","Self","Self","m",733,0.733,1
4,2,46,"T.bmp","Ikzelf","Matching","Self","Self","Self","Self","m",679,0.679,1
4,2,47,"T.bmp","Vreemde","Nonmatching","Stranger","Self","Self","Self","n",1153,1.153,1
4,2,48,"C.bmp","Ikzelf","Nonmatching","Self","Friend","Friend","Close","n",1003,1.003,1
4,2,49,"C.bmp","Bekende","Matching","Friend","Friend","Friend","Close","m",1093,1.093,1
4,2,50,"C.bmp","Ikzelf","Nonmatching","Self","Friend","Friend","Close","n",863,0.863,1
4,2,51,"S.bmp","Vreemde","Matching","Stranger","Stranger","Stranger","Stranger","m",857,0.857,1
4,2,52,"C.bmp","Bekende","Matching","Friend","Friend","Friend","Close","n",931,0.931,0
4,2,53,"S.bmp","Ikzelf","Nonmatching","Self","Stranger","Stranger","Stranger","m",1213,1.213,0
4,2,54,"S.bmp","Vreemde","Matching","Stranger","Stranger","Stranger","Stranger","m",839,0.839,1
4,2,55,"T.bmp","Vreemde","Nonmatching","Stranger","Self","Self","Self","n",866,0.866,1
4,2,56,"T.bmp","Bekende","Nonmatching","Friend","Self","Self","Self","n",1036,1.036,1
4,2,57,"C.bmp","Vreemde","Nonmatching","Stranger","Friend","Friend","Close","m",1046,1.046,0
4,2,58,"S.bmp","Bekende","Nonmatching","Friend","Stranger","Stranger","Stranger","n",864,0.864,1
4,2,59,"T.bmp","Ikzelf","Matching","Self","Self","Self","Self","m",874,0.874,1
4,2,60,"T.bmp","Ikzelf","Matching","Self","Self","Self","Self","n",931,0.931,0
4,3,1,"T.bmp","Vreemde","Nonmatching","Stranger","Self","Self","Self","n",938,0.938,1
4,3,2,"T.bmp","Ikzelf","Matching","Self","Self","Self","Self","m",660,0.66,1
4,3,3,"S.bmp","Bekende","Nonmatching","Friend","Stranger","Stranger","Stranger","n",670,0.67,1
4,3,4,"S.bmp","Vreemde","Matching","Stranger","Stranger","Stranger","Stranger","n",552,0.552,0
4,3,5,"S.bmp","Ikzelf","Nonmatching","Self","Stranger","Stranger","Stranger","n",738,0.738,1
4,3,6,"T.bmp","Ikzelf","Matching","Self","Self","Self","Self","m",781,0.781,1
4,3,7,"S.bmp","Vreemde","Matching","Stranger","Stranger","Stranger","Stranger","m",966,0.966,1
4,3,8,"C.bmp","Bekende","Matching","Friend","Friend","Friend","Close","m",656,0.656,1
4,3,9,"C.bmp","Vreemde","Nonmatching","Stranger","Friend","Friend","Close","n",698,0.698,1
4,3,10,"T.bmp","Bekende","Nonmatching","Friend","Self","Self","Self","n",868,0.868,1
4,3,11,"C.bmp","Bekende","Matching","Friend","Friend","Friend","Close","m",990,0.99,1
4,3,12,"C.bmp","Ikzelf","Nonmatching","Self","Friend","Friend","Close","n",1112,1.112,1
4,3,13,"T.bmp","Vreemde","Nonmatching","Stranger","Self","Self","Self","n",866,0.866,1
4,3,14,"C.bmp","Bekende","Matching","Friend","Friend","Friend","Close","m",1228,1.228,1
4,3,15,"S.bmp","Vreemde","Matching","Stranger","Stranger","Stranger","Stranger","n",1015,1.015,0
4,3,16,"S.bmp","Bekende","Nonmatching","Friend","Stranger","Stranger","Stranger","n",801,0.801,1
4,3,17,"S.bmp","Ikzelf","Nonmatching","Self","Stranger","Stranger","Stranger","n",875,0.875,1
4,3,18,"C.bmp","Ikzelf","Nonmatching","Self","Friend","Friend","Close","n",1125,1.125,1
4,3,19,"T.bmp","Ikzelf","Matching","Self","Self","Self","Self","m",847,0.847,1
4,3,20,"C.bmp","Bekende","Matching","Friend","Friend","Friend","Close","m",872,0.872,1
4,3,21,"T.bmp","Bekende","Nonmatching","Friend","Self","Self","Self","n",899,0.899,1
4,3,22,"C.bmp","Vreemde","Nonmatching","Stranger","Friend","Friend","Close","n",796,0.796,1
4,3,23,"S.bmp","Vreemde","Matching","Stranger","Stranger","Stranger","Stranger","m",710,0.71,1
4,3,24,"T.bmp","Ikzelf","Matching","Self","Self","Self","Self","m",689,0.689,1
4,3,25,"S.bmp","Ikzelf","Nonmatching","Self","Stranger","Stranger","Stranger","n",971,0.971,1
4,3,26,"S.bmp","Vreemde","Matching","Stranger","Stranger","Stranger","Stranger","m",677,0.677,1
4,3,27,"S.bmp","Vreemde","Matching","Stranger","Stranger","Stranger","Stranger","m",607,0.607,1
4,3,28,"T.bmp","Vreemde","Nonmatching","Stranger","Self","Self","Self","n",825,0.825,1
4,3,29,"T.bmp","Bekende","Nonmatching","Friend","Self","Self","Self","n",1123,1.123,1
4,3,30,"C.bmp","Bekende","Matching","Friend","Friend","Friend","Close","m",861,0.861,1
4,3,31,"S.bmp","Bekende","Nonmatching","Friend","Stranger","Stranger","Stranger","n",791,0.791,1
4,3,32,"T.bmp","Ikzelf","Matching","Self","Self","Self","Self","m",657,0.657,1
4,3,33,"T.bmp","Ikzelf","Matching","Self","Self","Self","Self","m",603,0.603,1
4,3,34,"C.bmp","Bekende","Matching","Friend","Friend","Friend","Close","n",758,0.758,0
4,3,35,"C.bmp","Ikzelf","Nonmatching","Self","Friend","Friend","Close","n",1343,1.343,1
4,3,36,"C.bmp","Vreemde","Nonmatching","Stranger","Friend","Friend","Close","m",1081,1.081,0
4,3,37,"S.bmp","Vreemde","Matching","Stranger","Stranger","Stranger","Stranger","n",1011,1.011,0
4,3,38,"S.bmp","Ikzelf","Nonmatching","Self","Stranger","Stranger","Stranger","n",909,0.909,1
4,3,39,"C.bmp","Bekende","Matching","Friend","Friend","Friend","Close","m",823,0.823,1
4,3,40,"S.bmp","Vreemde","Matching","Stranger","Stranger","Stranger","Stranger","n",817,0.817,0
4,3,41,"C.bmp","Bekende","Matching","Friend","Friend","Friend","Close","m",859,0.859,1
4,3,42,"T.bmp","Bekende","Nonmatching","Friend","Self","Self","Self","n",725,0.725,1
4,3,43,"T.bmp","Vreemde","Nonmatching","Stranger","Self","Self","Self","n",768,0.768,1
4,3,44,"C.bmp","Ikzelf","Nonmatching","Self","Friend","Friend","Close","n",970,0.97,1
4,3,45,"T.bmp","Ikzelf","Matching","Self","Self","Self","Self","m",724,0.724,1
4,3,46,"T.bmp","Ikzelf","Matching","Self","Self","Self","Self","m",590,0.59,1
4,3,47,"C.bmp","Vreemde","Nonmatching","Stranger","Friend","Friend","Close","n",648,0.648,1
4,3,48,"S.bmp","Bekende","Nonmatching","Friend","Stranger","Stranger","Stranger","n",626,0.626,1
4,3,49,"S.bmp","Vreemde","Matching","Stranger","Stranger","Stranger","Stranger","m",555,0.555,1
4,3,50,"C.bmp","Ikzelf","Nonmatching","Self","Friend","Friend","Close","n",661,0.661,1
4,3,51,"S.bmp","Bekende","Nonmatching","Friend","Stranger","Stranger","Stranger","m",975,0.975,0
4,3,52,"S.bmp","Ikzelf","Nonmatching","Self","Stranger","Stranger","Stranger","n",778,0.778,1
4,3,53,"C.bmp","Bekende","Matching","Friend","Friend","Friend","Close","n",788,0.788,0
4,3,54,"C.bmp","Bekende","Matching","Friend","Friend","Friend","Close","m",622,0.622,1
4,3,55,"C.bmp","Vreemde","Nonmatching","Stranger","Friend","Friend","Close","n",888,0.888,1
4,3,56,"T.bmp","Ikzelf","Matching","Self","Self","Self","Self","m",674,0.674,1
4,3,57,"T.bmp","Ikzelf","Matching","Self","Self","Self","Self","m",620,0.62,1
4,3,58,"T.bmp","Bekende","Nonmatching","Friend","Self","Self","Self","n",678,0.678,1
4,3,59,"S.bmp","Vreemde","Matching","Stranger","Stranger","Stranger","Stranger","m",848,0.848,1
4,3,60,"T.bmp","Vreemde","Nonmatching","Stranger","Self","Self","Self","n",730,0.73,1
4,4,1,"T.bmp","Bekende","Nonmatching","Friend","Self","Self","Self","n",1568,1.568,1
4,4,2,"T.bmp","Ikzelf","Matching","Self","Self","Self","Self","m",634,0.634,1
4,4,3,"S.bmp","Bekende","Nonmatching","Friend","Stranger","Stranger","Stranger","m",853,0.853,0
4,4,4,"S.bmp","Vreemde","Matching","Stranger","Stranger","Stranger","Stranger","m",703,0.703,1
4,4,5,"T.bmp","Ikzelf","Matching","Self","Self","Self","Self","m",713,0.713,1
4,4,6,"C.bmp","Vreemde","Nonmatching","Stranger","Friend","Friend","Close","n",787,0.787,1
4,4,7,"C.bmp","Bekende","Matching","Friend","Friend","Friend","Close","m",589,0.589,1
4,4,8,"S.bmp","Vreemde","Matching","Stranger","Stranger","Stranger","Stranger","m",535,0.535,1
4,4,9,"S.bmp","Ikzelf","Nonmatching","Self","Stranger","Stranger","Stranger","m",433,0.433,0
4,4,10,"T.bmp","Vreemde","Nonmatching","Stranger","Self","Self","Self","n",715,0.715,1
4,4,11,"C.bmp","Ikzelf","Nonmatching","Self","Friend","Friend","Close","m",661,0.661,0
4,4,12,"C.bmp","Bekende","Matching","Friend","Friend","Friend","Close","n",703,0.703,0
4,4,13,"T.bmp","Ikzelf","Matching","Self","Self","Self","Self","m",745,0.745,1
4,4,14,"C.bmp","Bekende","Matching","Friend","Friend","Friend","Close","m",771,0.771,1
4,4,15,"C.bmp","Ikzelf","Nonmatching","Self","Friend","Friend","Close","m",797,0.797,0
4,4,16,"T.bmp","Ikzelf","Matching","Self","Self","Self","Self","m",567,0.567,1
4,4,17,"C.bmp","Bekende","Matching","Friend","Friend","Friend","Close","n",705,0.705,0
4,4,18,"S.bmp","Ikzelf","Nonmatching","Self","Stranger","Stranger","Stranger","m",731,0.731,0
4,4,19,"S.bmp","Bekende","Nonmatching","Friend","Stranger","Stranger","Stranger","n",805,0.805,1
4,4,20,"C.bmp","Vreemde","Nonmatching","Stranger","Friend","Friend","Close","m",623,0.623,0
4,4,21,"S.bmp","Vreemde","Matching","Stranger","Stranger","Stranger","Stranger","m",602,0.602,1
4,4,22,"S.bmp","Vreemde","Matching","Stranger","Stranger","Stranger","Stranger","m",708,0.708,1
4,4,23,"T.bmp","Bekende","Nonmatching","Friend","Self","Self","Self","n",814,0.814,1
4,4,24,"T.bmp","Vreemde","Nonmatching","Stranger","Self","Self","Self","n",696,0.696,1
4,4,25,"T.bmp","Ikzelf","Matching","Self","Self","Self","Self","m",673,0.673,1
4,4,26,"T.bmp","Vreemde","Nonmatching","Stranger","Self","Self","Self","n",635,0.635,1
4,4,27,"C.bmp","Bekende","Matching","Friend","Friend","Friend","Close","m",581,0.581,1
4,4,28,"S.bmp","Bekende","Nonmatching","Friend","Stranger","Stranger","Stranger","n",783,0.783,1
4,4,29,"S.bmp","Ikzelf","Nonmatching","Self","Stranger","Stranger","Stranger","m",649,0.649,0
4,4,30,"T.bmp","Ikzelf","Matching","Self","Self","Self","Self","m",612,0.612,1
4,4,31,"C.bmp","Bekende","Matching","Friend","Friend","Friend","Close","m",750,0.75,1
4,4,32,"S.bmp","Vreemde","Matching","Stranger","Stranger","Stranger","Stranger","m",904,0.904,1
4,4,33,"T.bmp","Bekende","Nonmatching","Friend","Self","Self","Self","n",882,0.882,1
4,4,34,"C.bmp","Vreemde","Nonmatching","Stranger","Friend","Friend","Close","m",1004,1.004,0
4,4,35,"S.bmp","Vreemde","Matching","Stranger","Stranger","Stranger","Stranger","",0,0,0
4,4,36,"C.bmp","Ikzelf","Nonmatching","Self","Friend","Friend","Close","n",1024,1.024,1
4,4,37,"S.bmp","Ikzelf","Nonmatching","Self","Stranger","Stranger","Stranger","n",810,0.81,1
4,4,38,"T.bmp","Bekende","Nonmatching","Friend","Self","Self","Self","n",1060,1.06,1
4,4,39,"C.bmp","Bekende","Matching","Friend","Friend","Friend","Close","m",718,0.718,1
4,4,40,"T.bmp","Ikzelf","Matching","Self","Self","Self","Self","m",633,0.633,1
4,4,41,"T.bmp","Vreemde","Nonmatching","Stranger","Self","Self","Self","n",1010,1.01,1
4,4,42,"S.bmp","Vreemde","Matching","Stranger","Stranger","Stranger","Stranger","m",940,0.94,1
4,4,43,"C.bmp","Vreemde","Nonmatching","Stranger","Friend","Friend","Close","n",694,0.694,1
4,4,44,"T.bmp","Ikzelf","Matching","Self","Self","Self","Self","m",768,0.768,1
4,4,45,"S.bmp","Bekende","Nonmatching","Friend","Stranger","Stranger","Stranger","m",938,0.938,0
4,4,46,"C.bmp","Bekende","Matching","Friend","Friend","Friend","Close","m",628,0.628,1
4,4,47,"C.bmp","Ikzelf","Nonmatching","Self","Friend","Friend","Close","n",702,0.702,1
4,4,48,"S.bmp","Vreemde","Matching","Stranger","Stranger","Stranger","Stranger","m",872,0.872,1
4,4,49,"T.bmp","Ikzelf","Matching","Self","Self","Self","Self","m",739,0.739,1
4,4,50,"S.bmp","Bekende","Nonmatching","Friend","Stranger","Stranger","Stranger","n",701,0.701,1
4,4,51,"T.bmp","Bekende","Nonmatching","Friend","Self","Self","Self","n",759,0.759,1
4,4,52,"C.bmp","Bekende","Matching","Friend","Friend","Friend","Close","m",561,0.561,1
4,4,53,"S.bmp","Ikzelf","Nonmatching","Self","Stranger","Stranger","Stranger","n",651,0.651,1
4,4,54,"S.bmp","Vreemde","Matching","Stranger","Stranger","Stranger","Stranger","m",869,0.869,1
4,4,55,"C.bmp","Ikzelf","Nonmatching","Self","Friend","Friend","Close","n",750,0.75,1
4,4,56,"T.bmp","Vreemde","Nonmatching","Stranger","Self","Self","Self","n",728,0.728,1
4,4,57,"C.bmp","Bekende","Matching","Friend","Friend","Friend","Close","m",530,0.53,1
4,4,58,"T.bmp","Ikzelf","Matching","Self","Self","Self","Self","n",621,0.621,0
4,4,59,"C.bmp","Vreemde","Nonmatching","Stranger","Friend","Friend","Close","n",935,0.935,1
4,4,60,"S.bmp","Vreemde","Matching","Stranger","Stranger","Stranger","Stranger","m",897,0.897,1
4,5,1,"T.bmp","Bekende","Nonmatching","Friend","Self","Self","Self","n",759,0.759,1
4,5,2,"S.bmp","Vreemde","Matching","Stranger","Stranger","Stranger","Stranger","m",817,0.817,1
4,5,3,"C.bmp","Ikzelf","Nonmatching","Self","Friend","Friend","Close","n",747,0.747,1
4,5,4,"S.bmp","Vreemde","Matching","Stranger","Stranger","Stranger","Stranger","m",933,0.933,1
4,5,5,"S.bmp","Bekende","Nonmatching","Friend","Stranger","Stranger","Stranger","n",943,0.943,1
4,5,6,"C.bmp","Bekende","Matching","Friend","Friend","Friend","Close","m",1001,1.001,1
4,5,7,"T.bmp","Vreemde","Nonmatching","Stranger","Self","Self","Self","n",707,0.707,1
4,5,8,"T.bmp","Ikzelf","Matching","Self","Self","Self","Self","m",685,0.685,1
4,5,9,"C.bmp","Bekende","Matching","Friend","Friend","Friend","Close","m",776,0.776,1
4,5,10,"C.bmp","Vreemde","Nonmatching","Stranger","Friend","Friend","Close","n",754,0.754,1
4,5,11,"S.bmp","Ikzelf","Nonmatching","Self","Stranger","Stranger","Stranger","n",812,0.812,1
4,5,12,"T.bmp","Ikzelf","Matching","Self","Self","Self","Self","m",966,0.966,1
4,5,13,"S.bmp","Vreemde","Matching","Stranger","Stranger","Stranger","Stranger","m",672,0.672,1
4,5,14,"S.bmp","Bekende","Nonmatching","Friend","Stranger","Stranger","Stranger","n",698,0.698,1
4,5,15,"C.bmp","Bekende","Matching","Friend","Friend","Friend","Close","m",516,0.516,1
4,5,16,"C.bmp","Bekende","Matching","Friend","Friend","Friend","Close","m",877,0.877,1
4,5,17,"T.bmp","Ikzelf","Matching","Self","Self","Self","Self","m",711,0.711,1
4,5,18,"T.bmp","Bekende","Nonmatching","Friend","Self","Self","Self","n",706,0.706,1
4,5,19,"C.bmp","Ikzelf","Nonmatching","Self","Friend","Friend","Close","m",828,0.828,0
4,5,20,"S.bmp","Vreemde","Matching","Stranger","Stranger","Stranger","Stranger","m",838,0.838,1
4,5,21,"S.bmp","Ikzelf","Nonmatching","Self","Stranger","Stranger","Stranger","n",688,0.688,1
4,5,22,"T.bmp","Ikzelf","Matching","Self","Self","Self","Self","m",698,0.698,1
4,5,23,"T.bmp","Vreemde","Nonmatching","Stranger","Self","Self","Self","n",644,0.644,1
4,5,24,"C.bmp","Vreemde","Nonmatching","Stranger","Friend","Friend","Close","n",734,0.734,1
4,5,25,"C.bmp","Bekende","Matching","Friend","Friend","Friend","Close","m",584,0.584,1
4,5,26,"C.bmp","Vreemde","Nonmatching","Stranger","Friend","Friend","Close","n",594,0.594,1
4,5,27,"C.bmp","Bekende","Matching","Friend","Friend","Friend","Close","n",621,0.621,0
4,5,28,"S.bmp","Bekende","Nonmatching","Friend","Stranger","Stranger","Stranger","m",791,0.791,0
4,5,29,"S.bmp","Ikzelf","Nonmatching","Self","Stranger","Stranger","Stranger","n",865,0.865,1
4,5,30,"T.bmp","Ikzelf","Matching","Self","Self","Self","Self","m",698,0.698,1
4,5,31,"T.bmp","Ikzelf","Matching","Self","Self","Self","Self","m",756,0.756,1
4,5,32,"S.bmp","Vreemde","Matching","Stranger","Stranger","Stranger","Stranger","m",846,0.846,1
4,5,33,"T.bmp","Vreemde","Nonmatching","Stranger","Self","Self","Self","n",808,0.808,1
4,5,34,"C.bmp","Ikzelf","Nonmatching","Self","Friend","Friend","Close","n",898,0.898,1
4,5,35,"S.bmp","Vreemde","Matching","Stranger","Stranger","Stranger","Stranger","m",924,0.924,1
4,5,36,"T.bmp","Bekende","Nonmatching","Friend","Self","Self","Self","n",855,0.855,1
4,5,37,"C.bmp","Ikzelf","Nonmatching","Self","Friend","Friend","Close","n",849,0.849,1
4,5,38,"S.bmp","Vreemde","Matching","Stranger","Stranger","Stranger","Stranger","m",683,0.683,1
4,5,39,"S.bmp","Ikzelf","Nonmatching","Self","Stranger","Stranger","Stranger","n",773,0.773,1
4,5,40,"S.bmp","Bekende","Nonmatching","Friend","Stranger","Stranger","Stranger","n",1455,1.455,1
4,5,41,"C.bmp","Vreemde","Nonmatching","Stranger","Friend","Friend","Close","n",1369,1.369,1
4,5,42,"C.bmp","Bekende","Matching","Friend","Friend","Friend","Close","m",755,0.755,1
4,5,43,"S.bmp","Vreemde","Matching","Stranger","Stranger","Stranger","Stranger","m",989,0.989,1
4,5,44,"C.bmp","Bekende","Matching","Friend","Friend","Friend","Close","m",903,0.903,1
4,5,45,"T.bmp","Bekende","Nonmatching","Friend","Self","Self","Self","n",736,0.736,1
4,5,46,"T.bmp","Ikzelf","Matching","Self","Self","Self","Self","m",651,0.651,1
4,5,47,"T.bmp","Vreemde","Nonmatching","Stranger","Self","Self","Self","n",533,0.533,1
4,5,48,"T.bmp","Ikzelf","Matching","Self","Self","Self","Self","m",591,0.591,1
4,5,49,"T.bmp","Vreemde","Nonmatching","Stranger","Self","Self","Self","n",569,0.569,1
4,5,50,"T.bmp","Ikzelf","Matching","Self","Self","Self","Self","n",675,0.675,0
4,5,51,"S.bmp","Vreemde","Matching","Stranger","Stranger","Stranger","Stranger","m",797,0.797,1
4,5,52,"C.bmp","Vreemde","Nonmatching","Stranger","Friend","Friend","Close","n",647,0.647,1
4,5,53,"C.bmp","Ikzelf","Nonmatching","Self","Friend","Friend","Close","m",641,0.641,0
4,5,54,"C.bmp","Bekende","Matching","Friend","Friend","Friend","Close","m",555,0.555,1
4,5,55,"C.bmp","Bekende","Matching","Friend","Friend","Friend","Close","n",630,0.63,0
4,5,56,"T.bmp","Ikzelf","Matching","Self","Self","Self","Self","m",704,0.704,1
4,5,57,"S.bmp","Bekende","Nonmatching","Friend","Stranger","Stranger","Stranger","n",794,0.794,1
4,5,58,"S.bmp","Vreemde","Matching","Stranger","Stranger","Stranger","Stranger","m",564,0.564,1
4,5,59,"S.bmp","Ikzelf","Nonmatching","Self","Stranger","Stranger","Stranger","m",477,0.477,0
4,5,60,"T.bmp","Bekende","Nonmatching","Friend","Self","Self","Self","n",503,0.503,1
4,6,1,"T.bmp","Vreemde","Nonmatching","Stranger","Self","Self","Self","n",718,0.718,1
4,6,2,"C.bmp","Vreemde","Nonmatching","Stranger","Friend","Friend","Close","n",632,0.632,1
4,6,3,"T.bmp","Ikzelf","Matching","Self","Self","Self","Self","m",642,0.642,1
4,6,4,"C.bmp","Ikzelf","Nonmatching","Self","Friend","Friend","Close","m",668,0.668,0
4,6,5,"S.bmp","Ikzelf","Nonmatching","Self","Stranger","Stranger","Stranger","n",742,0.742,1
4,6,6,"S.bmp","Bekende","Nonmatching","Friend","Stranger","Stranger","Stranger","n",816,0.816,1
4,6,7,"T.bmp","Ikzelf","Matching","Self","Self","Self","Self","m",634,0.634,1
4,6,8,"C.bmp","Bekende","Matching","Friend","Friend","Friend","Close","m",548,0.548,1
4,6,9,"S.bmp","Vreemde","Matching","Stranger","Stranger","Stranger","Stranger","m",590,0.59,1
4,6,10,"C.bmp","Bekende","Matching","Friend","Friend","Friend","Close","m",552,0.552,1
4,6,11,"T.bmp","Bekende","Nonmatching","Friend","Self","Self","Self","n",706,0.706,1
4,6,12,"S.bmp","Vreemde","Matching","Stranger","Stranger","Stranger","Stranger","m",716,0.716,1
4,6,13,"T.bmp","Bekende","Nonmatching","Friend","Self","Self","Self","n",774,0.774,1
4,6,14,"T.bmp","Ikzelf","Matching","Self","Self","Self","Self","m",736,0.736,1
4,6,15,"S.bmp","Vreemde","Matching","Stranger","Stranger","Stranger","Stranger","m",779,0.779,1
4,6,16,"C.bmp","Bekende","Matching","Friend","Friend","Friend","Close","m",597,0.597,1
4,6,17,"T.bmp","Vreemde","Nonmatching","Stranger","Self","Self","Self","n",607,0.607,1
4,6,18,"S.bmp","Bekende","Nonmatching","Friend","Stranger","Stranger","Stranger","m",617,0.617,0
4,6,19,"S.bmp","Vreemde","Matching","Stranger","Stranger","Stranger","Stranger","n",627,0.627,0
4,6,20,"C.bmp","Vreemde","Nonmatching","Stranger","Friend","Friend","Close","m",669,0.669,0
4,6,21,"C.bmp","Bekende","Matching","Friend","Friend","Friend","Close","m",630,0.63,1
4,6,22,"T.bmp","Ikzelf","Matching","Self","Self","Self","Self","m",608,0.608,1
4,6,23,"C.bmp","Ikzelf","Nonmatching","Self","Friend","Friend","Close","m",570,0.57,0
4,6,24,"S.bmp","Ikzelf","Nonmatching","Self","Stranger","Stranger","Stranger","n",629,0.629,1
4,6,25,"T.bmp","Vreemde","Nonmatching","Stranger","Self","Self","Self","n",879,0.879,1
4,6,26,"S.bmp","Bekende","Nonmatching","Friend","Stranger","Stranger","Stranger","m",697,0.697,0
4,6,27,"S.bmp","Vreemde","Matching","Stranger","Stranger","Stranger","Stranger","m",659,0.659,1
4,6,28,"C.bmp","Bekende","Matching","Friend","Friend","Friend","Close","m",445,0.445,1
4,6,29,"C.bmp","Vreemde","Nonmatching","Stranger","Friend","Friend","Close","n",823,0.823,1
4,6,30,"S.bmp","Vreemde","Matching","Stranger","Stranger","Stranger","Stranger","n",801,0.801,0
4,6,31,"C.bmp","Bekende","Matching","Friend","Friend","Friend","Close","m",651,0.651,1
4,6,32,"T.bmp","Ikzelf","Matching","Self","Self","Self","Self","m",709,0.709,1
4,6,33,"C.bmp","Ikzelf","Nonmatching","Self","Friend","Friend","Close","m",528,0.528,0
4,6,34,"T.bmp","Ikzelf","Matching","Self","Self","Self","Self","m",458,0.458,1
4,6,35,"S.bmp","Ikzelf","Nonmatching","Self","Stranger","Stranger","Stranger","n",627,0.627,1
4,6,36,"T.bmp","Bekende","Nonmatching","Friend","Self","Self","Self","n",621,0.621,1
4,6,37,"T.bmp","Vreemde","Nonmatching","Stranger","Self","Self","Self","n",663,0.663,1
4,6,38,"C.bmp","Bekende","Matching","Friend","Friend","Friend","Close","m",753,0.753,1
4,6,39,"T.bmp","Ikzelf","Matching","Self","Self","Self","Self","m",603,0.603,1
4,6,40,"S.bmp","Bekende","Nonmatching","Friend","Stranger","Stranger","Stranger","m",517,0.517,0
4,6,41,"C.bmp","Vreemde","Nonmatching","Stranger","Friend","Friend","Close","m",623,0.623,0
4,6,42,"T.bmp","Ikzelf","Matching","Self","Self","Self","Self","m",618,0.618,1
4,6,43,"S.bmp","Vreemde","Matching","Stranger","Stranger","Stranger","Stranger","m",996,0.996,1
4,6,44,"S.bmp","Ikzelf","Nonmatching","Self","Stranger","Stranger","Stranger","n",846,0.846,1
4,6,45,"T.bmp","Bekende","Nonmatching","Friend","Self","Self","Self","n",760,0.76,1
4,6,46,"C.bmp","Bekende","Matching","Friend","Friend","Friend","Close","m",818,0.818,1
4,6,47,"S.bmp","Vreemde","Matching","Stranger","Stranger","Stranger","Stranger","m",716,0.716,1
4,6,48,"C.bmp","Ikzelf","Nonmatching","Self","Friend","Friend","Close","n",1013,1.013,1
4,6,49,"T.bmp","Ikzelf","Matching","Self","Self","Self","Self","m",607,0.607,1
4,6,50,"T.bmp","Vreemde","Nonmatching","Stranger","Self","Self","Self","n",681,0.681,1
4,6,51,"S.bmp","Ikzelf","Nonmatching","Self","Stranger","Stranger","Stranger","m",708,0.708,0
4,6,52,"T.bmp","Ikzelf","Matching","Self","Self","Self","Self","m",590,0.59,1
4,6,53,"C.bmp","Bekende","Matching","Friend","Friend","Friend","Close","n",760,0.76,0
4,6,54,"S.bmp","Vreemde","Matching","Stranger","Stranger","Stranger","Stranger","m",674,0.674,1
4,6,55,"S.bmp","Bekende","Nonmatching","Friend","Stranger","Stranger","Stranger","n",1020,1.02,1
4,6,56,"C.bmp","Vreemde","Nonmatching","Stranger","Friend","Friend","Close","m",1142,1.142,0
4,6,57,"T.bmp","Bekende","Nonmatching","Friend","Self","Self","Self","n",896,0.896,1
4,6,58,"S.bmp","Vreemde","Matching","Stranger","Stranger","Stranger","Stranger","m",1050,1.05,1
4,6,59,"C.bmp","Bekende","Matching","Friend","Friend","Friend","Close","m",1060,1.06,1
4,6,60,"C.bmp","Ikzelf","Nonmatching","Self","Friend","Friend","Close","n",782,0.782,1
5,1,1,"C.bmp","Ikzelf","Matching","Self","Self","Self","Self","n",696,0.696,1
5,1,2,"T.bmp","Vreemde","Matching","Stranger","Stranger","Stranger","Stranger","n",483,0.483,1
5,1,3,"T.bmp","Vreemde","Matching","Stranger","Stranger","Stranger","Stranger","n",525,0.525,1
5,1,4,"T.bmp","Bekende","Nonmatching","Friend","Stranger","Stranger","Stranger","n",439,0.439,0
5,1,5,"T.bmp","Ikzelf","Nonmatching","Self","Stranger","Stranger","Stranger","n",593,0.593,0
5,1,6,"C.bmp","Vreemde","Nonmatching","Stranger","Self","Self","Self","n",587,0.587,0
5,1,7,"S.bmp","Bekende","Matching","Friend","Friend","Friend","Close","m",469,0.469,0
5,1,8,"C.bmp","Bekende","Nonmatching","Friend","Self","Self","Self","n",287,0.287,0
5,1,9,"S.bmp","Ikzelf","Nonmatching","Self","Friend","Friend","Close","n",313,0.313,0
5,1,10,"S.bmp","Bekende","Matching","Friend","Friend","Friend","Close","n",467,0.467,1
5,1,11,"S.bmp","Vreemde","Nonmatching","Stranger","Friend","Friend","Close","m",781,0.781,1
5,1,12,"C.bmp","Ikzelf","Matching","Self","Self","Self","Self","n",567,0.567,1
5,1,13,"T.bmp","Bekende","Nonmatching","Friend","Stranger","Stranger","Stranger","n",801,0.801,0
5,1,14,"S.bmp","Ikzelf","Nonmatching","Self","Friend","Friend","Close","m",859,0.859,1
5,1,15,"S.bmp","Bekende","Matching","Friend","Friend","Friend","Close","m",741,0.741,0
5,1,16,"C.bmp","Vreemde","Nonmatching","Stranger","Self","Self","Self","m",479,0.479,1
5,1,17,"T.bmp","Ikzelf","Nonmatching","Self","Stranger","Stranger","Stranger","n",649,0.649,0
5,1,18,"T.bmp","Vreemde","Matching","Stranger","Stranger","Stranger","Stranger","m",707,0.707,0
5,1,19,"S.bmp","Bekende","Matching","Friend","Friend","Friend","Close","n",446,0.446,1
5,1,20,"C.bmp","Ikzelf","Matching","Self","Self","Self","Self","n",296,0.296,1
5,1,21,"T.bmp","Vreemde","Matching","Stranger","Stranger","Stranger","Stranger","m",418,0.418,0
5,1,22,"C.bmp","Bekende","Nonmatching","Friend","Self","Self","Self","n",460,0.46,0
5,1,23,"C.bmp","Ikzelf","Matching","Self","Self","Self","Self","n",502,0.502,1
5,1,24,"S.bmp","Vreemde","Nonmatching","Stranger","Friend","Friend","Close","m",511,0.511,1
5,1,25,"T.bmp","Vreemde","Matching","Stranger","Stranger","Stranger","Stranger","m",1081,1.081,0
5,1,26,"S.bmp","Bekende","Matching","Friend","Friend","Friend","Close","n",771,0.771,1
5,1,27,"C.bmp","Ikzelf","Matching","Self","Self","Self","Self","n",621,0.621,1
5,1,28,"T.bmp","Ikzelf","Nonmatching","Self","Stranger","Stranger","Stranger","n",424,0.424,0
5,1,29,"S.bmp","Ikzelf","Nonmatching","Self","Friend","Friend","Close","m",1122,1.122,1
5,1,30,"T.bmp","Bekende","Nonmatching","Friend","Stranger","Stranger","Stranger","m",1164,1.164,1
5,1,31,"T.bmp","Vreemde","Matching","Stranger","Stranger","Stranger","Stranger","n",1382,1.382,1
5,1,32,"C.bmp","Vreemde","Nonmatching","Stranger","Self","Self","Self","m",1152,1.152,1
5,1,33,"S.bmp","Vreemde","Nonmatching","Stranger","Friend","Friend","Close","n",1306,1.306,0
5,1,34,"C.bmp","Ikzelf","Matching","Self","Self","Self","Self","m",660,0.66,0
5,1,35,"S.bmp","Bekende","Matching","Friend","Friend","Friend","Close","n",1054,1.054,1
5,1,36,"C.bmp","Bekende","Nonmatching","Friend","Self","Self","Self","n",520,0.52,0
5,1,37,"C.bmp","Ikzelf","Matching","Self","Self","Self","Self","n",402,0.402,1
5,1,38,"C.bmp","Ikzelf","Matching","Self","Self","Self","Self","m",300,0.3,0
5,1,39,"C.bmp","Vreemde","Nonmatching","Stranger","Self","Self","Self","n",614,0.614,0
5,1,40,"T.bmp","Vreemde","Matching","Stranger","Stranger","Stranger","Stranger","n",1024,1.024,1
5,1,41,"T.bmp","Ikzelf","Nonmatching","Self","Stranger","Stranger","Stranger","m",730,0.73,1
5,1,42,"S.bmp","Bekende","Matching","Friend","Friend","Friend","Close","n",1172,1.172,1
5,1,43,"S.bmp","Bekende","Matching","Friend","Friend","Friend","Close","m",830,0.83,0
5,1,44,"S.bmp","Vreemde","Nonmatching","Stranger","Friend","Friend","Close","n",664,0.664,0
5,1,45,"S.bmp","Ikzelf","Nonmatching","Self","Friend","Friend","Close","m",627,0.627,1
