"","Subject","Block","Trial","Shape","Label","Matching","Origin_Identity","English_Identity","Standarlized_Identity","Response","RT_ms","RT_sec","ACC"
"1",2,1,1,"T.bmp","Vreemde","Matching","Stranger","Stranger","Stranger","n",791,0.791,0
"2",2,1,2,"S.bmp","Ikzelf","Matching","Self","Self","Self","m",1009,1.009,1
"3",2,1,3,"C.bmp","Bekende","Matching","Friend","Friend","Close","m",876,0.876,1
"4",2,1,4,"S.bmp","Bekende","Nonmatching","Self","Self","Self","n",1046,1.046,1
"5",2,1,5,"T.bmp","Ikzelf","Nonmatching","Stranger","Stranger","Stranger","n",912,0.912,1
"6",2,1,6,"T.bmp","Bekende","Nonmatching","Stranger","Stranger","Stranger","n",1434,1.434,1
"7",2,1,7,"T.bmp","Vreemde","Matching","Stranger","Stranger","Stranger","m",820,0.82,1
"8",2,1,8,"C.bmp","Bekende","Matching","Friend","Friend","Close","m",958,0.958,1
"9",2,1,9,"S.bmp","Vreemde","Nonmatching","Self","Self","Self","n",872,0.872,1
"10",2,1,10,"C.bmp","Ikzelf","Nonmatching","Friend","Friend","Close","n",914,0.914,1
"11",2,1,11,"S.bmp","Ikzelf","Matching","Self","Self","Self","m",1229,1.229,1
"12",2,1,12,"C.bmp","Vreemde","Nonmatching","Friend","Friend","Close","n",1079,1.079,1
"13",2,1,13,"S.bmp","Vreemde","Nonmatching","Self","Self","Self","n",1184,1.184,1
"14",2,1,14,"S.bmp","Ikzelf","Matching","Self","Self","Self","m",810,0.81,1
"15",2,1,15,"T.bmp","Vreemde","Matching","Stranger","Stranger","Stranger","n",1044,1.044,0
"16",2,1,16,"C.bmp","Vreemde","Nonmatching","Friend","Friend","Close","n",1214,1.214,1
"17",2,1,17,"C.bmp","Bekende","Matching","Friend","Friend","Close","m",968,0.968,1
"18",2,1,18,"T.bmp","Vreemde","Matching","Stranger","Stranger","Stranger","m",946,0.946,1
"19",2,1,19,"T.bmp","Ikzelf","Nonmatching","Stranger","Stranger","Stranger","n",861,0.861,1
"20",2,1,20,"T.bmp","Bekende","Nonmatching","Stranger","Stranger","Stranger","n",1399,1.399,1
"21",2,1,21,"C.bmp","Ikzelf","Nonmatching","Friend","Friend","Close","n",1089,1.089,1
"22",2,1,22,"C.bmp","Bekende","Matching","Friend","Friend","Close","m",843,0.843,1
"23",2,1,23,"S.bmp","Ikzelf","Matching","Self","Self","Self","m",933,0.933,1
"24",2,1,24,"S.bmp","Bekende","Nonmatching","Self","Self","Self","n",910,0.91,1
"25",2,1,25,"T.bmp","Vreemde","Matching","Stranger","Stranger","Stranger","m",1432,1.432,1
"26",2,1,26,"S.bmp","Vreemde","Nonmatching","Self","Self","Self","n",930,0.93,1
"27",2,1,27,"C.bmp","Bekende","Matching","Friend","Friend","Close","m",829,0.829,1
"28",2,1,28,"T.bmp","Ikzelf","Nonmatching","Stranger","Stranger","Stranger","n",775,0.775,1
"29",2,1,29,"S.bmp","Bekende","Nonmatching","Self","Self","Self","m",1041,1.041,0
"30",2,1,30,"C.bmp","Bekende","Matching","Friend","Friend","Close","m",1243,1.243,1
"31",2,1,31,"S.bmp","Ikzelf","Matching","Self","Self","Self","m",853,0.853,1
"32",2,1,32,"T.bmp","Vreemde","Matching","Stranger","Stranger","Stranger","m",927,0.927,1
"33",2,1,33,"C.bmp","Ikzelf","Nonmatching","Friend","Friend","Close","n",1289,1.289,1
"34",2,1,34,"T.bmp","Bekende","Nonmatching","Stranger","Stranger","Stranger","n",1011,1.011,1
"35",2,1,35,"C.bmp","Vreemde","Nonmatching","Friend","Friend","Close","m",878,0.878,0
"36",2,1,36,"S.bmp","Ikzelf","Matching","Self","Self","Self","m",711,0.711,1
"37",2,1,37,"T.bmp","Bekende","Nonmatching","Stranger","Stranger","Stranger","n",1089,1.089,1
"38",2,1,38,"T.bmp","Ikzelf","Nonmatching","Stranger","Stranger","Stranger","n",923,0.923,1
"39",2,1,39,"S.bmp","Ikzelf","Matching","Self","Self","Self","m",853,0.853,1
"40",2,1,40,"S.bmp","Bekende","Nonmatching","Self","Self","Self","n",831,0.831,1
"41",2,1,41,"C.bmp","Vreemde","Nonmatching","Friend","Friend","Close","n",969,0.969,1
"42",2,1,42,"S.bmp","Ikzelf","Matching","Self","Self","Self","m",691,0.691,1
"43",2,1,43,"C.bmp","Bekende","Matching","Friend","Friend","Close","m",990,0.99,1
"44",2,1,44,"C.bmp","Bekende","Matching","Friend","Friend","Close","m",600,0.6,1
"45",2,1,45,"T.bmp","Vreemde","Matching","Stranger","Stranger","Stranger","m",834,0.834,1
"46",2,1,46,"C.bmp","Ikzelf","Nonmatching","Friend","Friend","Close","m",540,0.54,0
"47",2,1,47,"T.bmp","Vreemde","Matching","Stranger","Stranger","Stranger","m",1045,1.045,1
"48",2,1,48,"S.bmp","Vreemde","Nonmatching","Self","Self","Self","n",735,0.735,1
"49",2,1,49,"T.bmp","Bekende","Nonmatching","Stranger","Stranger","Stranger","n",969,0.969,1
"50",2,1,50,"T.bmp","Vreemde","Matching","Stranger","Stranger","Stranger","m",1219,1.219,1
"51",2,1,51,"C.bmp","Bekende","Matching","Friend","Friend","Close","m",910,0.91,1
"52",2,1,52,"S.bmp","Ikzelf","Matching","Self","Self","Self","m",456,0.456,1
"53",2,1,53,"T.bmp","Vreemde","Matching","Stranger","Stranger","Stranger","n",1058,1.058,0
"54",2,1,54,"S.bmp","Bekende","Nonmatching","Self","Self","Self","m",1052,1.052,0
"55",2,1,55,"T.bmp","Ikzelf","Nonmatching","Stranger","Stranger","Stranger","n",886,0.886,1
"56",2,1,56,"S.bmp","Vreemde","Nonmatching","Self","Self","Self","n",1136,1.136,1
"57",2,1,57,"S.bmp","Ikzelf","Matching","Self","Self","Self","m",714,0.714,1
"58",2,1,58,"C.bmp","Ikzelf","Nonmatching","Friend","Friend","Close","m",643,0.643,0
"59",2,1,59,"C.bmp","Bekende","Matching","Friend","Friend","Close","m",1102,1.102,1
"60",2,1,60,"C.bmp","Vreemde","Nonmatching","Friend","Friend","Close","n",1144,1.144,1
"61",2,2,1,"S.bmp","Ikzelf","Matching","Self","Self","Self","m",943,0.943,1
"62",2,2,2,"C.bmp","Ikzelf","Nonmatching","Friend","Friend","Close","n",729,0.729,1
"63",2,2,3,"C.bmp","Bekende","Matching","Friend","Friend","Close","m",850,0.85,1
"64",2,2,4,"T.bmp","Ikzelf","Nonmatching","Stranger","Stranger","Stranger","n",828,0.828,1
"65",2,2,5,"T.bmp","Bekende","Nonmatching","Stranger","Stranger","Stranger","n",1046,1.046,1
"66",2,2,6,"S.bmp","Ikzelf","Matching","Self","Self","Self","m",624,0.624,1
"67",2,2,7,"C.bmp","Vreemde","Nonmatching","Friend","Friend","Close","n",779,0.779,1
"68",2,2,8,"S.bmp","Bekende","Nonmatching","Self","Self","Self","n",1381,1.381,1
"69",2,2,9,"C.bmp","Bekende","Matching","Friend","Friend","Close","m",1263,1.263,1
"70",2,2,10,"T.bmp","Vreemde","Matching","Stranger","Stranger","Stranger","m",809,0.809,1
"71",2,2,11,"S.bmp","Vreemde","Nonmatching","Self","Self","Self","n",1043,1.043,1
"72",2,2,12,"T.bmp","Vreemde","Matching","Stranger","Stranger","Stranger","m",877,0.877,1
"73",2,2,13,"C.bmp","Ikzelf","Nonmatching","Friend","Friend","Close","n",678,0.678,1
"74",2,2,14,"C.bmp","Vreemde","Nonmatching","Friend","Friend","Close","n",1312,1.312,1
"75",2,2,15,"C.bmp","Bekende","Matching","Friend","Friend","Close","m",1083,1.083,1
"76",2,2,16,"S.bmp","Ikzelf","Matching","Self","Self","Self","m",693,0.693,1
"77",2,2,17,"T.bmp","Vreemde","Matching","Stranger","Stranger","Stranger","m",815,0.815,1
"78",2,2,18,"T.bmp","Vreemde","Matching","Stranger","Stranger","Stranger","m",681,0.681,1
"79",2,2,19,"C.bmp","Bekende","Matching","Friend","Friend","Close","m",867,0.867,1
"80",2,2,20,"T.bmp","Bekende","Nonmatching","Stranger","Stranger","Stranger","n",765,0.765,1
"81",2,2,21,"S.bmp","Ikzelf","Matching","Self","Self","Self","m",647,0.647,1
"82",2,2,22,"S.bmp","Bekende","Nonmatching","Self","Self","Self","n",1297,1.297,1
"83",2,2,23,"T.bmp","Ikzelf","Nonmatching","Stranger","Stranger","Stranger","n",972,0.972,1
"84",2,2,24,"S.bmp","Vreemde","Nonmatching","Self","Self","Self","",0,0,0
"85",2,2,25,"C.bmp","Bekende","Matching","Friend","Friend","Close","m",655,0.655,1
"86",2,2,26,"S.bmp","Bekende","Nonmatching","Self","Self","Self","n",729,0.729,1
"87",2,2,27,"S.bmp","Ikzelf","Matching","Self","Self","Self","m",643,0.643,1
"88",2,2,28,"C.bmp","Vreemde","Nonmatching","Friend","Friend","Close","n",973,0.973,1
"89",2,2,29,"S.bmp","Ikzelf","Matching","Self","Self","Self","m",679,0.679,1
"90",2,2,30,"T.bmp","Bekende","Nonmatching","Stranger","Stranger","Stranger","n",977,0.977,1
"91",2,2,31,"C.bmp","Bekende","Matching","Friend","Friend","Close","m",1020,1.02,1
"92",2,2,32,"T.bmp","Vreemde","Matching","Stranger","Stranger","Stranger","m",822,0.822,1
"93",2,2,33,"S.bmp","Vreemde","Nonmatching","Self","Self","Self","n",768,0.768,1
"94",2,2,34,"T.bmp","Ikzelf","Nonmatching","Stranger","Stranger","Stranger","n",730,0.73,1
"95",2,2,35,"T.bmp","Vreemde","Matching","Stranger","Stranger","Stranger","m",900,0.9,1
"96",2,2,36,"C.bmp","Ikzelf","Nonmatching","Friend","Friend","Close","n",845,0.845,1
"97",2,2,37,"S.bmp","Bekende","Nonmatching","Self","Self","Self","n",1063,1.063,1
"98",2,2,38,"S.bmp","Ikzelf","Matching","Self","Self","Self","m",817,0.817,1
"99",2,2,39,"C.bmp","Bekende","Matching","Friend","Friend","Close","m",1036,1.036,1
"100",2,2,40,"S.bmp","Vreemde","Nonmatching","Self","Self","Self","n",758,0.758,1
"101",2,2,41,"T.bmp","Bekende","Nonmatching","Stranger","Stranger","Stranger","n",960,0.96,1
"102",2,2,42,"C.bmp","Vreemde","Nonmatching","Friend","Friend","Close","n",890,0.89,1
"103",2,2,43,"T.bmp","Ikzelf","Nonmatching","Stranger","Stranger","Stranger","n",900,0.9,1
"104",2,2,44,"T.bmp","Vreemde","Matching","Stranger","Stranger","Stranger","m",734,0.734,1
"105",2,2,45,"C.bmp","Ikzelf","Nonmatching","Friend","Friend","Close","n",824,0.824,1
"106",2,2,46,"S.bmp","Ikzelf","Matching","Self","Self","Self","m",643,0.643,1
"107",2,2,47,"T.bmp","Vreemde","Matching","Stranger","Stranger","Stranger","m",1052,1.052,1
"108",2,2,48,"C.bmp","Bekende","Matching","Friend","Friend","Close","m",1094,1.094,1
"109",2,2,49,"S.bmp","Vreemde","Nonmatching","Self","Self","Self","n",848,0.848,1
"110",2,2,50,"C.bmp","Ikzelf","Nonmatching","Friend","Friend","Close","n",730,0.73,1
"111",2,2,51,"T.bmp","Vreemde","Matching","Stranger","Stranger","Stranger","m",804,0.804,1
"112",2,2,52,"T.bmp","Ikzelf","Nonmatching","Stranger","Stranger","Stranger","n",766,0.766,1
"113",2,2,53,"T.bmp","Vreemde","Matching","Stranger","Stranger","Stranger","m",744,0.744,1
"114",2,2,54,"S.bmp","Ikzelf","Matching","Self","Self","Self","m",738,0.738,1
"115",2,2,55,"C.bmp","Bekende","Matching","Friend","Friend","Close","n",637,0.637,0
"116",2,2,56,"C.bmp","Bekende","Matching","Friend","Friend","Close","m",711,0.711,1
"117",2,2,57,"T.bmp","Bekende","Nonmatching","Stranger","Stranger","Stranger","n",1025,1.025,1
"118",2,2,58,"C.bmp","Vreemde","Nonmatching","Friend","Friend","Close","m",987,0.987,0
"119",2,2,59,"S.bmp","Ikzelf","Matching","Self","Self","Self","m",676,0.676,1
"120",2,2,60,"S.bmp","Bekende","Nonmatching","Self","Self","Self","m",894,0.894,0
"121",2,3,1,"C.bmp","Vreemde","Nonmatching","Friend","Friend","Close","n",1173,1.173,1
"122",2,3,2,"C.bmp","Bekende","Matching","Friend","Friend","Close","m",1087,1.087,1
"123",2,3,3,"T.bmp","Bekende","Nonmatching","Stranger","Stranger","Stranger","n",745,0.745,1
"124",2,3,4,"T.bmp","Vreemde","Matching","Stranger","Stranger","Stranger","m",899,0.899,1
"125",2,3,5,"S.bmp","Vreemde","Nonmatching","Self","Self","Self","n",861,0.861,1
"126",2,3,6,"C.bmp","Bekende","Matching","Friend","Friend","Close","m",663,0.663,1
"127",2,3,7,"T.bmp","Vreemde","Matching","Stranger","Stranger","Stranger","m",1137,1.137,1
"128",2,3,8,"S.bmp","Ikzelf","Matching","Self","Self","Self","m",651,0.651,1
"129",2,3,9,"T.bmp","Ikzelf","Nonmatching","Stranger","Stranger","Stranger","n",773,0.773,1
"130",2,3,10,"S.bmp","Ikzelf","Matching","Self","Self","Self","m",927,0.927,1
"131",2,3,11,"C.bmp","Ikzelf","Nonmatching","Friend","Friend","Close","n",746,0.746,1
"132",2,3,12,"S.bmp","Bekende","Nonmatching","Self","Self","Self","n",1156,1.156,1
"133",2,3,13,"T.bmp","Bekende","Nonmatching","Stranger","Stranger","Stranger","n",1005,1.005,1
"134",2,3,14,"C.bmp","Vreemde","Nonmatching","Friend","Friend","Close","n",935,0.935,1
"135",2,3,15,"T.bmp","Vreemde","Matching","Stranger","Stranger","Stranger","m",929,0.929,1
"136",2,3,16,"C.bmp","Bekende","Matching","Friend","Friend","Close","m",1083,1.083,1
"137",2,3,17,"T.bmp","Ikzelf","Nonmatching","Stranger","Stranger","Stranger","n",901,0.901,1
"138",2,3,18,"S.bmp","Bekende","Nonmatching","Self","Self","Self","n",1071,1.071,1
"139",2,3,19,"S.bmp","Ikzelf","Matching","Self","Self","Self","m",826,0.826,1
"140",2,3,20,"C.bmp","Bekende","Matching","Friend","Friend","Close","n",1124,1.124,0
"141",2,3,21,"S.bmp","Vreemde","Nonmatching","Self","Self","Self","",0,0,0
"142",2,3,22,"T.bmp","Vreemde","Matching","Stranger","Stranger","Stranger","m",968,0.968,1
"143",2,3,23,"C.bmp","Ikzelf","Nonmatching","Friend","Friend","Close","m",626,0.626,0
"144",2,3,24,"S.bmp","Ikzelf","Matching","Self","Self","Self","m",588,0.588,1
"145",2,3,25,"T.bmp","Vreemde","Matching","Stranger","Stranger","Stranger","m",821,0.821,1
"146",2,3,26,"S.bmp","Bekende","Nonmatching","Self","Self","Self","n",991,0.991,1
"147",2,3,27,"C.bmp","Bekende","Matching","Friend","Friend","Close","m",698,0.698,1
"148",2,3,28,"T.bmp","Bekende","Nonmatching","Stranger","Stranger","Stranger","n",884,0.884,1
"149",2,3,29,"T.bmp","Ikzelf","Nonmatching","Stranger","Stranger","Stranger","n",1038,1.038,1
"150",2,3,30,"C.bmp","Bekende","Matching","Friend","Friend","Close","m",1192,1.192,1
"151",2,3,31,"S.bmp","Ikzelf","Matching","Self","Self","Self","m",802,0.802,1
"152",2,3,32,"C.bmp","Vreemde","Nonmatching","Friend","Friend","Close","n",1036,1.036,1
"153",2,3,33,"S.bmp","Ikzelf","Matching","Self","Self","Self","m",790,0.79,1
"154",2,3,34,"C.bmp","Ikzelf","Nonmatching","Friend","Friend","Close","n",993,0.993,1
"155",2,3,35,"T.bmp","Vreemde","Matching","Stranger","Stranger","Stranger","m",795,0.795,1
"156",2,3,36,"S.bmp","Vreemde","Nonmatching","Self","Self","Self","n",708,0.708,1
"157",2,3,37,"T.bmp","Vreemde","Matching","Stranger","Stranger","Stranger","m",878,0.878,1
"158",2,3,38,"S.bmp","Ikzelf","Matching","Self","Self","Self","m",744,0.744,1
"159",2,3,39,"S.bmp","Vreemde","Nonmatching","Self","Self","Self","n",882,0.882,1
"160",2,3,40,"T.bmp","Ikzelf","Nonmatching","Stranger","Stranger","Stranger","n",812,0.812,1
"161",2,3,41,"C.bmp","Bekende","Matching","Friend","Friend","Close","m",598,0.598,1
"162",2,3,42,"C.bmp","Vreemde","Nonmatching","Friend","Friend","Close","n",769,0.769,1
"163",2,3,43,"C.bmp","Bekende","Matching","Friend","Friend","Close","m",699,0.699,1
"164",2,3,44,"C.bmp","Ikzelf","Nonmatching","Friend","Friend","Close","n",725,0.725,1
"165",2,3,45,"S.bmp","Ikzelf","Matching","Self","Self","Self","m",719,0.719,1
"166",2,3,46,"T.bmp","Vreemde","Matching","Stranger","Stranger","Stranger","n",761,0.761,0
"167",2,3,47,"S.bmp","Bekende","Nonmatching","Self","Self","Self","n",914,0.914,1
"168",2,3,48,"T.bmp","Bekende","Nonmatching","Stranger","Stranger","Stranger","n",780,0.78,1
"169",2,3,49,"T.bmp","Ikzelf","Nonmatching","Stranger","Stranger","Stranger","n",790,0.79,1
"170",2,3,50,"C.bmp","Ikzelf","Nonmatching","Friend","Friend","Close","n",833,0.833,1
"171",2,3,51,"S.bmp","Ikzelf","Matching","Self","Self","Self","m",731,0.731,1
"172",2,3,52,"C.bmp","Vreemde","Nonmatching","Friend","Friend","Close","m",693,0.693,0
"173",2,3,53,"T.bmp","Vreemde","Matching","Stranger","Stranger","Stranger","m",607,0.607,1
"174",2,3,54,"T.bmp","Bekende","Nonmatching","Stranger","Stranger","Stranger","n",937,0.937,1
"175",2,3,55,"C.bmp","Bekende","Matching","Friend","Friend","Close","m",1011,1.011,1
"176",2,3,56,"S.bmp","Ikzelf","Matching","Self","Self","Self","m",685,0.685,1
"177",2,3,57,"S.bmp","Vreemde","Nonmatching","Self","Self","Self","n",791,0.791,1
"178",2,3,58,"T.bmp","Vreemde","Matching","Stranger","Stranger","Stranger","m",738,0.738,1
"179",2,3,59,"C.bmp","Bekende","Matching","Friend","Friend","Close","m",763,0.763,1
"180",2,3,60,"S.bmp","Bekende","Nonmatching","Self","Self","Self","n",725,0.725,1
"181",2,4,1,"T.bmp","Bekende","Nonmatching","Stranger","Stranger","Stranger","n",1180,1.18,1
"182",2,4,2,"S.bmp","Ikzelf","Matching","Self","Self","Self","m",614,0.614,1
"183",2,4,3,"C.bmp","Ikzelf","Nonmatching","Friend","Friend","Close","n",623,0.623,1
"184",2,4,4,"T.bmp","Ikzelf","Nonmatching","Stranger","Stranger","Stranger","n",793,0.793,1
"185",2,4,5,"S.bmp","Vreemde","Nonmatching","Self","Self","Self","n",899,0.899,1
"186",2,4,6,"S.bmp","Bekende","Nonmatching","Self","Self","Self","m",1261,1.261,0
"187",2,4,7,"T.bmp","Vreemde","Matching","Stranger","Stranger","Stranger","m",872,0.872,1
"188",2,4,8,"S.bmp","Ikzelf","Matching","Self","Self","Self","m",626,0.626,1
"189",2,4,9,"T.bmp","Vreemde","Matching","Stranger","Stranger","Stranger","n",636,0.636,0
"190",2,4,10,"C.bmp","Bekende","Matching","Friend","Friend","Close","m",822,0.822,1
"191",2,4,11,"C.bmp","Vreemde","Nonmatching","Friend","Friend","Close","n",864,0.864,1
"192",2,4,12,"C.bmp","Bekende","Matching","Friend","Friend","Close","m",794,0.794,1
"193",2,4,13,"T.bmp","Vreemde","Matching","Stranger","Stranger","Stranger","m",788,0.788,1
"194",2,4,14,"T.bmp","Bekende","Nonmatching","Stranger","Stranger","Stranger","n",942,0.942,1
"195",2,4,15,"S.bmp","Ikzelf","Matching","Self","Self","Self","m",616,0.616,1
"196",2,4,16,"S.bmp","Ikzelf","Matching","Self","Self","Self","m",658,0.658,1
"197",2,4,17,"C.bmp","Vreemde","Nonmatching","Friend","Friend","Close","m",716,0.716,0
"198",2,4,18,"C.bmp","Ikzelf","Nonmatching","Friend","Friend","Close","n",918,0.918,1
"199",2,4,19,"C.bmp","Bekende","Matching","Friend","Friend","Close","m",736,0.736,1
"200",2,4,20,"S.bmp","Bekende","Nonmatching","Self","Self","Self","n",954,0.954,1
"201",2,4,21,"T.bmp","Ikzelf","Nonmatching","Stranger","Stranger","Stranger","n",1188,1.188,1
"202",2,4,22,"T.bmp","Vreemde","Matching","Stranger","Stranger","Stranger","m",751,0.751,1
"203",2,4,23,"S.bmp","Vreemde","Nonmatching","Self","Self","Self","n",825,0.825,1
"204",2,4,24,"C.bmp","Bekende","Matching","Friend","Friend","Close","m",611,0.611,1
"205",2,4,25,"S.bmp","Ikzelf","Matching","Self","Self","Self","m",604,0.604,1
"206",2,4,26,"C.bmp","Bekende","Matching","Friend","Friend","Close","m",886,0.886,1
"207",2,4,27,"S.bmp","Vreemde","Nonmatching","Self","Self","Self","n",832,0.832,1
"208",2,4,28,"C.bmp","Vreemde","Nonmatching","Friend","Friend","Close","n",1018,1.018,1
"209",2,4,29,"T.bmp","Ikzelf","Nonmatching","Stranger","Stranger","Stranger","n",820,0.82,1
"210",2,4,30,"C.bmp","Ikzelf","Nonmatching","Friend","Friend","Close","n",863,0.863,1
"211",2,4,31,"S.bmp","Ikzelf","Matching","Self","Self","Self","m",665,0.665,1
"212",2,4,32,"T.bmp","Bekende","Nonmatching","Stranger","Stranger","Stranger","n",723,0.723,1
"213",2,4,33,"T.bmp","Vreemde","Matching","Stranger","Stranger","Stranger","m",781,0.781,1
"214",2,4,34,"S.bmp","Bekende","Nonmatching","Self","Self","Self","n",839,0.839,1
"215",2,4,35,"C.bmp","Bekende","Matching","Friend","Friend","Close","m",625,0.625,1
"216",2,4,36,"T.bmp","Vreemde","Matching","Stranger","Stranger","Stranger","m",874,0.874,1
"217",2,4,37,"S.bmp","Vreemde","Nonmatching","Self","Self","Self","n",852,0.852,1
"218",2,4,38,"C.bmp","Vreemde","Nonmatching","Friend","Friend","Close","n",687,0.687,1
"219",2,4,39,"S.bmp","Ikzelf","Matching","Self","Self","Self","m",617,0.617,1
"220",2,4,40,"T.bmp","Ikzelf","Nonmatching","Stranger","Stranger","Stranger","n",771,0.771,1
"221",2,4,41,"C.bmp","Bekende","Matching","Friend","Friend","Close","m",781,0.781,1
"222",2,4,42,"S.bmp","Bekende","Nonmatching","Self","Self","Self","n",727,0.727,1
"223",2,4,43,"C.bmp","Ikzelf","Nonmatching","Friend","Friend","Close","n",881,0.881,1
"224",2,4,44,"S.bmp","Ikzelf","Matching","Self","Self","Self","m",875,0.875,1
"225",2,4,45,"T.bmp","Bekende","Nonmatching","Stranger","Stranger","Stranger","n",1173,1.173,1
"226",2,4,46,"T.bmp","Vreemde","Matching","Stranger","Stranger","Stranger","m",992,0.992,1
"227",2,4,47,"C.bmp","Bekende","Matching","Friend","Friend","Close","m",1257,1.257,1
"228",2,4,48,"T.bmp","Vreemde","Matching","Stranger","Stranger","Stranger","m",851,0.851,1
"229",2,4,49,"C.bmp","Ikzelf","Nonmatching","Friend","Friend","Close","n",877,0.877,1
"230",2,4,50,"T.bmp","Bekende","Nonmatching","Stranger","Stranger","Stranger","n",1143,1.143,1
"231",2,4,51,"S.bmp","Bekende","Nonmatching","Self","Self","Self","n",1105,1.105,1
"232",2,4,52,"C.bmp","Vreemde","Nonmatching","Friend","Friend","Close","n",987,0.987,1
"233",2,4,53,"T.bmp","Vreemde","Matching","Stranger","Stranger","Stranger","m",709,0.709,1
"234",2,4,54,"C.bmp","Bekende","Matching","Friend","Friend","Close","m",1168,1.168,1
"235",2,4,55,"S.bmp","Vreemde","Nonmatching","Self","Self","Self","n",922,0.922,1
"236",2,4,56,"T.bmp","Ikzelf","Nonmatching","Stranger","Stranger","Stranger","m",676,0.676,0
"237",2,4,57,"S.bmp","Ikzelf","Matching","Self","Self","Self","m",670,0.67,1
"238",2,4,58,"C.bmp","Bekende","Matching","Friend","Friend","Close","m",936,0.936,1
"239",2,4,59,"S.bmp","Ikzelf","Matching","Self","Self","Self","m",818,0.818,1
"240",2,4,60,"T.bmp","Vreemde","Matching","Stranger","Stranger","Stranger","m",859,0.859,1
"241",2,5,1,"S.bmp","Ikzelf","Matching","Self","Self","Self","m",722,0.722,1
"242",2,5,2,"C.bmp","Bekende","Matching","Friend","Friend","Close","m",653,0.653,1
"243",2,5,3,"S.bmp","Ikzelf","Matching","Self","Self","Self","m",1318,1.318,1
"244",2,5,4,"S.bmp","Bekende","Nonmatching","Self","Self","Self","n",1392,1.392,1
"245",2,5,5,"T.bmp","Bekende","Nonmatching","Stranger","Stranger","Stranger","n",1306,1.306,1
"246",2,5,6,"T.bmp","Vreemde","Matching","Stranger","Stranger","Stranger","m",772,0.772,1
"247",2,5,7,"S.bmp","Vreemde","Nonmatching","Self","Self","Self","n",798,0.798,1
"248",2,5,8,"C.bmp","Vreemde","Nonmatching","Friend","Friend","Close","n",984,0.984,1
"249",2,5,9,"C.bmp","Ikzelf","Nonmatching","Friend","Friend","Close","n",930,0.93,1
"250",2,5,10,"C.bmp","Bekende","Matching","Friend","Friend","Close","m",893,0.893,1
"251",2,5,11,"T.bmp","Ikzelf","Nonmatching","Stranger","Stranger","Stranger","n",823,0.823,1
"252",2,5,12,"T.bmp","Vreemde","Matching","Stranger","Stranger","Stranger","m",865,0.865,1
"253",2,5,13,"S.bmp","Vreemde","Nonmatching","Self","Self","Self","n",779,0.779,1
"254",2,5,14,"C.bmp","Vreemde","Nonmatching","Friend","Friend","Close","n",1076,1.076,1
"255",2,5,15,"C.bmp","Bekende","Matching","Friend","Friend","Close","m",958,0.958,1
"256",2,5,16,"S.bmp","Bekende","Nonmatching","Self","Self","Self","n",856,0.856,1
"257",2,5,17,"T.bmp","Vreemde","Matching","Stranger","Stranger","Stranger","m",914,0.914,1
"258",2,5,18,"T.bmp","Ikzelf","Nonmatching","Stranger","Stranger","Stranger","n",765,0.765,1
"259",2,5,19,"T.bmp","Bekende","Nonmatching","Stranger","Stranger","Stranger","n",983,0.983,1
"260",2,5,20,"T.bmp","Vreemde","Matching","Stranger","Stranger","Stranger","m",849,0.849,1
"261",2,5,21,"S.bmp","Ikzelf","Matching","Self","Self","Self","m",763,0.763,1
"262",2,5,22,"S.bmp","Ikzelf","Matching","Self","Self","Self","m",693,0.693,1
"263",2,5,23,"C.bmp","Bekende","Matching","Friend","Friend","Close","m",1215,1.215,1
"264",2,5,24,"C.bmp","Ikzelf","Nonmatching","Friend","Friend","Close","n",1545,1.545,1
"265",2,5,25,"C.bmp","Vreemde","Nonmatching","Friend","Friend","Close","n",1075,1.075,1
"266",2,5,26,"S.bmp","Ikzelf","Matching","Self","Self","Self","m",765,0.765,1
"267",2,5,27,"T.bmp","Ikzelf","Nonmatching","Stranger","Stranger","Stranger","n",791,0.791,1
"268",2,5,28,"T.bmp","Vreemde","Matching","Stranger","Stranger","Stranger","m",881,0.881,1
"269",2,5,29,"T.bmp","Vreemde","Matching","Stranger","Stranger","Stranger","m",683,0.683,1
"270",2,5,30,"T.bmp","Bekende","Nonmatching","Stranger","Stranger","Stranger","n",725,0.725,1
"271",2,5,31,"S.bmp","Ikzelf","Matching","Self","Self","Self","m",735,0.735,1
"272",2,5,32,"C.bmp","Bekende","Matching","Friend","Friend","Close","m",953,0.953,1
"273",2,5,33,"C.bmp","Bekende","Matching","Friend","Friend","Close","m",1012,1.012,1
"274",2,5,34,"C.bmp","Ikzelf","Nonmatching","Friend","Friend","Close","n",814,0.814,1
"275",2,5,35,"S.bmp","Bekende","Nonmatching","Self","Self","Self","m",1320,1.32,0
"276",2,5,36,"S.bmp","Vreemde","Nonmatching","Self","Self","Self","n",1345,1.345,1
"277",2,5,37,"T.bmp","Bekende","Nonmatching","Stranger","Stranger","Stranger","n",1371,1.371,1
"278",2,5,38,"T.bmp","Ikzelf","Nonmatching","Stranger","Stranger","Stranger","n",757,0.757,1
"279",2,5,39,"T.bmp","Vreemde","Matching","Stranger","Stranger","Stranger","m",767,0.767,1
"280",2,5,40,"C.bmp","Ikzelf","Nonmatching","Friend","Friend","Close","n",937,0.937,1
"281",2,5,41,"C.bmp","Bekende","Matching","Friend","Friend","Close","m",835,0.835,1
"282",2,5,42,"S.bmp","Bekende","Nonmatching","Self","Self","Self","n",782,0.782,1
"283",2,5,43,"C.bmp","Vreemde","Nonmatching","Friend","Friend","Close","n",872,0.872,1
"284",2,5,44,"S.bmp","Ikzelf","Matching","Self","Self","Self","m",706,0.706,1
"285",2,5,45,"S.bmp","Ikzelf","Matching","Self","Self","Self","m",636,0.636,1
"286",2,5,46,"T.bmp","Vreemde","Matching","Stranger","Stranger","Stranger","m",902,0.902,1
"287",2,5,47,"S.bmp","Vreemde","Nonmatching","Self","Self","Self","n",832,0.832,1
"288",2,5,48,"C.bmp","Bekende","Matching","Friend","Friend","Close","m",874,0.874,1
"289",2,5,49,"S.bmp","Ikzelf","Matching","Self","Self","Self","m",628,0.628,1
"290",2,5,50,"T.bmp","Ikzelf","Nonmatching","Stranger","Stranger","Stranger","n",702,0.702,1
"291",2,5,51,"C.bmp","Bekende","Matching","Friend","Friend","Close","m",648,0.648,1
"292",2,5,52,"T.bmp","Vreemde","Matching","Stranger","Stranger","Stranger","m",1122,1.122,1
"293",2,5,53,"T.bmp","Bekende","Nonmatching","Stranger","Stranger","Stranger","n",764,0.764,1
"294",2,5,54,"C.bmp","Bekende","Matching","Friend","Friend","Close","m",1046,1.046,1
"295",2,5,55,"S.bmp","Ikzelf","Matching","Self","Self","Self","m",656,0.656,1
"296",2,5,56,"C.bmp","Vreemde","Nonmatching","Friend","Friend","Close","n",842,0.842,1
"297",2,5,57,"S.bmp","Vreemde","Nonmatching","Self","Self","Self","n",1237,1.237,1
"298",2,5,58,"S.bmp","Bekende","Nonmatching","Self","Self","Self","n",1023,1.023,1
"299",2,5,59,"C.bmp","Ikzelf","Nonmatching","Friend","Friend","Close","n",729,0.729,1
"300",2,5,60,"T.bmp","Vreemde","Matching","Stranger","Stranger","Stranger","m",642,0.642,1
"301",2,6,1,"C.bmp","Ikzelf","Nonmatching","Friend","Friend","Close","n",921,0.921,1
"302",2,6,2,"C.bmp","Vreemde","Nonmatching","Friend","Friend","Close","n",1251,1.251,1
"303",2,6,3,"S.bmp","Vreemde","Nonmatching","Self","Self","Self","n",1100,1.1,1
"304",2,6,4,"T.bmp","Vreemde","Matching","Stranger","Stranger","Stranger","m",934,0.934,1
"305",2,6,5,"T.bmp","Vreemde","Matching","Stranger","Stranger","Stranger","m",704,0.704,1
"306",2,6,6,"T.bmp","Bekende","Nonmatching","Stranger","Stranger","Stranger","n",843,0.843,1
"307",2,6,7,"S.bmp","Bekende","Nonmatching","Self","Self","Self","n",1173,1.173,1
"308",2,6,8,"S.bmp","Ikzelf","Matching","Self","Self","Self","m",735,0.735,1
"309",2,6,9,"T.bmp","Ikzelf","Nonmatching","Stranger","Stranger","Stranger","n",713,0.713,1
"310",2,6,10,"S.bmp","Ikzelf","Matching","Self","Self","Self","m",963,0.963,1
"311",2,6,11,"C.bmp","Bekende","Matching","Friend","Friend","Close","m",813,0.813,1
"312",2,6,12,"C.bmp","Bekende","Matching","Friend","Friend","Close","m",663,0.663,1
"313",2,6,13,"S.bmp","Ikzelf","Matching","Self","Self","Self","m",641,0.641,1
"314",2,6,14,"C.bmp","Vreemde","Nonmatching","Friend","Friend","Close","n",1100,1.1,1
"315",2,6,15,"T.bmp","Vreemde","Matching","Stranger","Stranger","Stranger","m",709,0.709,1
"316",2,6,16,"T.bmp","Vreemde","Matching","Stranger","Stranger","Stranger","m",879,0.879,1
"317",2,6,17,"C.bmp","Bekende","Matching","Friend","Friend","Close","m",777,0.777,1
"318",2,6,18,"S.bmp","Ikzelf","Matching","Self","Self","Self","m",691,0.691,1
"319",2,6,19,"S.bmp","Bekende","Nonmatching","Self","Self","Self","n",893,0.893,1
"320",2,6,20,"C.bmp","Bekende","Matching","Friend","Friend","Close","m",679,0.679,1
"321",2,6,21,"T.bmp","Ikzelf","Nonmatching","Stranger","Stranger","Stranger","n",994,0.994,1
"322",2,6,22,"T.bmp","Bekende","Nonmatching","Stranger","Stranger","Stranger","n",956,0.956,1
"323",2,6,23,"S.bmp","Vreemde","Nonmatching","Self","Self","Self","n",870,0.87,1
"324",2,6,24,"C.bmp","Ikzelf","Nonmatching","Friend","Friend","Close","n",768,0.768,1
"325",2,6,25,"T.bmp","Vreemde","Matching","Stranger","Stranger","Stranger","m",938,0.938,1
"326",2,6,26,"S.bmp","Bekende","Nonmatching","Self","Self","Self","n",788,0.788,1
"327",2,6,27,"C.bmp","Ikzelf","Nonmatching","Friend","Friend","Close","n",845,0.845,1
"328",2,6,28,"S.bmp","Ikzelf","Matching","Self","Self","Self","m",711,0.711,1
"329",2,6,29,"C.bmp","Bekende","Matching","Friend","Friend","Close","n",1202,1.202,0
"330",2,6,30,"S.bmp","Ikzelf","Matching","Self","Self","Self","m",1100,1.1,1
"331",2,6,31,"T.bmp","Ikzelf","Nonmatching","Stranger","Stranger","Stranger","n",1190,1.19,1
"332",2,6,32,"T.bmp","Bekende","Nonmatching","Stranger","Stranger","Stranger","n",1168,1.168,1
"333",2,6,33,"S.bmp","Vreemde","Nonmatching","Self","Self","Self","n",1082,1.082,1
"334",2,6,34,"C.bmp","Vreemde","Nonmatching","Friend","Friend","Close","n",1108,1.108,1
"335",2,6,35,"T.bmp","Vreemde","Matching","Stranger","Stranger","Stranger","m",846,0.846,1
"336",2,6,36,"C.bmp","Bekende","Matching","Friend","Friend","Close","m",696,0.696,1
"337",2,6,37,"C.bmp","Ikzelf","Nonmatching","Friend","Friend","Close","n",787,0.787,1
"338",2,6,38,"S.bmp","Bekende","Nonmatching","Self","Self","Self","n",940,0.94,1
"339",2,6,39,"C.bmp","Bekende","Matching","Friend","Friend","Close","m",982,0.982,1
"340",2,6,40,"S.bmp","Ikzelf","Matching","Self","Self","Self","m",832,0.832,1
"341",2,6,41,"C.bmp","Bekende","Matching","Friend","Friend","Close","m",810,0.81,1
"342",2,6,42,"S.bmp","Ikzelf","Matching","Self","Self","Self","m",724,0.724,1
"343",2,6,43,"T.bmp","Bekende","Nonmatching","Stranger","Stranger","Stranger","n",670,0.67,1
"344",2,6,44,"S.bmp","Vreemde","Nonmatching","Self","Self","Self","n",872,0.872,1
"345",2,6,45,"C.bmp","Vreemde","Nonmatching","Friend","Friend","Close","n",1107,1.107,1
"346",2,6,46,"T.bmp","Ikzelf","Nonmatching","Stranger","Stranger","Stranger","n",1037,1.037,1
"347",2,6,47,"T.bmp","Vreemde","Matching","Stranger","Stranger","Stranger","m",903,0.903,1
"348",2,6,48,"T.bmp","Vreemde","Matching","Stranger","Stranger","Stranger","m",625,0.625,1
"349",2,6,49,"S.bmp","Bekende","Nonmatching","Self","Self","Self","n",842,0.842,1
"350",2,6,50,"C.bmp","Bekende","Matching","Friend","Friend","Close","",0,0,0
"351",2,6,51,"T.bmp","Vreemde","Matching","Stranger","Stranger","Stranger","m",1118,1.118,1
"352",2,6,52,"S.bmp","Vreemde","Nonmatching","Self","Self","Self","n",744,0.744,1
"353",2,6,53,"C.bmp","Vreemde","Nonmatching","Friend","Friend","Close","n",1075,1.075,1
"354",2,6,54,"S.bmp","Ikzelf","Matching","Self","Self","Self","m",669,0.669,1
"355",2,6,55,"S.bmp","Ikzelf","Matching","Self","Self","Self","m",887,0.887,1
"356",2,6,56,"T.bmp","Ikzelf","Nonmatching","Stranger","Stranger","Stranger","n",625,0.625,1
"357",2,6,57,"C.bmp","Ikzelf","Nonmatching","Friend","Friend","Close","n",843,0.843,1
"358",2,6,58,"T.bmp","Vreemde","Matching","Stranger","Stranger","Stranger","m",949,0.949,1
"359",2,6,59,"C.bmp","Bekende","Matching","Friend","Friend","Close","m",1183,1.183,1
"360",2,6,60,"T.bmp","Bekende","Nonmatching","Stranger","Stranger","Stranger","n",1320,1.32,1
"361",3,1,1,"C.bmp","Vreemde","Nonmatching","Self","Self","Self","",0,0,0
"362",3,1,2,"C.bmp","Ikzelf","Matching","Self","Self","Self","",0,0,0
"363",3,1,3,"S.bmp","Vreemde","Matching","Stranger","Stranger","Stranger","m",776,0.776,0
"364",3,1,4,"T.bmp","Vreemde","Nonmatching","Friend","Friend","Close","m",674,0.674,1
"365",3,1,5,"T.bmp","Bekende","Matching","Friend","Friend","Close","m",525,0.525,0
"366",3,1,6,"T.bmp","Ikzelf","Nonmatching","Friend","Friend","Close","m",759,0.759,1
"367",3,1,7,"C.bmp","Bekende","Nonmatching","Self","Self","Self","m",865,0.865,1
"368",3,1,8,"C.bmp","Ikzelf","Matching","Self","Self","Self","n",667,0.667,1
"369",3,1,9,"T.bmp","Bekende","Matching","Friend","Friend","Close","m",949,0.949,0
"370",3,1,10,"S.bmp","Ikzelf","Nonmatching","Stranger","Stranger","Stranger","m",799,0.799,1
"371",3,1,11,"S.bmp","Vreemde","Matching","Stranger","Stranger","Stranger","m",1177,1.177,0
"372",3,1,12,"S.bmp","Bekende","Nonmatching","Stranger","Stranger","Stranger","m",1443,1.443,1
"373",3,1,13,"T.bmp","Ikzelf","Nonmatching","Friend","Friend","Close","m",844,0.844,1
"374",3,1,14,"S.bmp","Vreemde","Matching","Stranger","Stranger","Stranger","n",870,0.87,1
"375",3,1,15,"S.bmp","Ikzelf","Nonmatching","Stranger","Stranger","Stranger","m",737,0.737,1
"376",3,1,16,"T.bmp","Bekende","Matching","Friend","Friend","Close","n",699,0.699,1
"377",3,1,17,"C.bmp","Ikzelf","Matching","Self","Self","Self","n",645,0.645,1
"378",3,1,18,"T.bmp","Bekende","Matching","Friend","Friend","Close","n",879,0.879,1
"379",3,1,19,"T.bmp","Vreemde","Nonmatching","Friend","Friend","Close","m",1193,1.193,1
"380",3,1,20,"S.bmp","Vreemde","Matching","Stranger","Stranger","Stranger","n",915,0.915,1
"381",3,1,21,"C.bmp","Vreemde","Nonmatching","Self","Self","Self","m",861,0.861,1
"382",3,1,22,"C.bmp","Ikzelf","Matching","Self","Self","Self","n",567,0.567,1
"383",3,1,23,"S.bmp","Bekende","Nonmatching","Stranger","Stranger","Stranger","n",977,0.977,0
"384",3,1,24,"C.bmp","Bekende","Nonmatching","Self","Self","Self","m",924,0.924,1
"385",3,1,25,"C.bmp","Vreemde","Nonmatching","Self","Self","Self","m",822,0.822,1
"386",3,1,26,"T.bmp","Bekende","Matching","Friend","Friend","Close","n",783,0.783,1
"387",3,1,27,"S.bmp","Bekende","Nonmatching","Stranger","Stranger","Stranger","m",825,0.825,1
"388",3,1,28,"S.bmp","Vreemde","Matching","Stranger","Stranger","Stranger","n",723,0.723,1
"389",3,1,29,"T.bmp","Bekende","Matching","Friend","Friend","Close","n",893,0.893,1
"390",3,1,30,"C.bmp","Ikzelf","Matching","Self","Self","Self","n",615,0.615,1
"391",3,1,31,"T.bmp","Ikzelf","Nonmatching","Friend","Friend","Close","m",705,0.705,1
"392",3,1,32,"T.bmp","Vreemde","Nonmatching","Friend","Friend","Close","m",843,0.843,1
"393",3,1,33,"C.bmp","Ikzelf","Matching","Self","Self","Self","n",694,0.694,1
"394",3,1,34,"S.bmp","Vreemde","Matching","Stranger","Stranger","Stranger","n",816,0.816,1
"395",3,1,35,"C.bmp","Bekende","Nonmatching","Self","Self","Self","m",938,0.938,1
"396",3,1,36,"S.bmp","Ikzelf","Nonmatching","Stranger","Stranger","Stranger","m",772,0.772,1
"397",3,1,37,"C.bmp","Ikzelf","Matching","Self","Self","Self","n",590,0.59,1
"398",3,1,38,"C.bmp","Vreemde","Nonmatching","Self","Self","Self","m",808,0.808,1
"399",3,1,39,"C.bmp","Bekende","Nonmatching","Self","Self","Self","m",754,0.754,1
"400",3,1,40,"S.bmp","Vreemde","Matching","Stranger","Stranger","Stranger","n",1004,1.004,1
"401",3,1,41,"S.bmp","Vreemde","Matching","Stranger","Stranger","Stranger","n",741,0.741,1
"402",3,1,42,"T.bmp","Ikzelf","Nonmatching","Friend","Friend","Close","n",688,0.688,0
"403",3,1,43,"S.bmp","Ikzelf","Nonmatching","Stranger","Stranger","Stranger","m",810,0.81,1
"404",3,1,44,"S.bmp","Bekende","Nonmatching","Stranger","Stranger","Stranger","m",1012,1.012,1
"405",3,1,45,"T.bmp","Bekende","Matching","Friend","Friend","Close","n",718,0.718,1
"406",3,1,46,"C.bmp","Ikzelf","Matching","Self","Self","Self","n",664,0.664,1
"407",3,1,47,"T.bmp","Bekende","Matching","Friend","Friend","Close","m",706,0.706,0
"408",3,1,48,"T.bmp","Vreemde","Nonmatching","Friend","Friend","Close","m",892,0.892,1
"409",3,1,49,"S.bmp","Ikzelf","Nonmatching","Stranger","Stranger","Stranger","m",790,0.79,1
"410",3,1,50,"T.bmp","Ikzelf","Nonmatching","Friend","Friend","Close","m",736,0.736,1
"411",3,1,51,"T.bmp","Vreemde","Nonmatching","Friend","Friend","Close","m",731,0.731,1
"412",3,1,52,"T.bmp","Bekende","Matching","Friend","Friend","Close","n",677,0.677,1
"413",3,1,53,"C.bmp","Vreemde","Nonmatching","Self","Self","Self","m",767,0.767,1
"414",3,1,54,"S.bmp","Bekende","Nonmatching","Stranger","Stranger","Stranger","n",953,0.953,0
"415",3,1,55,"C.bmp","Ikzelf","Matching","Self","Self","Self","n",802,0.802,1
"416",3,1,56,"C.bmp","Bekende","Nonmatching","Self","Self","Self","m",732,0.732,1
"417",3,1,57,"S.bmp","Vreemde","Matching","Stranger","Stranger","Stranger","n",838,0.838,1
"418",3,1,58,"S.bmp","Vreemde","Matching","Stranger","Stranger","Stranger","n",704,0.704,1
"419",3,1,59,"T.bmp","Bekende","Matching","Friend","Friend","Close","n",858,0.858,1
"420",3,1,60,"C.bmp","Ikzelf","Matching","Self","Self","Self","n",660,0.66,1
"421",3,2,1,"S.bmp","Bekende","Nonmatching","Stranger","Stranger","Stranger","m",971,0.971,1
"422",3,2,2,"C.bmp","Ikzelf","Matching","Self","Self","Self","n",677,0.677,1
"423",3,2,3,"T.bmp","Ikzelf","Nonmatching","Friend","Friend","Close","m",751,0.751,1
"424",3,2,4,"C.bmp","Bekende","Nonmatching","Self","Self","Self","m",713,0.713,1
"425",3,2,5,"T.bmp","Bekende","Matching","Friend","Friend","Close","n",723,0.723,1
"426",3,2,6,"C.bmp","Vreemde","Nonmatching","Self","Self","Self","m",829,0.829,1
"427",3,2,7,"T.bmp","Bekende","Matching","Friend","Friend","Close","n",887,0.887,1
"428",3,2,8,"C.bmp","Ikzelf","Matching","Self","Self","Self","n",609,0.609,1
"429",3,2,9,"S.bmp","Ikzelf","Nonmatching","Stranger","Stranger","Stranger","m",651,0.651,1
"430",3,2,10,"T.bmp","Vreemde","Nonmatching","Friend","Friend","Close","n",853,0.853,0
"431",3,2,11,"S.bmp","Vreemde","Matching","Stranger","Stranger","Stranger","n",847,0.847,1
"432",3,2,12,"S.bmp","Vreemde","Matching","Stranger","Stranger","Stranger","n",650,0.65,1
"433",3,2,13,"S.bmp","Bekende","Nonmatching","Stranger","Stranger","Stranger","m",708,0.708,1
"434",3,2,14,"T.bmp","Bekende","Matching","Friend","Friend","Close","n",654,0.654,1
"435",3,2,15,"S.bmp","Ikzelf","Nonmatching","Stranger","Stranger","Stranger","m",680,0.68,1
"436",3,2,16,"T.bmp","Bekende","Matching","Friend","Friend","Close","n",674,0.674,1
"437",3,2,17,"S.bmp","Vreemde","Matching","Stranger","Stranger","Stranger","m",731,0.731,0
"438",3,2,18,"C.bmp","Ikzelf","Matching","Self","Self","Self","n",629,0.629,1
"439",3,2,19,"C.bmp","Bekende","Nonmatching","Self","Self","Self","m",671,0.671,1
"440",3,2,20,"T.bmp","Vreemde","Nonmatching","Friend","Friend","Close","m",841,0.841,1
"441",3,2,21,"T.bmp","Ikzelf","Nonmatching","Friend","Friend","Close","m",772,0.772,1
"442",3,2,22,"C.bmp","Vreemde","Nonmatching","Self","Self","Self","m",798,0.798,1
"443",3,2,23,"C.bmp","Ikzelf","Matching","Self","Self","Self","n",632,0.632,1
"444",3,2,24,"S.bmp","Vreemde","Matching","Stranger","Stranger","Stranger","n",818,0.818,1
"445",3,2,25,"T.bmp","Vreemde","Nonmatching","Friend","Friend","Close","m",796,0.796,1
"446",3,2,26,"C.bmp","Ikzelf","Matching","Self","Self","Self","n",646,0.646,1
"447",3,2,27,"C.bmp","Vreemde","Nonmatching","Self","Self","Self","m",752,0.752,1
"448",3,2,28,"S.bmp","Vreemde","Matching","Stranger","Stranger","Stranger","n",794,0.794,1
"449",3,2,29,"S.bmp","Ikzelf","Nonmatching","Stranger","Stranger","Stranger","m",676,0.676,1
"450",3,2,30,"S.bmp","Bekende","Nonmatching","Stranger","Stranger","Stranger","n",863,0.863,0
"451",3,2,31,"T.bmp","Ikzelf","Nonmatching","Friend","Friend","Close","m",809,0.809,1
"452",3,2,32,"T.bmp","Bekende","Matching","Friend","Friend","Close","n",882,0.882,1
"453",3,2,33,"T.bmp","Bekende","Matching","Friend","Friend","Close","n",700,0.7,1
"454",3,2,34,"C.bmp","Bekende","Nonmatching","Self","Self","Self","m",774,0.774,1
"455",3,2,35,"S.bmp","Vreemde","Matching","Stranger","Stranger","Stranger","n",832,0.832,1
"456",3,2,36,"C.bmp","Ikzelf","Matching","Self","Self","Self","n",714,0.714,1
"457",3,2,37,"T.bmp","Bekende","Matching","Friend","Friend","Close","n",740,0.74,1
"458",3,2,38,"T.bmp","Bekende","Matching","Friend","Friend","Close","n",654,0.654,1
"459",3,2,39,"C.bmp","Ikzelf","Matching","Self","Self","Self","n",633,0.633,1
"460",3,2,40,"C.bmp","Ikzelf","Matching","Self","Self","Self","n",707,0.707,1
"461",3,2,41,"S.bmp","Bekende","Nonmatching","Stranger","Stranger","Stranger","n",717,0.717,0
"462",3,2,42,"S.bmp","Vreemde","Matching","Stranger","Stranger","Stranger","n",839,0.839,1
"463",3,2,43,"T.bmp","Vreemde","Nonmatching","Friend","Friend","Close","m",817,0.817,1
"464",3,2,44,"T.bmp","Ikzelf","Nonmatching","Friend","Friend","Close","m",811,0.811,1
"465",3,2,45,"S.bmp","Vreemde","Matching","Stranger","Stranger","Stranger","n",885,0.885,1
"466",3,2,46,"C.bmp","Vreemde","Nonmatching","Self","Self","Self","m",702,0.702,1
"467",3,2,47,"C.bmp","Bekende","Nonmatching","Self","Self","Self","m",648,0.648,1
"468",3,2,48,"S.bmp","Ikzelf","Nonmatching","Stranger","Stranger","Stranger","m",771,0.771,1
"469",3,2,49,"C.bmp","Bekende","Nonmatching","Self","Self","Self","m",701,0.701,1
"470",3,2,50,"T.bmp","Bekende","Matching","Friend","Friend","Close","n",679,0.679,1
"471",3,2,51,"T.bmp","Bekende","Matching","Friend","Friend","Close","n",689,0.689,1
"472",3,2,52,"T.bmp","Vreemde","Nonmatching","Friend","Friend","Close","m",907,0.907,1
"473",3,2,53,"T.bmp","Ikzelf","Nonmatching","Friend","Friend","Close","m",757,0.757,1
"474",3,2,54,"C.bmp","Vreemde","Nonmatching","Self","Self","Self","m",799,0.799,1
"475",3,2,55,"S.bmp","Bekende","Nonmatching","Stranger","Stranger","Stranger","m",1113,1.113,1
"476",3,2,56,"S.bmp","Ikzelf","Nonmatching","Stranger","Stranger","Stranger","m",771,0.771,1
"477",3,2,57,"S.bmp","Vreemde","Matching","Stranger","Stranger","Stranger","n",861,0.861,1
"478",3,2,58,"C.bmp","Ikzelf","Matching","Self","Self","Self","n",648,0.648,1
"479",3,2,59,"C.bmp","Ikzelf","Matching","Self","Self","Self","n",594,0.594,1
"480",3,2,60,"S.bmp","Vreemde","Matching","Stranger","Stranger","Stranger","n",891,0.891,1
"481",3,3,1,"C.bmp","Ikzelf","Matching","Self","Self","Self","n",594,0.594,1
"482",3,3,2,"T.bmp","Ikzelf","Nonmatching","Friend","Friend","Close","m",796,0.796,1
"483",3,3,3,"S.bmp","Vreemde","Matching","Stranger","Stranger","Stranger","n",646,0.646,1
"484",3,3,4,"C.bmp","Bekende","Nonmatching","Self","Self","Self","m",768,0.768,1
"485",3,3,5,"S.bmp","Vreemde","Matching","Stranger","Stranger","Stranger","n",746,0.746,1
"486",3,3,6,"S.bmp","Bekende","Nonmatching","Stranger","Stranger","Stranger","m",836,0.836,1
"487",3,3,7,"C.bmp","Ikzelf","Matching","Self","Self","Self","n",654,0.654,1
"488",3,3,8,"T.bmp","Vreemde","Nonmatching","Friend","Friend","Close","m",680,0.68,1
"489",3,3,9,"C.bmp","Vreemde","Nonmatching","Self","Self","Self","m",706,0.706,1
"490",3,3,10,"T.bmp","Bekende","Matching","Friend","Friend","Close","n",844,0.844,1
"491",3,3,11,"S.bmp","Ikzelf","Nonmatching","Stranger","Stranger","Stranger","m",758,0.758,1
"492",3,3,12,"T.bmp","Bekende","Matching","Friend","Friend","Close","n",704,0.704,1
"493",3,3,13,"C.bmp","Ikzelf","Matching","Self","Self","Self","n",746,0.746,1
"494",3,3,14,"T.bmp","Bekende","Matching","Friend","Friend","Close","n",740,0.74,1
"495",3,3,15,"S.bmp","Vreemde","Matching","Stranger","Stranger","Stranger","n",734,0.734,1
"496",3,3,16,"C.bmp","Bekende","Nonmatching","Self","Self","Self","m",632,0.632,1
"497",3,3,17,"T.bmp","Vreemde","Nonmatching","Friend","Friend","Close","m",1042,1.042,1
"498",3,3,18,"C.bmp","Vreemde","Nonmatching","Self","Self","Self","m",749,0.749,1
"499",3,3,19,"S.bmp","Vreemde","Matching","Stranger","Stranger","Stranger","n",807,0.807,1
"500",3,3,20,"C.bmp","Ikzelf","Matching","Self","Self","Self","n",801,0.801,1
"501",3,3,21,"S.bmp","Ikzelf","Nonmatching","Stranger","Stranger","Stranger","m",698,0.698,1
"502",3,3,22,"S.bmp","Bekende","Nonmatching","Stranger","Stranger","Stranger","m",980,0.98,1
"503",3,3,23,"T.bmp","Ikzelf","Nonmatching","Friend","Friend","Close","m",814,0.814,1
"504",3,3,24,"T.bmp","Bekende","Matching","Friend","Friend","Close","n",696,0.696,1
"505",3,3,25,"C.bmp","Ikzelf","Matching","Self","Self","Self","n",642,0.642,1
"506",3,3,26,"S.bmp","Vreemde","Matching","Stranger","Stranger","Stranger","n",716,0.716,1
"507",3,3,27,"S.bmp","Vreemde","Matching","Stranger","Stranger","Stranger","n",919,0.919,1
"508",3,3,28,"T.bmp","Ikzelf","Nonmatching","Friend","Friend","Close","m",657,0.657,1
"509",3,3,29,"C.bmp","Vreemde","Nonmatching","Self","Self","Self","m",715,0.715,1
"510",3,3,30,"C.bmp","Bekende","Nonmatching","Self","Self","Self","m",757,0.757,1
"511",3,3,31,"T.bmp","Bekende","Matching","Friend","Friend","Close","n",767,0.767,1
"512",3,3,32,"S.bmp","Bekende","Nonmatching","Stranger","Stranger","Stranger","n",841,0.841,0
"513",3,3,33,"S.bmp","Ikzelf","Nonmatching","Stranger","Stranger","Stranger","m",691,0.691,1
"514",3,3,34,"T.bmp","Bekende","Matching","Friend","Friend","Close","n",781,0.781,1
"515",3,3,35,"T.bmp","Vreemde","Nonmatching","Friend","Friend","Close","m",870,0.87,1
"516",3,3,36,"C.bmp","Ikzelf","Matching","Self","Self","Self","n",673,0.673,1
"517",3,3,37,"C.bmp","Bekende","Nonmatching","Self","Self","Self","m",1035,1.035,1
"518",3,3,38,"C.bmp","Ikzelf","Matching","Self","Self","Self","n",693,0.693,1
"519",3,3,39,"S.bmp","Vreemde","Matching","Stranger","Stranger","Stranger","n",767,0.767,1
"520",3,3,40,"T.bmp","Ikzelf","Nonmatching","Friend","Friend","Close","m",889,0.889,1
"521",3,3,41,"C.bmp","Vreemde","Nonmatching","Self","Self","Self","m",819,0.819,1
"522",3,3,42,"S.bmp","Bekende","Nonmatching","Stranger","Stranger","Stranger","m",941,0.941,1
"523",3,3,43,"T.bmp","Bekende","Matching","Friend","Friend","Close","n",647,0.647,1
"524",3,3,44,"S.bmp","Vreemde","Matching","Stranger","Stranger","Stranger","n",689,0.689,1
"525",3,3,45,"T.bmp","Bekende","Matching","Friend","Friend","Close","n",764,0.764,1
"526",3,3,46,"C.bmp","Ikzelf","Matching","Self","Self","Self","n",646,0.646,1
"527",3,3,47,"S.bmp","Ikzelf","Nonmatching","Stranger","Stranger","Stranger","m",704,0.704,1
"528",3,3,48,"T.bmp","Vreemde","Nonmatching","Friend","Friend","Close","m",938,0.938,1
"529",3,3,49,"S.bmp","Ikzelf","Nonmatching","Stranger","Stranger","Stranger","m",740,0.74,1
"530",3,3,50,"S.bmp","Vreemde","Matching","Stranger","Stranger","Stranger","n",1037,1.037,1
"531",3,3,51,"S.bmp","Bekende","Nonmatching","Stranger","Stranger","Stranger","m",887,0.887,1
"532",3,3,52,"C.bmp","Bekende","Nonmatching","Self","Self","Self","m",881,0.881,1
"533",3,3,53,"T.bmp","Bekende","Matching","Friend","Friend","Close","n",619,0.619,1
"534",3,3,54,"C.bmp","Ikzelf","Matching","Self","Self","Self","n",694,0.694,1
"535",3,3,55,"T.bmp","Vreemde","Nonmatching","Friend","Friend","Close","m",752,0.752,1
"536",3,3,56,"C.bmp","Vreemde","Nonmatching","Self","Self","Self","m",810,0.81,1
"537",3,3,57,"C.bmp","Ikzelf","Matching","Self","Self","Self","n",708,0.708,1
"538",3,3,58,"S.bmp","Vreemde","Matching","Stranger","Stranger","Stranger","n",670,0.67,1
"539",3,3,59,"T.bmp","Bekende","Matching","Friend","Friend","Close","n",696,0.696,1
"540",3,3,60,"T.bmp","Ikzelf","Nonmatching","Friend","Friend","Close","m",690,0.69,1
"541",3,4,1,"C.bmp","Ikzelf","Matching","Self","Self","Self","n",648,0.648,1
"542",3,4,2,"T.bmp","Ikzelf","Nonmatching","Friend","Friend","Close","m",738,0.738,1
"543",3,4,3,"T.bmp","Bekende","Matching","Friend","Friend","Close","n",780,0.78,1
"544",3,4,4,"S.bmp","Ikzelf","Nonmatching","Stranger","Stranger","Stranger","m",694,0.694,1
"545",3,4,5,"C.bmp","Vreemde","Nonmatching","Self","Self","Self","m",848,0.848,1
"546",3,4,6,"T.bmp","Vreemde","Nonmatching","Friend","Friend","Close","m",1115,1.115,1
"547",3,4,7,"C.bmp","Ikzelf","Matching","Self","Self","Self","n",709,0.709,1
"548",3,4,8,"C.bmp","Bekende","Nonmatching","Self","Self","Self","m",671,0.671,1
"549",3,4,9,"S.bmp","Vreemde","Matching","Stranger","Stranger","Stranger","n",649,0.649,1
"550",3,4,10,"S.bmp","Vreemde","Matching","Stranger","Stranger","Stranger","n",803,0.803,1
"551",3,4,11,"S.bmp","Bekende","Nonmatching","Stranger","Stranger","Stranger","m",1020,1.02,1
"552",3,4,12,"T.bmp","Bekende","Matching","Friend","Friend","Close","n",806,0.806,1
"553",3,4,13,"C.bmp","Bekende","Nonmatching","Self","Self","Self","m",656,0.656,1
"554",3,4,14,"T.bmp","Ikzelf","Nonmatching","Friend","Friend","Close","m",698,0.698,1
"555",3,4,15,"T.bmp","Bekende","Matching","Friend","Friend","Close","n",757,0.757,1
"556",3,4,16,"T.bmp","Bekende","Matching","Friend","Friend","Close","m",719,0.719,0
"557",3,4,17,"S.bmp","Bekende","Nonmatching","Stranger","Stranger","Stranger","m",953,0.953,1
"558",3,4,18,"S.bmp","Ikzelf","Nonmatching","Stranger","Stranger","Stranger","m",707,0.707,1
"559",3,4,19,"C.bmp","Ikzelf","Matching","Self","Self","Self","n",781,0.781,1
"560",3,4,20,"T.bmp","Vreemde","Nonmatching","Friend","Friend","Close","m",1271,1.271,1
"561",3,4,21,"C.bmp","Vreemde","Nonmatching","Self","Self","Self","m",1089,1.089,1
"562",3,4,22,"C.bmp","Ikzelf","Matching","Self","Self","Self","n",603,0.603,1
"563",3,4,23,"S.bmp","Vreemde","Matching","Stranger","Stranger","Stranger","n",805,0.805,1
"564",3,4,24,"S.bmp","Vreemde","Matching","Stranger","Stranger","Stranger","n",608,0.608,1
"565",3,4,25,"S.bmp","Bekende","Nonmatching","Stranger","Stranger","Stranger","m",714,0.714,1
"566",3,4,26,"C.bmp","Ikzelf","Matching","Self","Self","Self","n",708,0.708,1
"567",3,4,27,"T.bmp","Vreemde","Nonmatching","Friend","Friend","Close","n",765,0.765,0
"568",3,4,28,"S.bmp","Vreemde","Matching","Stranger","Stranger","Stranger","n",791,0.791,1
"569",3,4,29,"T.bmp","Bekende","Matching","Friend","Friend","Close","n",1025,1.025,1
"570",3,4,30,"T.bmp","Bekende","Matching","Friend","Friend","Close","n",715,0.715,1
"571",3,4,31,"C.bmp","Bekende","Nonmatching","Self","Self","Self","n",741,0.741,0
"572",3,4,32,"T.bmp","Ikzelf","Nonmatching","Friend","Friend","Close","m",735,0.735,1
"573",3,4,33,"S.bmp","Vreemde","Matching","Stranger","Stranger","Stranger","m",858,0.858,0
"574",3,4,34,"C.bmp","Ikzelf","Matching","Self","Self","Self","n",708,0.708,1
"575",3,4,35,"S.bmp","Ikzelf","Nonmatching","Stranger","Stranger","Stranger","m",718,0.718,1
"576",3,4,36,"C.bmp","Vreemde","Nonmatching","Self","Self","Self","m",664,0.664,1
"577",3,4,37,"S.bmp","Ikzelf","Nonmatching","Stranger","Stranger","Stranger","m",754,0.754,1
"578",3,4,38,"S.bmp","Vreemde","Matching","Stranger","Stranger","Stranger","n",812,0.812,1
"579",3,4,39,"T.bmp","Ikzelf","Nonmatching","Friend","Friend","Close","m",758,0.758,1
"580",3,4,40,"T.bmp","Bekende","Matching","Friend","Friend","Close","n",736,0.736,1
"581",3,4,41,"T.bmp","Vreemde","Nonmatching","Friend","Friend","Close","m",793,0.793,1
"582",3,4,42,"T.bmp","Bekende","Matching","Friend","Friend","Close","n",708,0.708,1
"583",3,4,43,"S.bmp","Bekende","Nonmatching","Stranger","Stranger","Stranger","m",782,0.782,1
"584",3,4,44,"C.bmp","Vreemde","Nonmatching","Self","Self","Self","m",776,0.776,1
"585",3,4,45,"S.bmp","Vreemde","Matching","Stranger","Stranger","Stranger","n",770,0.77,1
"586",3,4,46,"C.bmp","Bekende","Nonmatching","Self","Self","Self","m",684,0.684,1
"587",3,4,47,"C.bmp","Ikzelf","Matching","Self","Self","Self","n",630,0.63,1
"588",3,4,48,"C.bmp","Ikzelf","Matching","Self","Self","Self","n",640,0.64,1
"589",3,4,49,"T.bmp","Bekende","Matching","Friend","Friend","Close","n",842,0.842,1
"590",3,4,50,"C.bmp","Ikzelf","Matching","Self","Self","Self","n",756,0.756,1
"591",3,4,51,"S.bmp","Vreemde","Matching","Stranger","Stranger","Stranger","n",767,0.767,1
"592",3,4,52,"C.bmp","Ikzelf","Matching","Self","Self","Self","n",617,0.617,1
"593",3,4,53,"C.bmp","Bekende","Nonmatching","Self","Self","Self","m",867,0.867,1
"594",3,4,54,"S.bmp","Vreemde","Matching","Stranger","Stranger","Stranger","n",860,0.86,1
"595",3,4,55,"T.bmp","Bekende","Matching","Friend","Friend","Close","n",838,0.838,1
"596",3,4,56,"C.bmp","Vreemde","Nonmatching","Self","Self","Self","m",704,0.704,1
"597",3,4,57,"S.bmp","Ikzelf","Nonmatching","Stranger","Stranger","Stranger","m",714,0.714,1
"598",3,4,58,"T.bmp","Vreemde","Nonmatching","Friend","Friend","Close","n",820,0.82,0
"599",3,4,59,"S.bmp","Bekende","Nonmatching","Stranger","Stranger","Stranger","n",942,0.942,0
"600",3,4,60,"T.bmp","Ikzelf","Nonmatching","Friend","Friend","Close","m",872,0.872,1
"601",3,5,1,"S.bmp","Bekende","Nonmatching","Stranger","Stranger","Stranger","m",1022,1.022,1
"602",3,5,2,"T.bmp","Ikzelf","Nonmatching","Friend","Friend","Close","m",664,0.664,1
"603",3,5,3,"C.bmp","Ikzelf","Matching","Self","Self","Self","n",547,0.547,1
"604",3,5,4,"C.bmp","Ikzelf","Matching","Self","Self","Self","n",605,0.605,1
"605",3,5,5,"C.bmp","Bekende","Nonmatching","Self","Self","Self","m",727,0.727,1
"606",3,5,6,"C.bmp","Vreemde","Nonmatching","Self","Self","Self","m",721,0.721,1
"607",3,5,7,"S.bmp","Vreemde","Matching","Stranger","Stranger","Stranger","n",619,0.619,1
"608",3,5,8,"S.bmp","Vreemde","Matching","Stranger","Stranger","Stranger","n",677,0.677,1
"609",3,5,9,"T.bmp","Vreemde","Nonmatching","Friend","Friend","Close","m",959,0.959,1
"610",3,5,10,"T.bmp","Bekende","Matching","Friend","Friend","Close","n",713,0.713,1
"611",3,5,11,"T.bmp","Bekende","Matching","Friend","Friend","Close","n",739,0.739,1
"612",3,5,12,"S.bmp","Ikzelf","Nonmatching","Stranger","Stranger","Stranger","m",734,0.734,1
"613",3,5,13,"C.bmp","Bekende","Nonmatching","Self","Self","Self","m",712,0.712,1
"614",3,5,14,"S.bmp","Vreemde","Matching","Stranger","Stranger","Stranger","n",690,0.69,1
"615",3,5,15,"S.bmp","Bekende","Nonmatching","Stranger","Stranger","Stranger","m",955,0.955,1
"616",3,5,16,"S.bmp","Vreemde","Matching","Stranger","Stranger","Stranger","n",1221,1.221,1
"617",3,5,17,"C.bmp","Ikzelf","Matching","Self","Self","Self","n",639,0.639,1
"618",3,5,18,"T.bmp","Ikzelf","Nonmatching","Friend","Friend","Close","m",697,0.697,1
"619",3,5,19,"C.bmp","Ikzelf","Matching","Self","Self","Self","n",707,0.707,1
"620",3,5,20,"T.bmp","Vreemde","Nonmatching","Friend","Friend","Close","m",861,0.861,1
"621",3,5,21,"T.bmp","Bekende","Matching","Friend","Friend","Close","n",744,0.744,1
"622",3,5,22,"S.bmp","Ikzelf","Nonmatching","Stranger","Stranger","Stranger","m",722,0.722,1
"623",3,5,23,"C.bmp","Vreemde","Nonmatching","Self","Self","Self","m",668,0.668,1
"624",3,5,24,"T.bmp","Bekende","Matching","Friend","Friend","Close","n",886,0.886,1
"625",3,5,25,"C.bmp","Ikzelf","Matching","Self","Self","Self","n",624,0.624,1
"626",3,5,26,"S.bmp","Vreemde","Matching","Stranger","Stranger","Stranger","n",714,0.714,1
"627",3,5,27,"T.bmp","Bekende","Matching","Friend","Friend","Close","n",612,0.612,1
"628",3,5,28,"S.bmp","Vreemde","Matching","Stranger","Stranger","Stranger","n",750,0.75,1
"629",3,5,29,"C.bmp","Ikzelf","Matching","Self","Self","Self","n",600,0.6,1
"630",3,5,30,"C.bmp","Vreemde","Nonmatching","Self","Self","Self","m",611,0.611,1
"631",3,5,31,"T.bmp","Vreemde","Nonmatching","Friend","Friend","Close","m",940,0.94,1
"632",3,5,32,"S.bmp","Bekende","Nonmatching","Stranger","Stranger","Stranger","m",854,0.854,1
"633",3,5,33,"T.bmp","Bekende","Matching","Friend","Friend","Close","n",608,0.608,1
"634",3,5,34,"C.bmp","Bekende","Nonmatching","Self","Self","Self","m",618,0.618,1
"635",3,5,35,"T.bmp","Ikzelf","Nonmatching","Friend","Friend","Close","m",644,0.644,1
"636",3,5,36,"S.bmp","Ikzelf","Nonmatching","Stranger","Stranger","Stranger","m",638,0.638,1
"637",3,5,37,"T.bmp","Bekende","Matching","Friend","Friend","Close","n",648,0.648,1
"638",3,5,38,"C.bmp","Ikzelf","Matching","Self","Self","Self","n",626,0.626,1
"639",3,5,39,"S.bmp","Vreemde","Matching","Stranger","Stranger","Stranger","n",701,0.701,1
"640",3,5,40,"S.bmp","Ikzelf","Nonmatching","Stranger","Stranger","Stranger","m",647,0.647,1
"641",3,5,41,"C.bmp","Bekende","Nonmatching","Self","Self","Self","m",785,0.785,1
"642",3,5,42,"C.bmp","Vreemde","Nonmatching","Self","Self","Self","m",667,0.667,1
"643",3,5,43,"S.bmp","Bekende","Nonmatching","Stranger","Stranger","Stranger","m",1013,1.013,1
"644",3,5,44,"T.bmp","Vreemde","Nonmatching","Friend","Friend","Close","m",911,0.911,1
"645",3,5,45,"T.bmp","Ikzelf","Nonmatching","Friend","Friend","Close","m",664,0.664,1
"646",3,5,46,"T.bmp","Bekende","Matching","Friend","Friend","Close","n",722,0.722,1
"647",3,5,47,"C.bmp","Ikzelf","Matching","Self","Self","Self","n",956,0.956,1
"648",3,5,48,"S.bmp","Vreemde","Matching","Stranger","Stranger","Stranger","n",871,0.871,1
"649",3,5,49,"C.bmp","Ikzelf","Matching","Self","Self","Self","n",689,0.689,1
"650",3,5,50,"T.bmp","Bekende","Matching","Friend","Friend","Close","n",715,0.715,1
"651",3,5,51,"T.bmp","Vreemde","Nonmatching","Friend","Friend","Close","m",789,0.789,1
"652",3,5,52,"C.bmp","Vreemde","Nonmatching","Self","Self","Self","m",687,0.687,1
"653",3,5,53,"S.bmp","Bekende","Nonmatching","Stranger","Stranger","Stranger","m",1001,1.001,1
"654",3,5,54,"S.bmp","Vreemde","Matching","Stranger","Stranger","Stranger","n",787,0.787,1
"655",3,5,55,"C.bmp","Bekende","Nonmatching","Self","Self","Self","m",701,0.701,1
"656",3,5,56,"S.bmp","Vreemde","Matching","Stranger","Stranger","Stranger","n",919,0.919,1
"657",3,5,57,"T.bmp","Ikzelf","Nonmatching","Friend","Friend","Close","m",737,0.737,1
"658",3,5,58,"T.bmp","Bekende","Matching","Friend","Friend","Close","n",747,0.747,1
"659",3,5,59,"S.bmp","Ikzelf","Nonmatching","Stranger","Stranger","Stranger","m",693,0.693,1
"660",3,5,60,"C.bmp","Ikzelf","Matching","Self","Self","Self","n",703,0.703,1
"661",3,6,1,"S.bmp","Vreemde","Matching","Stranger","Stranger","Stranger","n",1462,1.462,1
"662",3,6,2,"S.bmp","Bekende","Nonmatching","Stranger","Stranger","Stranger","m",880,0.88,1
"663",3,6,3,"C.bmp","Vreemde","Nonmatching","Self","Self","Self","m",762,0.762,1
"664",3,6,4,"C.bmp","Bekende","Nonmatching","Self","Self","Self","m",772,0.772,1
"665",3,6,5,"S.bmp","Ikzelf","Nonmatching","Stranger","Stranger","Stranger","m",702,0.702,1
"666",3,6,6,"S.bmp","Vreemde","Matching","Stranger","Stranger","Stranger","n",855,0.855,1
"667",3,6,7,"T.bmp","Bekende","Matching","Friend","Friend","Close","n",737,0.737,1
"668",3,6,8,"T.bmp","Bekende","Matching","Friend","Friend","Close","n",763,0.763,1
"669",3,6,9,"C.bmp","Ikzelf","Matching","Self","Self","Self","n",646,0.646,1
"670",3,6,10,"C.bmp","Ikzelf","Matching","Self","Self","Self","n",784,0.784,1
"671",3,6,11,"T.bmp","Ikzelf","Nonmatching","Friend","Friend","Close","m",698,0.698,1
"672",3,6,12,"T.bmp","Vreemde","Nonmatching","Friend","Friend","Close","m",964,0.964,1
"673",3,6,13,"S.bmp","Vreemde","Matching","Stranger","Stranger","Stranger","n",654,0.654,1
"674",3,6,14,"T.bmp","Bekende","Matching","Friend","Friend","Close","n",632,0.632,1
"675",3,6,15,"C.bmp","Ikzelf","Matching","Self","Self","Self","n",642,0.642,1
"676",3,6,16,"T.bmp","Ikzelf","Nonmatching","Friend","Friend","Close","m",636,0.636,1
"677",3,6,17,"C.bmp","Ikzelf","Matching","Self","Self","Self","n",678,0.678,1
"678",3,6,18,"T.bmp","Bekende","Matching","Friend","Friend","Close","n",673,0.673,1
"679",3,6,19,"C.bmp","Vreemde","Nonmatching","Self","Self","Self","m",763,0.763,1
"680",3,6,20,"C.bmp","Bekende","Nonmatching","Self","Self","Self","m",645,0.645,1
"681",3,6,21,"S.bmp","Ikzelf","Nonmatching","Stranger","Stranger","Stranger","m",734,0.734,1
"682",3,6,22,"S.bmp","Vreemde","Matching","Stranger","Stranger","Stranger","n",824,0.824,1
"683",3,6,23,"S.bmp","Bekende","Nonmatching","Stranger","Stranger","Stranger","m",1074,1.074,1
"684",3,6,24,"T.bmp","Vreemde","Nonmatching","Friend","Friend","Close","m",828,0.828,1
"685",3,6,25,"S.bmp","Vreemde","Matching","Stranger","Stranger","Stranger","n",774,0.774,1
"686",3,6,26,"C.bmp","Bekende","Nonmatching","Self","Self","Self","m",736,0.736,1
"687",3,6,27,"T.bmp","Bekende","Matching","Friend","Friend","Close","n",667,0.667,1
"688",3,6,28,"T.bmp","Bekende","Matching","Friend","Friend","Close","n",869,0.869,1
"689",3,6,29,"S.bmp","Ikzelf","Nonmatching","Stranger","Stranger","Stranger","m",703,0.703,1
"690",3,6,30,"S.bmp","Vreemde","Matching","Stranger","Stranger","Stranger","n",873,0.873,1
"691",3,6,31,"C.bmp","Ikzelf","Matching","Self","Self","Self","n",659,0.659,1
"692",3,6,32,"T.bmp","Vreemde","Nonmatching","Friend","Friend","Close","m",765,0.765,1
"693",3,6,33,"C.bmp","Ikzelf","Matching","Self","Self","Self","n",647,0.647,1
"694",3,6,34,"C.bmp","Vreemde","Nonmatching","Self","Self","Self","m",689,0.689,1
"695",3,6,35,"S.bmp","Bekende","Nonmatching","Stranger","Stranger","Stranger","m",1130,1.13,1
"696",3,6,36,"T.bmp","Ikzelf","Nonmatching","Friend","Friend","Close","m",677,0.677,1
"697",3,6,37,"C.bmp","Ikzelf","Matching","Self","Self","Self","n",751,0.751,1
"698",3,6,38,"C.bmp","Vreemde","Nonmatching","Self","Self","Self","m",585,0.585,1
"699",3,6,39,"S.bmp","Vreemde","Matching","Stranger","Stranger","Stranger","n",675,0.675,1
"700",3,6,40,"T.bmp","Vreemde","Nonmatching","Friend","Friend","Close","m",637,0.637,1
"701",3,6,41,"S.bmp","Vreemde","Matching","Stranger","Stranger","Stranger","n",807,0.807,1
"702",3,6,42,"T.bmp","Ikzelf","Nonmatching","Friend","Friend","Close","m",641,0.641,1
"703",3,6,43,"C.bmp","Bekende","Nonmatching","Self","Self","Self","m",651,0.651,1
"704",3,6,44,"S.bmp","Ikzelf","Nonmatching","Stranger","Stranger","Stranger","m",677,0.677,1
"705",3,6,45,"C.bmp","Ikzelf","Matching","Self","Self","Self","n",816,0.816,1
"706",3,6,46,"T.bmp","Bekende","Matching","Friend","Friend","Close","n",794,0.794,1
"707",3,6,47,"S.bmp","Bekende","Nonmatching","Stranger","Stranger","Stranger","m",996,0.996,1
"708",3,6,48,"T.bmp","Bekende","Matching","Friend","Friend","Close","n",702,0.702,1
"709",3,6,49,"T.bmp","Ikzelf","Nonmatching","Friend","Friend","Close","m",632,0.632,1
"710",3,6,50,"T.bmp","Bekende","Matching","Friend","Friend","Close","n",945,0.945,1
"711",3,6,51,"C.bmp","Bekende","Nonmatching","Self","Self","Self","m",619,0.619,1
"712",3,6,52,"S.bmp","Vreemde","Matching","Stranger","Stranger","Stranger","n",613,0.613,1
"713",3,6,53,"S.bmp","Vreemde","Matching","Stranger","Stranger","Stranger","m",671,0.671,0
"714",3,6,54,"T.bmp","Bekende","Matching","Friend","Friend","Close","n",633,0.633,1
"715",3,6,55,"C.bmp","Ikzelf","Matching","Self","Self","Self","n",612,0.612,1
"716",3,6,56,"S.bmp","Ikzelf","Nonmatching","Stranger","Stranger","Stranger","m",638,0.638,1
"717",3,6,57,"S.bmp","Bekende","Nonmatching","Stranger","Stranger","Stranger","m",1080,1.08,1
"718",3,6,58,"C.bmp","Vreemde","Nonmatching","Self","Self","Self","m",626,0.626,1
"719",3,6,59,"C.bmp","Ikzelf","Matching","Self","Self","Self","n",572,0.572,1
"720",3,6,60,"T.bmp","Vreemde","Nonmatching","Friend","Friend","Close","m",838,0.838,1
"721",4,1,1,"C.bmp","Bekende","Matching","Friend","Friend","Close","",0,0,0
"722",4,1,2,"S.bmp","Ikzelf","Nonmatching","Stranger","Stranger","Stranger","n",1014,1.014,1
"723",4,1,3,"T.bmp","Ikzelf","Matching","Self","Self","Self","m",753,0.753,1
"724",4,1,4,"S.bmp","Vreemde","Matching","Stranger","Stranger","Stranger","n",619,0.619,0
"725",4,1,5,"C.bmp","Vreemde","Nonmatching","Friend","Friend","Close","n",1029,1.029,1
"726",4,1,6,"T.bmp","Ikzelf","Matching","Self","Self","Self","m",943,0.943,1
"727",4,1,7,"C.bmp","Bekende","Matching","Friend","Friend","Close","m",841,0.841,1
"728",4,1,8,"T.bmp","Bekende","Nonmatching","Self","Self","Self","n",787,0.787,1
"729",4,1,9,"C.bmp","Ikzelf","Nonmatching","Friend","Friend","Close","n",957,0.957,1
"730",4,1,10,"T.bmp","Vreemde","Nonmatching","Self","Self","Self","n",1111,1.111,1
"731",4,1,11,"S.bmp","Bekende","Nonmatching","Stranger","Stranger","Stranger","m",1041,1.041,0
"732",4,1,12,"S.bmp","Vreemde","Matching","Stranger","Stranger","Stranger","n",1115,1.115,0
"733",4,1,13,"T.bmp","Bekende","Nonmatching","Self","Self","Self","n",1045,1.045,1
"734",4,1,14,"C.bmp","Bekende","Matching","Friend","Friend","Close","n",911,0.911,0
"735",4,1,15,"C.bmp","Vreemde","Nonmatching","Friend","Friend","Close","n",937,0.937,1
"736",4,1,16,"S.bmp","Ikzelf","Nonmatching","Stranger","Stranger","Stranger","n",787,0.787,1
"737",4,1,17,"T.bmp","Ikzelf","Matching","Self","Self","Self","m",749,0.749,1
"738",4,1,18,"C.bmp","Bekende","Matching","Friend","Friend","Close","m",1175,1.175,1
"739",4,1,19,"S.bmp","Vreemde","Matching","Stranger","Stranger","Stranger","m",705,0.705,1
"740",4,1,20,"T.bmp","Vreemde","Nonmatching","Self","Self","Self","n",843,0.843,1
"741",4,1,21,"T.bmp","Ikzelf","Matching","Self","Self","Self","m",758,0.758,1
"742",4,1,22,"S.bmp","Vreemde","Matching","Stranger","Stranger","Stranger","m",1136,1.136,1
"743",4,1,23,"S.bmp","Bekende","Nonmatching","Stranger","Stranger","Stranger","m",794,0.794,0
"744",4,1,24,"C.bmp","Ikzelf","Nonmatching","Friend","Friend","Close","n",724,0.724,1
"745",4,1,25,"C.bmp","Bekende","Matching","Friend","Friend","Close","m",814,0.814,1
"746",4,1,26,"T.bmp","Ikzelf","Matching","Self","Self","Self","m",824,0.824,1
"747",4,1,27,"C.bmp","Ikzelf","Nonmatching","Friend","Friend","Close","m",737,0.737,0
"748",4,1,28,"S.bmp","Vreemde","Matching","Stranger","Stranger","Stranger","m",939,0.939,1
"749",4,1,29,"T.bmp","Bekende","Nonmatching","Self","Self","Self","n",725,0.725,1
"750",4,1,30,"C.bmp","Bekende","Matching","Friend","Friend","Close","m",927,0.927,1
"751",4,1,31,"C.bmp","Vreemde","Nonmatching","Friend","Friend","Close","n",826,0.826,1
"752",4,1,32,"S.bmp","Bekende","Nonmatching","Stranger","Stranger","Stranger","m",1332,1.332,0
"753",4,1,33,"T.bmp","Vreemde","Nonmatching","Self","Self","Self","m",958,0.958,0
"754",4,1,34,"S.bmp","Vreemde","Matching","Stranger","Stranger","Stranger","m",824,0.824,1
"755",4,1,35,"T.bmp","Ikzelf","Matching","Self","Self","Self","m",866,0.866,1
"756",4,1,36,"S.bmp","Ikzelf","Nonmatching","Stranger","Stranger","Stranger","n",972,0.972,1
"757",4,1,37,"T.bmp","Vreemde","Nonmatching","Self","Self","Self","n",1190,1.19,1
"758",4,1,38,"T.bmp","Bekende","Nonmatching","Self","Self","Self","n",944,0.944,1
"759",4,1,39,"C.bmp","Bekende","Matching","Friend","Friend","Close","m",730,0.73,1
"760",4,1,40,"T.bmp","Ikzelf","Matching","Self","Self","Self","n",661,0.661,0
"761",4,1,41,"C.bmp","Bekende","Matching","Friend","Friend","Close","n",959,0.959,0
"762",4,1,42,"S.bmp","Bekende","Nonmatching","Stranger","Stranger","Stranger","n",872,0.872,1
"763",4,1,43,"S.bmp","Vreemde","Matching","Stranger","Stranger","Stranger","m",978,0.978,1
"764",4,1,44,"C.bmp","Ikzelf","Nonmatching","Friend","Friend","Close","n",908,0.908,1
"765",4,1,45,"S.bmp","Vreemde","Matching","Stranger","Stranger","Stranger","m",870,0.87,1
"766",4,1,46,"T.bmp","Ikzelf","Matching","Self","Self","Self","m",784,0.784,1
"767",4,1,47,"S.bmp","Ikzelf","Nonmatching","Stranger","Stranger","Stranger","n",986,0.986,1
"768",4,1,48,"C.bmp","Vreemde","Nonmatching","Friend","Friend","Close","m",1012,1.012,0
"769",4,1,49,"T.bmp","Bekende","Nonmatching","Self","Self","Self","n",815,0.815,1
"770",4,1,50,"S.bmp","Vreemde","Matching","Stranger","Stranger","Stranger","m",1433,1.433,1
"771",4,1,51,"C.bmp","Ikzelf","Nonmatching","Friend","Friend","Close","n",963,0.963,1
"772",4,1,52,"T.bmp","Ikzelf","Matching","Self","Self","Self","m",797,0.797,1
"773",4,1,53,"S.bmp","Bekende","Nonmatching","Stranger","Stranger","Stranger","n",1367,1.367,1
"774",4,1,54,"S.bmp","Vreemde","Matching","Stranger","Stranger","Stranger","m",1073,1.073,1
"775",4,1,55,"T.bmp","Vreemde","Nonmatching","Self","Self","Self","n",746,0.746,1
"776",4,1,56,"C.bmp","Vreemde","Nonmatching","Friend","Friend","Close","n",772,0.772,1
"777",4,1,57,"C.bmp","Bekende","Matching","Friend","Friend","Close","m",686,0.686,1
"778",4,1,58,"C.bmp","Bekende","Matching","Friend","Friend","Close","m",617,0.617,1
"779",4,1,59,"T.bmp","Ikzelf","Matching","Self","Self","Self","m",723,0.723,1
"780",4,1,60,"S.bmp","Ikzelf","Nonmatching","Stranger","Stranger","Stranger","n",797,0.797,1
"781",4,2,1,"S.bmp","Vreemde","Matching","Stranger","Stranger","Stranger","m",900,0.9,1
"782",4,2,2,"C.bmp","Bekende","Matching","Friend","Friend","Close","m",702,0.702,1
"783",4,2,3,"C.bmp","Vreemde","Nonmatching","Friend","Friend","Close","n",679,0.679,1
"784",4,2,4,"T.bmp","Ikzelf","Matching","Self","Self","Self","m",657,0.657,1
"785",4,2,5,"S.bmp","Bekende","Nonmatching","Stranger","Stranger","Stranger","m",1051,1.051,0
"786",4,2,6,"C.bmp","Bekende","Matching","Friend","Friend","Close","m",965,0.965,1
"787",4,2,7,"S.bmp","Ikzelf","Nonmatching","Stranger","Stranger","Stranger","n",847,0.847,1
"788",4,2,8,"T.bmp","Bekende","Nonmatching","Self","Self","Self","n",745,0.745,1
"789",4,2,9,"S.bmp","Vreemde","Matching","Stranger","Stranger","Stranger","m",852,0.852,1
"790",4,2,10,"C.bmp","Ikzelf","Nonmatching","Friend","Friend","Close","n",974,0.974,1
"791",4,2,11,"T.bmp","Ikzelf","Matching","Self","Self","Self","m",744,0.744,1
"792",4,2,12,"T.bmp","Vreemde","Nonmatching","Self","Self","Self","n",914,0.914,1
"793",4,2,13,"C.bmp","Ikzelf","Nonmatching","Friend","Friend","Close","n",988,0.988,1
"794",4,2,14,"T.bmp","Ikzelf","Matching","Self","Self","Self","n",902,0.902,0
"795",4,2,15,"T.bmp","Ikzelf","Matching","Self","Self","Self","m",720,0.72,1
"796",4,2,16,"T.bmp","Vreemde","Nonmatching","Self","Self","Self","n",890,0.89,1
"797",4,2,17,"S.bmp","Bekende","Nonmatching","Stranger","Stranger","Stranger","n",947,0.947,1
"798",4,2,18,"C.bmp","Bekende","Matching","Friend","Friend","Close","m",1038,1.038,1
"799",4,2,19,"S.bmp","Vreemde","Matching","Stranger","Stranger","Stranger","m",1208,1.208,1
"800",4,2,20,"S.bmp","Vreemde","Matching","Stranger","Stranger","Stranger","n",1266,1.266,0
"801",4,2,21,"C.bmp","Bekende","Matching","Friend","Friend","Close","m",748,0.748,1
"802",4,2,22,"S.bmp","Ikzelf","Nonmatching","Stranger","Stranger","Stranger","n",998,0.998,1
"803",4,2,23,"C.bmp","Vreemde","Nonmatching","Friend","Friend","Close","m",1184,1.184,0
"804",4,2,24,"T.bmp","Bekende","Nonmatching","Self","Self","Self","n",970,0.97,1
"805",4,2,25,"S.bmp","Vreemde","Matching","Stranger","Stranger","Stranger","m",1028,1.028,1
"806",4,2,26,"C.bmp","Vreemde","Nonmatching","Friend","Friend","Close","n",942,0.942,1
"807",4,2,27,"C.bmp","Ikzelf","Nonmatching","Friend","Friend","Close","m",905,0.905,0
"808",4,2,28,"C.bmp","Bekende","Matching","Friend","Friend","Close","m",1027,1.027,1
"809",4,2,29,"T.bmp","Bekende","Nonmatching","Self","Self","Self","n",893,0.893,1
"810",4,2,30,"T.bmp","Vreemde","Nonmatching","Self","Self","Self","n",1095,1.095,1
"811",4,2,31,"S.bmp","Ikzelf","Nonmatching","Stranger","Stranger","Stranger","n",1072,1.072,1
"812",4,2,32,"C.bmp","Bekende","Matching","Friend","Friend","Close","m",922,0.922,1
"813",4,2,33,"T.bmp","Ikzelf","Matching","Self","Self","Self","m",804,0.804,1
"814",4,2,34,"T.bmp","Ikzelf","Matching","Self","Self","Self","m",766,0.766,1
"815",4,2,35,"S.bmp","Vreemde","Matching","Stranger","Stranger","Stranger","m",648,0.648,1
"816",4,2,36,"S.bmp","Bekende","Nonmatching","Stranger","Stranger","Stranger","n",770,0.77,1
"817",4,2,37,"S.bmp","Vreemde","Matching","Stranger","Stranger","Stranger","m",941,0.941,1
"818",4,2,38,"S.bmp","Bekende","Nonmatching","Stranger","Stranger","Stranger","m",967,0.967,0
"819",4,2,39,"S.bmp","Vreemde","Matching","Stranger","Stranger","Stranger","m",865,0.865,1
"820",4,2,40,"C.bmp","Bekende","Matching","Friend","Friend","Close","m",699,0.699,1
"821",4,2,41,"T.bmp","Bekende","Nonmatching","Self","Self","Self","n",997,0.997,1
"822",4,2,42,"S.bmp","Ikzelf","Nonmatching","Stranger","Stranger","Stranger","n",815,0.815,1
"823",4,2,43,"C.bmp","Vreemde","Nonmatching","Friend","Friend","Close","m",841,0.841,0
"824",4,2,44,"C.bmp","Bekende","Matching","Friend","Friend","Close","m",499,0.499,1
"825",4,2,45,"T.bmp","Ikzelf","Matching","Self","Self","Self","m",733,0.733,1
"826",4,2,46,"T.bmp","Ikzelf","Matching","Self","Self","Self","m",679,0.679,1
"827",4,2,47,"T.bmp","Vreemde","Nonmatching","Self","Self","Self","n",1153,1.153,1
"828",4,2,48,"C.bmp","Ikzelf","Nonmatching","Friend","Friend","Close","n",1003,1.003,1
"829",4,2,49,"C.bmp","Bekende","Matching","Friend","Friend","Close","m",1093,1.093,1
"830",4,2,50,"C.bmp","Ikzelf","Nonmatching","Friend","Friend","Close","n",863,0.863,1
"831",4,2,51,"S.bmp","Vreemde","Matching","Stranger","Stranger","Stranger","m",857,0.857,1
"832",4,2,52,"C.bmp","Bekende","Matching","Friend","Friend","Close","n",931,0.931,0
"833",4,2,53,"S.bmp","Ikzelf","Nonmatching","Stranger","Stranger","Stranger","m",1213,1.213,0
"834",4,2,54,"S.bmp","Vreemde","Matching","Stranger","Stranger","Stranger","m",839,0.839,1
"835",4,2,55,"T.bmp","Vreemde","Nonmatching","Self","Self","Self","n",866,0.866,1
"836",4,2,56,"T.bmp","Bekende","Nonmatching","Self","Self","Self","n",1036,1.036,1
"837",4,2,57,"C.bmp","Vreemde","Nonmatching","Friend","Friend","Close","m",1046,1.046,0
"838",4,2,58,"S.bmp","Bekende","Nonmatching","Stranger","Stranger","Stranger","n",864,0.864,1
"839",4,2,59,"T.bmp","Ikzelf","Matching","Self","Self","Self","m",874,0.874,1
"840",4,2,60,"T.bmp","Ikzelf","Matching","Self","Self","Self","n",931,0.931,0
"841",4,3,1,"T.bmp","Vreemde","Nonmatching","Self","Self","Self","n",938,0.938,1
"842",4,3,2,"T.bmp","Ikzelf","Matching","Self","Self","Self","m",660,0.66,1
"843",4,3,3,"S.bmp","Bekende","Nonmatching","Stranger","Stranger","Stranger","n",670,0.67,1
"844",4,3,4,"S.bmp","Vreemde","Matching","Stranger","Stranger","Stranger","n",552,0.552,0
"845",4,3,5,"S.bmp","Ikzelf","Nonmatching","Stranger","Stranger","Stranger","n",738,0.738,1
"846",4,3,6,"T.bmp","Ikzelf","Matching","Self","Self","Self","m",781,0.781,1
"847",4,3,7,"S.bmp","Vreemde","Matching","Stranger","Stranger","Stranger","m",966,0.966,1
"848",4,3,8,"C.bmp","Bekende","Matching","Friend","Friend","Close","m",656,0.656,1
"849",4,3,9,"C.bmp","Vreemde","Nonmatching","Friend","Friend","Close","n",698,0.698,1
"850",4,3,10,"T.bmp","Bekende","Nonmatching","Self","Self","Self","n",868,0.868,1
"851",4,3,11,"C.bmp","Bekende","Matching","Friend","Friend","Close","m",990,0.99,1
"852",4,3,12,"C.bmp","Ikzelf","Nonmatching","Friend","Friend","Close","n",1112,1.112,1
"853",4,3,13,"T.bmp","Vreemde","Nonmatching","Self","Self","Self","n",866,0.866,1
"854",4,3,14,"C.bmp","Bekende","Matching","Friend","Friend","Close","m",1228,1.228,1
"855",4,3,15,"S.bmp","Vreemde","Matching","Stranger","Stranger","Stranger","n",1015,1.015,0
"856",4,3,16,"S.bmp","Bekende","Nonmatching","Stranger","Stranger","Stranger","n",801,0.801,1
"857",4,3,17,"S.bmp","Ikzelf","Nonmatching","Stranger","Stranger","Stranger","n",875,0.875,1
"858",4,3,18,"C.bmp","Ikzelf","Nonmatching","Friend","Friend","Close","n",1125,1.125,1
"859",4,3,19,"T.bmp","Ikzelf","Matching","Self","Self","Self","m",847,0.847,1
"860",4,3,20,"C.bmp","Bekende","Matching","Friend","Friend","Close","m",872,0.872,1
"861",4,3,21,"T.bmp","Bekende","Nonmatching","Self","Self","Self","n",899,0.899,1
"862",4,3,22,"C.bmp","Vreemde","Nonmatching","Friend","Friend","Close","n",796,0.796,1
"863",4,3,23,"S.bmp","Vreemde","Matching","Stranger","Stranger","Stranger","m",710,0.71,1
"864",4,3,24,"T.bmp","Ikzelf","Matching","Self","Self","Self","m",689,0.689,1
"865",4,3,25,"S.bmp","Ikzelf","Nonmatching","Stranger","Stranger","Stranger","n",971,0.971,1
"866",4,3,26,"S.bmp","Vreemde","Matching","Stranger","Stranger","Stranger","m",677,0.677,1
"867",4,3,27,"S.bmp","Vreemde","Matching","Stranger","Stranger","Stranger","m",607,0.607,1
"868",4,3,28,"T.bmp","Vreemde","Nonmatching","Self","Self","Self","n",825,0.825,1
"869",4,3,29,"T.bmp","Bekende","Nonmatching","Self","Self","Self","n",1123,1.123,1
"870",4,3,30,"C.bmp","Bekende","Matching","Friend","Friend","Close","m",861,0.861,1
"871",4,3,31,"S.bmp","Bekende","Nonmatching","Stranger","Stranger","Stranger","n",791,0.791,1
"872",4,3,32,"T.bmp","Ikzelf","Matching","Self","Self","Self","m",657,0.657,1
"873",4,3,33,"T.bmp","Ikzelf","Matching","Self","Self","Self","m",603,0.603,1
"874",4,3,34,"C.bmp","Bekende","Matching","Friend","Friend","Close","n",758,0.758,0
"875",4,3,35,"C.bmp","Ikzelf","Nonmatching","Friend","Friend","Close","n",1343,1.343,1
"876",4,3,36,"C.bmp","Vreemde","Nonmatching","Friend","Friend","Close","m",1081,1.081,0
"877",4,3,37,"S.bmp","Vreemde","Matching","Stranger","Stranger","Stranger","n",1011,1.011,0
"878",4,3,38,"S.bmp","Ikzelf","Nonmatching","Stranger","Stranger","Stranger","n",909,0.909,1
"879",4,3,39,"C.bmp","Bekende","Matching","Friend","Friend","Close","m",823,0.823,1
"880",4,3,40,"S.bmp","Vreemde","Matching","Stranger","Stranger","Stranger","n",817,0.817,0
"881",4,3,41,"C.bmp","Bekende","Matching","Friend","Friend","Close","m",859,0.859,1
"882",4,3,42,"T.bmp","Bekende","Nonmatching","Self","Self","Self","n",725,0.725,1
"883",4,3,43,"T.bmp","Vreemde","Nonmatching","Self","Self","Self","n",768,0.768,1
"884",4,3,44,"C.bmp","Ikzelf","Nonmatching","Friend","Friend","Close","n",970,0.97,1
"885",4,3,45,"T.bmp","Ikzelf","Matching","Self","Self","Self","m",724,0.724,1
"886",4,3,46,"T.bmp","Ikzelf","Matching","Self","Self","Self","m",590,0.59,1
"887",4,3,47,"C.bmp","Vreemde","Nonmatching","Friend","Friend","Close","n",648,0.648,1
"888",4,3,48,"S.bmp","Bekende","Nonmatching","Stranger","Stranger","Stranger","n",626,0.626,1
"889",4,3,49,"S.bmp","Vreemde","Matching","Stranger","Stranger","Stranger","m",555,0.555,1
"890",4,3,50,"C.bmp","Ikzelf","Nonmatching","Friend","Friend","Close","n",661,0.661,1
"891",4,3,51,"S.bmp","Bekende","Nonmatching","Stranger","Stranger","Stranger","m",975,0.975,0
"892",4,3,52,"S.bmp","Ikzelf","Nonmatching","Stranger","Stranger","Stranger","n",778,0.778,1
"893",4,3,53,"C.bmp","Bekende","Matching","Friend","Friend","Close","n",788,0.788,0
"894",4,3,54,"C.bmp","Bekende","Matching","Friend","Friend","Close","m",622,0.622,1
"895",4,3,55,"C.bmp","Vreemde","Nonmatching","Friend","Friend","Close","n",888,0.888,1
"896",4,3,56,"T.bmp","Ikzelf","Matching","Self","Self","Self","m",674,0.674,1
"897",4,3,57,"T.bmp","Ikzelf","Matching","Self","Self","Self","m",620,0.62,1
"898",4,3,58,"T.bmp","Bekende","Nonmatching","Self","Self","Self","n",678,0.678,1
"899",4,3,59,"S.bmp","Vreemde","Matching","Stranger","Stranger","Stranger","m",848,0.848,1
"900",4,3,60,"T.bmp","Vreemde","Nonmatching","Self","Self","Self","n",730,0.73,1
"901",4,4,1,"T.bmp","Bekende","Nonmatching","Self","Self","Self","n",1568,1.568,1
"902",4,4,2,"T.bmp","Ikzelf","Matching","Self","Self","Self","m",634,0.634,1
"903",4,4,3,"S.bmp","Bekende","Nonmatching","Stranger","Stranger","Stranger","m",853,0.853,0
"904",4,4,4,"S.bmp","Vreemde","Matching","Stranger","Stranger","Stranger","m",703,0.703,1
"905",4,4,5,"T.bmp","Ikzelf","Matching","Self","Self","Self","m",713,0.713,1
"906",4,4,6,"C.bmp","Vreemde","Nonmatching","Friend","Friend","Close","n",787,0.787,1
"907",4,4,7,"C.bmp","Bekende","Matching","Friend","Friend","Close","m",589,0.589,1
"908",4,4,8,"S.bmp","Vreemde","Matching","Stranger","Stranger","Stranger","m",535,0.535,1
"909",4,4,9,"S.bmp","Ikzelf","Nonmatching","Stranger","Stranger","Stranger","m",433,0.433,0
"910",4,4,10,"T.bmp","Vreemde","Nonmatching","Self","Self","Self","n",715,0.715,1
"911",4,4,11,"C.bmp","Ikzelf","Nonmatching","Friend","Friend","Close","m",661,0.661,0
"912",4,4,12,"C.bmp","Bekende","Matching","Friend","Friend","Close","n",703,0.703,0
"913",4,4,13,"T.bmp","Ikzelf","Matching","Self","Self","Self","m",745,0.745,1
"914",4,4,14,"C.bmp","Bekende","Matching","Friend","Friend","Close","m",771,0.771,1
"915",4,4,15,"C.bmp","Ikzelf","Nonmatching","Friend","Friend","Close","m",797,0.797,0
"916",4,4,16,"T.bmp","Ikzelf","Matching","Self","Self","Self","m",567,0.567,1
"917",4,4,17,"C.bmp","Bekende","Matching","Friend","Friend","Close","n",705,0.705,0
"918",4,4,18,"S.bmp","Ikzelf","Nonmatching","Stranger","Stranger","Stranger","m",731,0.731,0
"919",4,4,19,"S.bmp","Bekende","Nonmatching","Stranger","Stranger","Stranger","n",805,0.805,1
"920",4,4,20,"C.bmp","Vreemde","Nonmatching","Friend","Friend","Close","m",623,0.623,0
"921",4,4,21,"S.bmp","Vreemde","Matching","Stranger","Stranger","Stranger","m",602,0.602,1
"922",4,4,22,"S.bmp","Vreemde","Matching","Stranger","Stranger","Stranger","m",708,0.708,1
"923",4,4,23,"T.bmp","Bekende","Nonmatching","Self","Self","Self","n",814,0.814,1
"924",4,4,24,"T.bmp","Vreemde","Nonmatching","Self","Self","Self","n",696,0.696,1
"925",4,4,25,"T.bmp","Ikzelf","Matching","Self","Self","Self","m",673,0.673,1
"926",4,4,26,"T.bmp","Vreemde","Nonmatching","Self","Self","Self","n",635,0.635,1
"927",4,4,27,"C.bmp","Bekende","Matching","Friend","Friend","Close","m",581,0.581,1
"928",4,4,28,"S.bmp","Bekende","Nonmatching","Stranger","Stranger","Stranger","n",783,0.783,1
"929",4,4,29,"S.bmp","Ikzelf","Nonmatching","Stranger","Stranger","Stranger","m",649,0.649,0
"930",4,4,30,"T.bmp","Ikzelf","Matching","Self","Self","Self","m",612,0.612,1
"931",4,4,31,"C.bmp","Bekende","Matching","Friend","Friend","Close","m",750,0.75,1
"932",4,4,32,"S.bmp","Vreemde","Matching","Stranger","Stranger","Stranger","m",904,0.904,1
"933",4,4,33,"T.bmp","Bekende","Nonmatching","Self","Self","Self","n",882,0.882,1
"934",4,4,34,"C.bmp","Vreemde","Nonmatching","Friend","Friend","Close","m",1004,1.004,0
"935",4,4,35,"S.bmp","Vreemde","Matching","Stranger","Stranger","Stranger","",0,0,0
"936",4,4,36,"C.bmp","Ikzelf","Nonmatching","Friend","Friend","Close","n",1024,1.024,1
"937",4,4,37,"S.bmp","Ikzelf","Nonmatching","Stranger","Stranger","Stranger","n",810,0.81,1
"938",4,4,38,"T.bmp","Bekende","Nonmatching","Self","Self","Self","n",1060,1.06,1
"939",4,4,39,"C.bmp","Bekende","Matching","Friend","Friend","Close","m",718,0.718,1
"940",4,4,40,"T.bmp","Ikzelf","Matching","Self","Self","Self","m",633,0.633,1
"941",4,4,41,"T.bmp","Vreemde","Nonmatching","Self","Self","Self","n",1010,1.01,1
"942",4,4,42,"S.bmp","Vreemde","Matching","Stranger","Stranger","Stranger","m",940,0.94,1
"943",4,4,43,"C.bmp","Vreemde","Nonmatching","Friend","Friend","Close","n",694,0.694,1
"944",4,4,44,"T.bmp","Ikzelf","Matching","Self","Self","Self","m",768,0.768,1
"945",4,4,45,"S.bmp","Bekende","Nonmatching","Stranger","Stranger","Stranger","m",938,0.938,0
"946",4,4,46,"C.bmp","Bekende","Matching","Friend","Friend","Close","m",628,0.628,1
"947",4,4,47,"C.bmp","Ikzelf","Nonmatching","Friend","Friend","Close","n",702,0.702,1
"948",4,4,48,"S.bmp","Vreemde","Matching","Stranger","Stranger","Stranger","m",872,0.872,1
"949",4,4,49,"T.bmp","Ikzelf","Matching","Self","Self","Self","m",739,0.739,1
"950",4,4,50,"S.bmp","Bekende","Nonmatching","Stranger","Stranger","Stranger","n",701,0.701,1
"951",4,4,51,"T.bmp","Bekende","Nonmatching","Self","Self","Self","n",759,0.759,1
"952",4,4,52,"C.bmp","Bekende","Matching","Friend","Friend","Close","m",561,0.561,1
"953",4,4,53,"S.bmp","Ikzelf","Nonmatching","Stranger","Stranger","Stranger","n",651,0.651,1
"954",4,4,54,"S.bmp","Vreemde","Matching","Stranger","Stranger","Stranger","m",869,0.869,1
"955",4,4,55,"C.bmp","Ikzelf","Nonmatching","Friend","Friend","Close","n",750,0.75,1
"956",4,4,56,"T.bmp","Vreemde","Nonmatching","Self","Self","Self","n",728,0.728,1
"957",4,4,57,"C.bmp","Bekende","Matching","Friend","Friend","Close","m",530,0.53,1
"958",4,4,58,"T.bmp","Ikzelf","Matching","Self","Self","Self","n",621,0.621,0
"959",4,4,59,"C.bmp","Vreemde","Nonmatching","Friend","Friend","Close","n",935,0.935,1
"960",4,4,60,"S.bmp","Vreemde","Matching","Stranger","Stranger","Stranger","m",897,0.897,1
"961",4,5,1,"T.bmp","Bekende","Nonmatching","Self","Self","Self","n",759,0.759,1
"962",4,5,2,"S.bmp","Vreemde","Matching","Stranger","Stranger","Stranger","m",817,0.817,1
"963",4,5,3,"C.bmp","Ikzelf","Nonmatching","Friend","Friend","Close","n",747,0.747,1
"964",4,5,4,"S.bmp","Vreemde","Matching","Stranger","Stranger","Stranger","m",933,0.933,1
"965",4,5,5,"S.bmp","Bekende","Nonmatching","Stranger","Stranger","Stranger","n",943,0.943,1
"966",4,5,6,"C.bmp","Bekende","Matching","Friend","Friend","Close","m",1001,1.001,1
"967",4,5,7,"T.bmp","Vreemde","Nonmatching","Self","Self","Self","n",707,0.707,1
"968",4,5,8,"T.bmp","Ikzelf","Matching","Self","Self","Self","m",685,0.685,1
"969",4,5,9,"C.bmp","Bekende","Matching","Friend","Friend","Close","m",776,0.776,1
"970",4,5,10,"C.bmp","Vreemde","Nonmatching","Friend","Friend","Close","n",754,0.754,1
"971",4,5,11,"S.bmp","Ikzelf","Nonmatching","Stranger","Stranger","Stranger","n",812,0.812,1
"972",4,5,12,"T.bmp","Ikzelf","Matching","Self","Self","Self","m",966,0.966,1
"973",4,5,13,"S.bmp","Vreemde","Matching","Stranger","Stranger","Stranger","m",672,0.672,1
"974",4,5,14,"S.bmp","Bekende","Nonmatching","Stranger","Stranger","Stranger","n",698,0.698,1
"975",4,5,15,"C.bmp","Bekende","Matching","Friend","Friend","Close","m",516,0.516,1
"976",4,5,16,"C.bmp","Bekende","Matching","Friend","Friend","Close","m",877,0.877,1
"977",4,5,17,"T.bmp","Ikzelf","Matching","Self","Self","Self","m",711,0.711,1
"978",4,5,18,"T.bmp","Bekende","Nonmatching","Self","Self","Self","n",706,0.706,1
"979",4,5,19,"C.bmp","Ikzelf","Nonmatching","Friend","Friend","Close","m",828,0.828,0
"980",4,5,20,"S.bmp","Vreemde","Matching","Stranger","Stranger","Stranger","m",838,0.838,1
"981",4,5,21,"S.bmp","Ikzelf","Nonmatching","Stranger","Stranger","Stranger","n",688,0.688,1
"982",4,5,22,"T.bmp","Ikzelf","Matching","Self","Self","Self","m",698,0.698,1
"983",4,5,23,"T.bmp","Vreemde","Nonmatching","Self","Self","Self","n",644,0.644,1
"984",4,5,24,"C.bmp","Vreemde","Nonmatching","Friend","Friend","Close","n",734,0.734,1
"985",4,5,25,"C.bmp","Bekende","Matching","Friend","Friend","Close","m",584,0.584,1
"986",4,5,26,"C.bmp","Vreemde","Nonmatching","Friend","Friend","Close","n",594,0.594,1
"987",4,5,27,"C.bmp","Bekende","Matching","Friend","Friend","Close","n",621,0.621,0
"988",4,5,28,"S.bmp","Bekende","Nonmatching","Stranger","Stranger","Stranger","m",791,0.791,0
"989",4,5,29,"S.bmp","Ikzelf","Nonmatching","Stranger","Stranger","Stranger","n",865,0.865,1
"990",4,5,30,"T.bmp","Ikzelf","Matching","Self","Self","Self","m",698,0.698,1
"991",4,5,31,"T.bmp","Ikzelf","Matching","Self","Self","Self","m",756,0.756,1
"992",4,5,32,"S.bmp","Vreemde","Matching","Stranger","Stranger","Stranger","m",846,0.846,1
"993",4,5,33,"T.bmp","Vreemde","Nonmatching","Self","Self","Self","n",808,0.808,1
"994",4,5,34,"C.bmp","Ikzelf","Nonmatching","Friend","Friend","Close","n",898,0.898,1
"995",4,5,35,"S.bmp","Vreemde","Matching","Stranger","Stranger","Stranger","m",924,0.924,1
"996",4,5,36,"T.bmp","Bekende","Nonmatching","Self","Self","Self","n",855,0.855,1
"997",4,5,37,"C.bmp","Ikzelf","Nonmatching","Friend","Friend","Close","n",849,0.849,1
"998",4,5,38,"S.bmp","Vreemde","Matching","Stranger","Stranger","Stranger","m",683,0.683,1
"999",4,5,39,"S.bmp","Ikzelf","Nonmatching","Stranger","Stranger","Stranger","n",773,0.773,1
"1000",4,5,40,"S.bmp","Bekende","Nonmatching","Stranger","Stranger","Stranger","n",1455,1.455,1
"1001",4,5,41,"C.bmp","Vreemde","Nonmatching","Friend","Friend","Close","n",1369,1.369,1
"1002",4,5,42,"C.bmp","Bekende","Matching","Friend","Friend","Close","m",755,0.755,1
"1003",4,5,43,"S.bmp","Vreemde","Matching","Stranger","Stranger","Stranger","m",989,0.989,1
"1004",4,5,44,"C.bmp","Bekende","Matching","Friend","Friend","Close","m",903,0.903,1
"1005",4,5,45,"T.bmp","Bekende","Nonmatching","Self","Self","Self","n",736,0.736,1
"1006",4,5,46,"T.bmp","Ikzelf","Matching","Self","Self","Self","m",651,0.651,1
"1007",4,5,47,"T.bmp","Vreemde","Nonmatching","Self","Self","Self","n",533,0.533,1
"1008",4,5,48,"T.bmp","Ikzelf","Matching","Self","Self","Self","m",591,0.591,1
"1009",4,5,49,"T.bmp","Vreemde","Nonmatching","Self","Self","Self","n",569,0.569,1
"1010",4,5,50,"T.bmp","Ikzelf","Matching","Self","Self","Self","n",675,0.675,0
"1011",4,5,51,"S.bmp","Vreemde","Matching","Stranger","Stranger","Stranger","m",797,0.797,1
"1012",4,5,52,"C.bmp","Vreemde","Nonmatching","Friend","Friend","Close","n",647,0.647,1
"1013",4,5,53,"C.bmp","Ikzelf","Nonmatching","Friend","Friend","Close","m",641,0.641,0
"1014",4,5,54,"C.bmp","Bekende","Matching","Friend","Friend","Close","m",555,0.555,1
"1015",4,5,55,"C.bmp","Bekende","Matching","Friend","Friend","Close","n",630,0.63,0
"1016",4,5,56,"T.bmp","Ikzelf","Matching","Self","Self","Self","m",704,0.704,1
"1017",4,5,57,"S.bmp","Bekende","Nonmatching","Stranger","Stranger","Stranger","n",794,0.794,1
"1018",4,5,58,"S.bmp","Vreemde","Matching","Stranger","Stranger","Stranger","m",564,0.564,1
"1019",4,5,59,"S.bmp","Ikzelf","Nonmatching","Stranger","Stranger","Stranger","m",477,0.477,0
"1020",4,5,60,"T.bmp","Bekende","Nonmatching","Self","Self","Self","n",503,0.503,1
"1021",4,6,1,"T.bmp","Vreemde","Nonmatching","Self","Self","Self","n",718,0.718,1
"1022",4,6,2,"C.bmp","Vreemde","Nonmatching","Friend","Friend","Close","n",632,0.632,1
"1023",4,6,3,"T.bmp","Ikzelf","Matching","Self","Self","Self","m",642,0.642,1
"1024",4,6,4,"C.bmp","Ikzelf","Nonmatching","Friend","Friend","Close","m",668,0.668,0
"1025",4,6,5,"S.bmp","Ikzelf","Nonmatching","Stranger","Stranger","Stranger","n",742,0.742,1
"1026",4,6,6,"S.bmp","Bekende","Nonmatching","Stranger","Stranger","Stranger","n",816,0.816,1
"1027",4,6,7,"T.bmp","Ikzelf","Matching","Self","Self","Self","m",634,0.634,1
"1028",4,6,8,"C.bmp","Bekende","Matching","Friend","Friend","Close","m",548,0.548,1
"1029",4,6,9,"S.bmp","Vreemde","Matching","Stranger","Stranger","Stranger","m",590,0.59,1
"1030",4,6,10,"C.bmp","Bekende","Matching","Friend","Friend","Close","m",552,0.552,1
"1031",4,6,11,"T.bmp","Bekende","Nonmatching","Self","Self","Self","n",706,0.706,1
"1032",4,6,12,"S.bmp","Vreemde","Matching","Stranger","Stranger","Stranger","m",716,0.716,1
"1033",4,6,13,"T.bmp","Bekende","Nonmatching","Self","Self","Self","n",774,0.774,1
"1034",4,6,14,"T.bmp","Ikzelf","Matching","Self","Self","Self","m",736,0.736,1
"1035",4,6,15,"S.bmp","Vreemde","Matching","Stranger","Stranger","Stranger","m",779,0.779,1
"1036",4,6,16,"C.bmp","Bekende","Matching","Friend","Friend","Close","m",597,0.597,1
"1037",4,6,17,"T.bmp","Vreemde","Nonmatching","Self","Self","Self","n",607,0.607,1
"1038",4,6,18,"S.bmp","Bekende","Nonmatching","Stranger","Stranger","Stranger","m",617,0.617,0
"1039",4,6,19,"S.bmp","Vreemde","Matching","Stranger","Stranger","Stranger","n",627,0.627,0
"1040",4,6,20,"C.bmp","Vreemde","Nonmatching","Friend","Friend","Close","m",669,0.669,0
"1041",4,6,21,"C.bmp","Bekende","Matching","Friend","Friend","Close","m",630,0.63,1
"1042",4,6,22,"T.bmp","Ikzelf","Matching","Self","Self","Self","m",608,0.608,1
"1043",4,6,23,"C.bmp","Ikzelf","Nonmatching","Friend","Friend","Close","m",570,0.57,0
"1044",4,6,24,"S.bmp","Ikzelf","Nonmatching","Stranger","Stranger","Stranger","n",629,0.629,1
"1045",4,6,25,"T.bmp","Vreemde","Nonmatching","Self","Self","Self","n",879,0.879,1
"1046",4,6,26,"S.bmp","Bekende","Nonmatching","Stranger","Stranger","Stranger","m",697,0.697,0
"1047",4,6,27,"S.bmp","Vreemde","Matching","Stranger","Stranger","Stranger","m",659,0.659,1
"1048",4,6,28,"C.bmp","Bekende","Matching","Friend","Friend","Close","m",445,0.445,1
"1049",4,6,29,"C.bmp","Vreemde","Nonmatching","Friend","Friend","Close","n",823,0.823,1
"1050",4,6,30,"S.bmp","Vreemde","Matching","Stranger","Stranger","Stranger","n",801,0.801,0
"1051",4,6,31,"C.bmp","Bekende","Matching","Friend","Friend","Close","m",651,0.651,1
"1052",4,6,32,"T.bmp","Ikzelf","Matching","Self","Self","Self","m",709,0.709,1
"1053",4,6,33,"C.bmp","Ikzelf","Nonmatching","Friend","Friend","Close","m",528,0.528,0
"1054",4,6,34,"T.bmp","Ikzelf","Matching","Self","Self","Self","m",458,0.458,1
"1055",4,6,35,"S.bmp","Ikzelf","Nonmatching","Stranger","Stranger","Stranger","n",627,0.627,1
"1056",4,6,36,"T.bmp","Bekende","Nonmatching","Self","Self","Self","n",621,0.621,1
"1057",4,6,37,"T.bmp","Vreemde","Nonmatching","Self","Self","Self","n",663,0.663,1
"1058",4,6,38,"C.bmp","Bekende","Matching","Friend","Friend","Close","m",753,0.753,1
"1059",4,6,39,"T.bmp","Ikzelf","Matching","Self","Self","Self","m",603,0.603,1
"1060",4,6,40,"S.bmp","Bekende","Nonmatching","Stranger","Stranger","Stranger","m",517,0.517,0
"1061",4,6,41,"C.bmp","Vreemde","Nonmatching","Friend","Friend","Close","m",623,0.623,0
"1062",4,6,42,"T.bmp","Ikzelf","Matching","Self","Self","Self","m",618,0.618,1
"1063",4,6,43,"S.bmp","Vreemde","Matching","Stranger","Stranger","Stranger","m",996,0.996,1
"1064",4,6,44,"S.bmp","Ikzelf","Nonmatching","Stranger","Stranger","Stranger","n",846,0.846,1
"1065",4,6,45,"T.bmp","Bekende","Nonmatching","Self","Self","Self","n",760,0.76,1
"1066",4,6,46,"C.bmp","Bekende","Matching","Friend","Friend","Close","m",818,0.818,1
"1067",4,6,47,"S.bmp","Vreemde","Matching","Stranger","Stranger","Stranger","m",716,0.716,1
"1068",4,6,48,"C.bmp","Ikzelf","Nonmatching","Friend","Friend","Close","n",1013,1.013,1
"1069",4,6,49,"T.bmp","Ikzelf","Matching","Self","Self","Self","m",607,0.607,1
"1070",4,6,50,"T.bmp","Vreemde","Nonmatching","Self","Self","Self","n",681,0.681,1
"1071",4,6,51,"S.bmp","Ikzelf","Nonmatching","Stranger","Stranger","Stranger","m",708,0.708,0
"1072",4,6,52,"T.bmp","Ikzelf","Matching","Self","Self","Self","m",590,0.59,1
"1073",4,6,53,"C.bmp","Bekende","Matching","Friend","Friend","Close","n",760,0.76,0
"1074",4,6,54,"S.bmp","Vreemde","Matching","Stranger","Stranger","Stranger","m",674,0.674,1
"1075",4,6,55,"S.bmp","Bekende","Nonmatching","Stranger","Stranger","Stranger","n",1020,1.02,1
"1076",4,6,56,"C.bmp","Vreemde","Nonmatching","Friend","Friend","Close","m",1142,1.142,0
"1077",4,6,57,"T.bmp","Bekende","Nonmatching","Self","Self","Self","n",896,0.896,1
"1078",4,6,58,"S.bmp","Vreemde","Matching","Stranger","Stranger","Stranger","m",1050,1.05,1
"1079",4,6,59,"C.bmp","Bekende","Matching","Friend","Friend","Close","m",1060,1.06,1
"1080",4,6,60,"C.bmp","Ikzelf","Nonmatching","Friend","Friend","Close","n",782,0.782,1
"1081",5,1,1,"C.bmp","Ikzelf","Matching","Self","Self","Self","n",696,0.696,1
"1082",5,1,2,"T.bmp","Vreemde","Matching","Stranger","Stranger","Stranger","n",483,0.483,1
"1083",5,1,3,"T.bmp","Vreemde","Matching","Stranger","Stranger","Stranger","n",525,0.525,1
"1084",5,1,4,"T.bmp","Bekende","Nonmatching","Stranger","Stranger","Stranger","n",439,0.439,0
"1085",5,1,5,"T.bmp","Ikzelf","Nonmatching","Stranger","Stranger","Stranger","n",593,0.593,0
"1086",5,1,6,"C.bmp","Vreemde","Nonmatching","Self","Self","Self","n",587,0.587,0
"1087",5,1,7,"S.bmp","Bekende","Matching","Friend","Friend","Close","m",469,0.469,0
"1088",5,1,8,"C.bmp","Bekende","Nonmatching","Self","Self","Self","n",287,0.287,0
"1089",5,1,9,"S.bmp","Ikzelf","Nonmatching","Friend","Friend","Close","n",313,0.313,0
"1090",5,1,10,"S.bmp","Bekende","Matching","Friend","Friend","Close","n",467,0.467,1
"1091",5,1,11,"S.bmp","Vreemde","Nonmatching","Friend","Friend","Close","m",781,0.781,1
"1092",5,1,12,"C.bmp","Ikzelf","Matching","Self","Self","Self","n",567,0.567,1
"1093",5,1,13,"T.bmp","Bekende","Nonmatching","Stranger","Stranger","Stranger","n",801,0.801,0
"1094",5,1,14,"S.bmp","Ikzelf","Nonmatching","Friend","Friend","Close","m",859,0.859,1
"1095",5,1,15,"S.bmp","Bekende","Matching","Friend","Friend","Close","m",741,0.741,0
"1096",5,1,16,"C.bmp","Vreemde","Nonmatching","Self","Self","Self","m",479,0.479,1
"1097",5,1,17,"T.bmp","Ikzelf","Nonmatching","Stranger","Stranger","Stranger","n",649,0.649,0
"1098",5,1,18,"T.bmp","Vreemde","Matching","Stranger","Stranger","Stranger","m",707,0.707,0
"1099",5,1,19,"S.bmp","Bekende","Matching","Friend","Friend","Close","n",446,0.446,1
"1100",5,1,20,"C.bmp","Ikzelf","Matching","Self","Self","Self","n",296,0.296,1
"1101",5,1,21,"T.bmp","Vreemde","Matching","Stranger","Stranger","Stranger","m",418,0.418,0
"1102",5,1,22,"C.bmp","Bekende","Nonmatching","Self","Self","Self","n",460,0.46,0
"1103",5,1,23,"C.bmp","Ikzelf","Matching","Self","Self","Self","n",502,0.502,1
"1104",5,1,24,"S.bmp","Vreemde","Nonmatching","Friend","Friend","Close","m",511,0.511,1
"1105",5,1,25,"T.bmp","Vreemde","Matching","Stranger","Stranger","Stranger","m",1081,1.081,0
"1106",5,1,26,"S.bmp","Bekende","Matching","Friend","Friend","Close","n",771,0.771,1
"1107",5,1,27,"C.bmp","Ikzelf","Matching","Self","Self","Self","n",621,0.621,1
"1108",5,1,28,"T.bmp","Ikzelf","Nonmatching","Stranger","Stranger","Stranger","n",424,0.424,0
"1109",5,1,29,"S.bmp","Ikzelf","Nonmatching","Friend","Friend","Close","m",1122,1.122,1
"1110",5,1,30,"T.bmp","Bekende","Nonmatching","Stranger","Stranger","Stranger","m",1164,1.164,1
"1111",5,1,31,"T.bmp","Vreemde","Matching","Stranger","Stranger","Stranger","n",1382,1.382,1
"1112",5,1,32,"C.bmp","Vreemde","Nonmatching","Self","Self","Self","m",1152,1.152,1
"1113",5,1,33,"S.bmp","Vreemde","Nonmatching","Friend","Friend","Close","n",1306,1.306,0
"1114",5,1,34,"C.bmp","Ikzelf","Matching","Self","Self","Self","m",660,0.66,0
"1115",5,1,35,"S.bmp","Bekende","Matching","Friend","Friend","Close","n",1054,1.054,1
"1116",5,1,36,"C.bmp","Bekende","Nonmatching","Self","Self","Self","n",520,0.52,0
"1117",5,1,37,"C.bmp","Ikzelf","Matching","Self","Self","Self","n",402,0.402,1
"1118",5,1,38,"C.bmp","Ikzelf","Matching","Self","Self","Self","m",300,0.3,0
"1119",5,1,39,"C.bmp","Vreemde","Nonmatching","Self","Self","Self","n",614,0.614,0
"1120",5,1,40,"T.bmp","Vreemde","Matching","Stranger","Stranger","Stranger","n",1024,1.024,1
"1121",5,1,41,"T.bmp","Ikzelf","Nonmatching","Stranger","Stranger","Stranger","m",730,0.73,1
"1122",5,1,42,"S.bmp","Bekende","Matching","Friend","Friend","Close","n",1172,1.172,1
"1123",5,1,43,"S.bmp","Bekende","Matching","Friend","Friend","Close","m",830,0.83,0
"1124",5,1,44,"S.bmp","Vreemde","Nonmatching","Friend","Friend","Close","n",664,0.664,0
"1125",5,1,45,"S.bmp","Ikzelf","Nonmatching","Friend","Friend","Close","m",627,0.627,1
"1126",5,1,46,"T.bmp","Bekende","Nonmatching","Stranger","Stranger","Stranger","m",765,0.765,1
"1127",5,1,47,"T.bmp","Vreemde","Matching","Stranger","Stranger","Stranger","n",583,0.583,1
"1128",5,1,48,"C.bmp","Bekende","Nonmatching","Self","Self","Self","m",945,0.945,1
"1129",5,1,49,"T.bmp","Vreemde","Matching","Stranger","Stranger","Stranger","m",971,0.971,0
"1130",5,1,50,"S.bmp","Vreemde","Nonmatching","Friend","Friend","Close","m",1012,1.012,1
"1131",5,1,51,"T.bmp","Vreemde","Matching","Stranger","Stranger","Stranger","n",1054,1.054,1
"1132",5,1,52,"C.bmp","Ikzelf","Matching","Self","Self","Self","n",824,0.824,1
"1133",5,1,53,"T.bmp","Ikzelf","Nonmatching","Stranger","Stranger","Stranger","n",594,0.594,0
"1134",5,1,54,"S.bmp","Bekende","Matching","Friend","Friend","Close","",0,0,0
"1135",5,1,55,"C.bmp","Ikzelf","Matching","Self","Self","Self","n",471,0.471,1
"1136",5,1,56,"T.bmp","Bekende","Nonmatching","Stranger","Stranger","Stranger","m",737,0.737,1
"1137",5,1,57,"S.bmp","Ikzelf","Nonmatching","Friend","Friend","Close","m",859,0.859,1
"1138",5,1,58,"C.bmp","Vreemde","Nonmatching","Self","Self","Self","m",1365,1.365,1
"1139",5,1,59,"S.bmp","Bekende","Matching","Friend","Friend","Close","m",1167,1.167,0
"1140",5,1,60,"C.bmp","Bekende","Nonmatching","Self","Self","Self","m",1049,1.049,1
"1141",5,2,1,"T.bmp","Bekende","Nonmatching","Stranger","Stranger","Stranger","n",847,0.847,0
"1142",5,2,2,"S.bmp","Ikzelf","Nonmatching","Friend","Friend","Close","m",889,0.889,1
"1143",5,2,3,"T.bmp","Vreemde","Matching","Stranger","Stranger","Stranger","n",980,0.98,1
"1144",5,2,4,"S.bmp","Vreemde","Nonmatching","Friend","Friend","Close","m",1006,1.006,1
"1145",5,2,5,"S.bmp","Bekende","Matching","Friend","Friend","Close","n",792,0.792,1
"1146",5,2,6,"S.bmp","Bekende","Matching","Friend","Friend","Close","m",994,0.994,0
"1147",5,2,7,"C.bmp","Ikzelf","Matching","Self","Self","Self","n",572,0.572,1
"1148",5,2,8,"C.bmp","Bekende","Nonmatching","Self","Self","Self","m",869,0.869,1
"1149",5,2,9,"C.bmp","Ikzelf","Matching","Self","Self","Self","n",623,0.623,1
"1150",5,2,10,"T.bmp","Vreemde","Matching","Stranger","Stranger","Stranger","n",745,0.745,1
"1151",5,2,11,"T.bmp","Ikzelf","Nonmatching","Stranger","Stranger","Stranger","m",883,0.883,1
"1152",5,2,12,"C.bmp","Vreemde","Nonmatching","Self","Self","Self","m",926,0.926,1
"1153",5,2,13,"T.bmp","Vreemde","Matching","Stranger","Stranger","Stranger","n",904,0.904,1
"1154",5,2,14,"C.bmp","Vreemde","Nonmatching","Self","Self","Self","n",898,0.898,0
"1155",5,2,15,"T.bmp","Vreemde","Matching","Stranger","Stranger","Stranger","n",684,0.684,1
"1156",5,2,16,"T.bmp","Ikzelf","Nonmatching","Stranger","Stranger","Stranger","m",806,0.806,1
"1157",5,2,17,"S.bmp","Bekende","Matching","Friend","Friend","Close","n",1120,1.12,1
"1158",5,2,18,"S.bmp","Vreemde","Nonmatching","Friend","Friend","Close","m",938,0.938,1
"1159",5,2,19,"C.bmp","Bekende","Nonmatching","Self","Self","Self","m",1172,1.172,1
"1160",5,2,20,"C.bmp","Ikzelf","Matching","Self","Self","Self","n",750,0.75,1
"1161",5,2,21,"S.bmp","Ikzelf","Nonmatching","Friend","Friend","Close","n",1033,1.033,0
"1162",5,2,22,"S.bmp","Bekende","Matching","Friend","Friend","Close","n",754,0.754,1
"1163",5,2,23,"T.bmp","Bekende","Nonmatching","Stranger","Stranger","Stranger","m",1052,1.052,1
"1164",5,2,24,"C.bmp","Ikzelf","Matching","Self","Self","Self","n",1046,1.046,1
