"subj_idx","blockNo","trialNo","matchness","Id_fig","rt","response"
"1","1","1","no","mother",0.487,"1"
"1","1","2","no","stranger",0.614,"1"
"1","1","3","no","self",0.481,"1"
"1","1","4","no","self",0.425,"1"
"1","1","5","yes","mother",0.473,"1"
"1","1","6","yes","self",0.382,"1"
"1","1","7","yes","stranger",0.492,"0"
"1","1","8","yes","mother",0.475,"1"
"1","1","9","yes","self",0.398,"1"
"1","1","10","no","mother",0.403,"1"
"1","1","11","yes","mother",0.563,"1"
"1","1","12","no","stranger",0.733,"1"
"1","1","13","yes","mother",0.775,"1"
"1","1","14","no","self",0.458,"1"
"1","1","15","yes","mother",0.422,"1"
"1","1","16","no","mother",0.471,"1"
"1","1","17","no","self",0.441,"1"
"1","1","18","no","mother",0.491,"1"
"1","1","19","no","self",0.619,"1"
"1","1","20","yes","mother",0.563,"1"
"1","1","21","no","mother",0.376,"1"
"1","1","22","yes","mother",0.401,"1"
"1","1","23","yes","stranger",0.681,"1"
"1","1","24","yes","self",0.455,"1"
"1","1","25","no","self",0.737,"1"
"1","1","26","yes","stranger",0.873,"1"
"1","1","27","no","mother",0.654,"1"
"1","1","28","yes","mother",0.614,"1"
"1","1","29","no","stranger",0.597,"1"
"1","1","30","no","mother",0.537,"1"
"1","1","31","no","self",0.55,"1"
"1","1","32","no","stranger",0.661,"1"
"1","1","33","no","stranger",0.555,"1"
"1","1","34","no","stranger",0.681,"1"
"1","1","35","yes","self",0.5,"1"
"1","1","36","yes","self",0.383,"1"
"1","1","37","no","stranger",0.425,"1"
"1","1","38","no","self",0.479,"1"
"1","1","39","yes","stranger",0.668,"0"
"1","1","40","yes","stranger",0.522,"1"
"1","1","41","yes","stranger",0.399,"1"
"1","1","42","yes","self",0.686,"1"
"1","1","43","yes","stranger",0.651,"1"
"1","1","44","no","self",0.619,"1"
"1","1","45","no","stranger",0.574,"1"
"1","1","46","yes","stranger",0.667,"1"
"1","1","47","no","mother",0.571,"1"
"1","1","48","yes","self",0.393,"1"
"1","1","49","no","stranger",0.601,"1"
"1","1","50","no","stranger",0.565,"1"
"1","1","51","yes","mother",0.604,"1"
"1","1","52","no","mother",0.747,"1"
"1","1","53","yes","stranger",0.745,"1"
"1","1","54","yes","self",0.428,"1"
"1","1","55","yes","stranger",0.615,"1"
"1","1","56","yes","self",0.469,"1"
"1","1","57","no","mother",0.635,"1"
"1","1","58","yes","mother",0.73,"1"
"1","1","59","yes","self",0.504,"1"
"1","1","60","no","self",0.505,"1"
"1","2","61","no","stranger",0.819,"1"
"1","2","62","no","stranger",0.655,"1"
"1","2","63","yes","stranger",0.613,"1"
"1","2","64","yes","mother",0.469,"1"
"1","2","65","yes","self",0.435,"1"
"1","2","66","no","mother",0.545,"1"
"1","2","67","no","stranger",0.611,"1"
"1","2","68","no","stranger",0.669,"1"
"1","2","69","yes","mother",0.573,"1"
"1","2","70","no","mother",0.538,"1"
"1","2","71","yes","mother",0.458,"1"
"1","2","72","no","stranger",0.472,"1"
"1","2","73","no","self",0.625,"0"
"1","2","74","yes","mother",0.625,"1"
"1","2","75","no","mother",0.414,"1"
"1","2","76","no","stranger",0.694,"1"
"1","2","77","yes","self",0.355,"1"
"1","2","78","yes","self",0.369,"1"
"1","2","79","no","stranger",0.692,"1"
"1","2","80","yes","self",0.395,"1"
"1","2","81","no","mother",0.49,"1"
"1","2","82","no","self",0.75,"1"
"1","2","83","no","self",0.497,"1"
"1","2","84","no","mother",0.487,"0"
"1","2","85","yes","stranger",0.627,"0"
"1","2","86","yes","stranger",0.459,"1"
"1","2","87","no","self",0.585,"1"
"1","2","88","yes","stranger",0.707,"1"
"1","2","89","yes","mother",0.553,"1"
"1","2","90","yes","self",0.357,"1"
"1","2","91","no","stranger",0.558,"1"
"1","2","92","yes","stranger",0.563,"1"
"1","2","93","yes","stranger",0.475,"1"
"1","2","94","yes","stranger",0.512,"1"
"1","2","95","yes","mother",0.538,"1"
"1","2","96","no","mother",0.673,"0"
"1","2","97","no","self",0.451,"1"
"1","2","98","no","self",0.427,"1"
"1","2","99","yes","self",0.381,"1"
"1","2","100","no","mother",0.349,"1"
"1","2","101","yes","mother",0.675,"1"
"1","2","102","yes","self",0.422,"1"
"1","2","103","yes","self",0.421,"1"
"1","2","104","no","mother",0.479,"1"
"1","2","105","yes","stranger",0.639,"1"
"1","2","106","no","self",0.458,"1"
"1","2","107","no","mother",0.649,"1"
"1","2","108","no","mother",0.493,"1"
"1","2","109","no","self",0.47,"1"
"1","2","110","yes","self",0.371,"1"
"1","2","111","yes","mother",0.395,"1"
"1","2","112","no","stranger",0.581,"1"
"1","2","113","yes","self",0.534,"1"
"1","2","114","no","self",0.36,"1"
"1","2","115","yes","mother",0.625,"1"
"1","2","116","no","stranger",0.594,"1"
"1","2","117","yes","stranger",0.611,"1"
"1","2","118","yes","mother",0.373,"1"
"1","2","119","no","self",0.413,"1"
"1","2","120","yes","stranger",0.732,"1"
"1","3","121","yes","self",0.512,"1"
"1","3","122","no","mother",0.733,"1"
"1","3","123","no","stranger",0.65,"1"
"1","3","124","yes","mother",0.602,"1"
"1","3","125","no","mother",0.558,"1"
"1","3","126","yes","self",0.356,"1"
"1","3","127","yes","stranger",0.587,"1"
"1","3","128","yes","stranger",0.452,"1"
"1","3","129","yes","stranger",0.531,"1"
"1","3","130","no","mother",0.586,"1"
"1","3","131","yes","stranger",0.518,"0"
"1","3","132","no","self",0.676,"1"
"1","3","133","no","self",0.439,"1"
"1","3","134","no","mother",0.413,"0"
"1","3","135","no","stranger",0.521,"1"
"1","3","136","no","mother",0.483,"1"
"1","3","137","no","stranger",0.731,"1"
"1","3","138","no","self",0.537,"1"
"1","3","139","no","stranger",0.833,"1"
"1","3","140","no","stranger",0.651,"1"
"1","3","141","yes","stranger",0.645,"1"
"1","3","142","yes","stranger",0.517,"1"
"1","3","143","no","stranger",0.619,"1"
"1","3","144","no","self",0.659,"1"
"1","3","145","yes","self",0.553,"1"
"1","3","146","no","stranger",0.674,"1"
"1","3","147","no","self",0.464,"1"
"1","3","148","no","self",0.416,"1"
"1","3","149","no","mother",0.524,"1"
"1","3","150","yes","mother",0.371,"1"
"1","3","151","yes","mother",0.368,"1"
"1","3","152","yes","mother",0.479,"1"
"1","3","153","yes","mother",0.49,"1"
"1","3","154","no","self",0.361,"1"
"1","3","155","no","self",0.649,"1"
"1","3","156","no","self",0.479,"1"
"1","3","157","yes","mother",0.608,"1"
"1","3","158","yes","mother",0.3,"1"
"1","3","159","yes","stranger",0.745,"1"
"1","3","160","yes","stranger",0.313,"1"
"1","3","161","no","mother",0.6,"1"
"1","3","162","yes","self",0.55,"1"
"1","3","163","yes","mother",0.502,"1"
"1","3","164","no","mother",0.582,"0"
"1","3","165","no","stranger",0.5,"1"
"1","3","166","yes","self",0.74,"1"
"1","3","167","no","mother",0.723,"0"
"1","3","168","yes","stranger",0.666,"0"
"1","3","169","no","self",0.824,"1"
"1","3","170","yes","self",0.337,"1"
"1","3","171","yes","mother",0.586,"1"
"1","3","172","yes","stranger",0.69,"0"
"1","3","173","no","stranger",0.678,"0"
"1","3","174","yes","self",0.366,"1"
"1","3","175","yes","mother",0.491,"1"
"1","3","176","yes","self",0.436,"1"
"1","3","177","no","mother",0.464,"1"
"1","3","178","yes","self",0.373,"1"
"1","3","179","no","stranger",0.62,"1"
"1","3","180","yes","self",0.393,"1"
"1","4","181","yes","mother",0.621,"0"
"1","4","182","no","stranger",0.604,"1"
"1","4","183","yes","self",0.471,"1"
"1","4","184","no","self",0.473,"1"
"1","4","185","no","self",0.452,"0"
"1","4","186","no","mother",0.546,"0"
"1","4","187","no","self",0.553,"1"
"1","4","188","yes","stranger",0.537,"1"
"1","4","189","no","self",0.491,"1"
"1","4","190","yes","stranger",0.757,"1"
"1","4","191","yes","mother",0.547,"1"
"1","4","192","no","stranger",0.651,"1"
"1","4","193","yes","self",0.392,"1"
"1","4","194","yes","self",0.394,"1"
"1","4","195","no","mother",0.463,"1"
"1","4","196","no","mother",0.432,"1"
"1","4","197","no","self",0.454,"1"
"1","4","198","no","self",0.563,"1"
"1","4","199","yes","mother",0.386,"1"
"1","4","200","yes","stranger",0.56,"1"
"1","4","201","yes","mother",0.44,"1"
"1","4","202","yes","stranger",0.666,"1"
"1","4","203","yes","self",0.465,"1"
"1","4","204","no","self",0.503,"1"
"1","4","205","yes","self",0.52,"1"
"1","4","206","yes","self",0.48,"1"
"1","4","207","yes","mother",0.38,"1"
"1","4","208","yes","mother",0.313,"1"
"1","4","209","yes","mother",0.399,"1"
"1","4","210","no","stranger",0.48,"1"
"1","4","211","no","self",0.631,"1"
"1","4","212","yes","stranger",0.58,"1"
"1","4","213","yes","stranger",0.402,"1"
"1","4","214","yes","stranger",0.336,"1"
"1","4","215","yes","self",0.415,"1"
"1","4","216","no","stranger",0.603,"1"
"1","4","217","yes","mother",0.468,"1"
"1","4","218","yes","self",0.309,"1"
"1","4","219","no","mother",0.296,"0"
"1","4","220","yes","mother",0.447,"1"
"1","4","221","yes","mother",0.602,"1"
"1","4","222","no","self",0.462,"1"
"1","4","223","no","stranger",0.813,"1"
"1","4","224","yes","self",0.547,"1"
"1","4","225","no","self",0.764,"0"
"1","4","226","yes","stranger",0.461,"0"
"1","4","227","no","mother",0.506,"1"
"1","4","228","no","stranger",0.442,"1"
"1","4","229","yes","self",0.352,"1"
"1","4","230","no","mother",0.663,"1"
"1","4","231","no","stranger",0.61,"1"
"1","4","232","no","mother",0.635,"1"
"1","4","233","no","stranger",0.664,"1"
"1","4","234","no","mother",0.64,"0"
"1","4","235","no","mother",0.465,"1"
"1","4","236","yes","stranger",0.623,"1"
"1","4","237","no","stranger",0.576,"1"
"1","4","238","no","stranger",0.678,"0"
"1","4","239","yes","stranger",0.522,"1"
"1","4","240","no","mother",0.57,"1"
"1","5","241","yes","stranger",0.588,"0"
"1","5","242","no","stranger",0.473,"1"
"1","5","243","yes","stranger",0.509,"1"
"1","5","244","no","stranger",0.515,"1"
"1","5","245","yes","self",0.463,"1"
"1","5","246","yes","mother",0.33,"1"
"1","5","247","no","self",0.444,"1"
"1","5","248","no","self",0.42,"1"
"1","5","249","no","mother",0.47,"0"
"1","5","250","yes","stranger",0.477,"1"
"1","5","251","yes","self",0.478,"1"
"1","5","252","no","self",0.443,"1"
"1","5","253","no","mother",0.516,"1"
"1","5","254","no","stranger",0.603,"1"
"1","5","255","no","mother",0.561,"0"
"1","5","256","no","stranger",0.5,"0"
"1","5","257","yes","stranger",0.53,"0"
"1","5","258","no","self",0.39,"0"
"1","5","259","yes","self",0.49,"0"
"1","5","260","no","self",0.695,"1"
"1","5","261","no","stranger",0.721,"1"
"1","5","262","no","mother",0.524,"1"
"1","5","263","yes","mother",0.779,"1"
"1","5","264","no","self",0.418,"1"
"1","5","265","no","mother",0.598,"0"
"1","5","266","no","mother",0.694,"1"
"1","5","267","yes","mother",0.613,"1"
"1","5","268","yes","stranger",0.49,"1"
"1","5","269","no","mother",0.75,"1"
"1","5","270","yes","self",0.334,"1"
"1","5","271","yes","self",0.348,"1"
"1","5","272","yes","self",0.444,"1"
"1","5","273","no","self",0.46,"0"
"1","5","274","no","stranger",0.382,"1"
"1","5","275","yes","stranger",0.527,"1"
"1","5","276","yes","stranger",0.668,"0"
"1","5","277","yes","mother",0.509,"1"
"1","5","278","yes","mother",0.425,"1"
"1","5","279","no","stranger",0.444,"1"
"1","5","280","no","self",0.367,"1"
"1","5","281","yes","mother",0.287,"1"
"1","5","282","no","mother",0.429,"1"
"1","5","283","yes","mother",0.418,"0"
"1","5","284","yes","mother",0.418,"0"
"1","5","285","yes","stranger",0.439,"1"
"1","5","286","no","stranger",0.406,"1"
"1","5","287","yes","self",0.298,"1"
"1","5","288","yes","stranger",0.52,"1"
"1","5","289","yes","mother",0.487,"1"
"1","5","290","yes","self",0.345,"1"
"1","5","291","no","stranger",0.442,"1"
"1","5","292","yes","self",0.304,"1"
"1","5","293","no","mother",0.54,"1"
"1","5","294","yes","mother",0.813,"1"
"1","5","295","no","stranger",0.535,"1"
"1","5","296","no","self",0.471,"1"
"1","5","297","yes","stranger",0.77,"1"
"1","5","298","yes","self",0.408,"1"
"1","5","299","no","self",0.747,"0"
"1","5","300","no","mother",0.742,"1"
"1","6","301","yes","self",0.348,"1"
"1","6","302","no","mother",0.489,"1"
"1","6","303","yes","stranger",0.53,"1"
"1","6","304","no","self",0.443,"1"
"1","6","305","yes","mother",0.555,"1"
"1","6","306","yes","mother",0.325,"1"
"1","6","307","no","mother",0.33,"0"
"1","6","308","yes","self",0.345,"1"
"1","6","309","no","stranger",0.597,"1"
"1","6","310","yes","stranger",0.613,"1"
"1","6","311","no","mother",0.519,"1"
"1","6","312","yes","stranger",0.404,"1"
"1","6","313","no","self",0.441,"1"
"1","6","314","no","self",0.392,"1"
"1","6","315","yes","self",0.406,"1"
"1","6","316","no","stranger",0.562,"1"
"1","6","317","no","mother",0.86,"1"
"1","6","318","yes","self",0.486,"1"
"1","6","319","no","mother",0.652,"1"
"1","6","320","yes","self",0.452,"1"
"1","6","321","yes","mother",0.571,"0"
"1","6","322","yes","mother",0.554,"1"
"1","6","323","yes","self",0.346,"1"
"1","6","324","no","stranger",0.383,"1"
"1","6","325","no","stranger",0.662,"1"
"1","6","326","yes","self",0.421,"1"
"1","6","327","no","self",0.596,"1"
"1","6","328","no","self",0.493,"1"
"1","6","329","no","stranger",0.717,"1"
"1","6","330","no","self",0.411,"0"
"1","6","331","yes","stranger",0.633,"1"
"1","6","332","yes","mother",0.328,"1"
"1","6","333","no","mother",0.433,"1"
"1","6","334","yes","stranger",0.69,"1"
"1","6","335","yes","self",0.666,"1"
"1","6","336","no","stranger",0.553,"1"
"1","6","337","yes","stranger",0.615,"0"
"1","6","338","yes","stranger",0.559,"1"
"1","6","339","no","stranger",0.422,"0"
"1","6","340","no","stranger",0.595,"1"
"1","6","341","no","self",0.597,"0"
"1","6","342","yes","self",0.62,"1"
"1","6","343","no","stranger",0.478,"1"
"1","6","344","yes","mother",0.558,"1"
"1","6","345","no","self",0.677,"1"
"1","6","346","yes","mother",0.724,"1"
"1","6","347","yes","mother",0.554,"1"
"1","6","348","no","mother",0.61,"1"
"1","6","349","no","self",0.569,"1"
"1","6","350","yes","mother",0.423,"1"
"1","6","351","yes","mother",0.319,"1"
"1","6","352","yes","stranger",0.625,"1"
"1","6","353","yes","self",0.522,"1"
"1","6","354","no","stranger",0.745,"1"
"1","6","355","no","self",0.535,"1"
"1","6","356","no","mother",0.359,"0"
"1","6","357","yes","stranger",0.709,"0"
"1","6","358","no","mother",0.414,"1"
"1","6","359","no","mother",0.429,"0"
"1","6","360","yes","stranger",0.645,"1"
"2","1","1","yes","self",0.635,"1"
"2","1","2","yes","self",0.471,"1"
"2","1","3","no","stranger",0.76,"1"
"2","1","4","no","mother",0.81,"1"
"2","1","5","no","mother",0.572,"1"
"2","1","6","yes","stranger",0.942,"1"
"2","1","7","yes","stranger",0.708,"1"
"2","1","8","no","self",0.676,"1"
"2","1","9","no","stranger",0.731,"1"
"2","1","10","no","self",0.819,"1"
"2","1","11","no","stranger",0.807,"1"
"2","1","12","yes","stranger",0.565,"0"
"2","1","13","no","self",0.679,"1"
"2","1","14","yes","stranger",0.676,"1"
"2","1","15","yes","self",0.526,"1"
"2","1","16","yes","mother",0.682,"1"
"2","1","17","yes","self",0.478,"1"
"2","1","18","no","stranger",0.777,"1"
"2","1","19","yes","mother",0.545,"1"
"2","1","20","yes","self",0.553,"1"
"2","1","21","yes","mother",0.489,"1"
"2","1","22","yes","mother",0.417,"1"
"2","1","23","yes","self",0.425,"1"
"2","1","24","yes","mother",0.653,"1"
"2","1","25","no","self",0.818,"1"
"2","1","26","yes","self",0.72,"1"
"2","1","27","no","mother",0.62,"1"
"2","1","28","yes","mother",1.018,"1"
"2","1","29","yes","self",0.416,"1"
"2","1","30","no","stranger",0.852,"1"
"2","1","31","no","self",0.68,"1"
"2","1","32","no","stranger",1.024,"1"
"2","1","33","no","self",0.659,"1"
"2","1","34","yes","stranger",0.831,"1"
"2","1","35","yes","self",0.453,"1"
"2","1","36","no","stranger",0.799,"1"
"2","1","37","no","self",0.725,"1"
"2","1","38","yes","mother",0.553,"1"
"2","1","39","no","mother",0.448,"1"
"2","1","40","no","mother",0.624,"1"
"2","1","41","yes","mother",0.572,"1"
"2","1","42","no","self",0.65,"1"
"2","1","43","no","mother",0.636,"1"
"2","1","44","yes","stranger",0.831,"1"
"2","1","45","no","mother",0.831,"1"
"2","1","46","no","stranger",0.751,"1"
"2","1","47","yes","self",0.537,"1"
"2","1","48","yes","mother",1.218,"1"
"2","1","49","no","mother",0.718,"1"
"2","1","50","no","stranger",0.608,"1"
"2","1","51","yes","stranger",0.598,"0"
"2","1","52","yes","stranger",0.618,"1"
"2","1","53","no","mother",0.906,"1"
"2","1","55","no","stranger",0.867,"1"
"2","1","56","no","self",0.779,"1"
"2","1","57","no","self",0.577,"1"
"2","1","58","no","mother",0.783,"1"
"2","1","59","yes","mother",0.874,"1"
"2","1","60","yes","stranger",0.742,"1"
"2","2","61","no","stranger",0.791,"1"
"2","2","62","yes","self",0.519,"1"
"2","2","63","yes","self",0.448,"1"
"2","2","64","yes","self",0.418,"1"
"2","2","65","yes","self",0.466,"1"
"2","2","66","yes","stranger",0.566,"0"
"2","2","67","yes","mother",0.534,"1"
"2","2","68","yes","mother",0.405,"1"
"2","2","69","no","self",0.603,"1"
"2","2","70","yes","stranger",0.851,"1"
"2","2","71","no","stranger",1.179,"1"
"2","2","72","yes","self",0.543,"1"
"2","2","73","yes","self",0.502,"1"
"2","2","74","yes","mother",0.442,"1"
"2","2","75","no","mother",0.677,"1"
"2","2","76","yes","mother",0.415,"1"
"2","2","77","no","stranger",0.63,"0"
"2","2","78","yes","mother",0.572,"1"
"2","2","79","no","stranger",0.654,"1"
"2","2","80","yes","stranger",0.816,"1"
"2","2","81","no","stranger",0.644,"1"
"2","2","82","yes","stranger",0.869,"1"
"2","2","83","no","self",1.001,"1"
"2","2","84","no","mother",0.627,"1"
"2","2","85","no","mother",0.709,"1"
"2","2","86","yes","self",0.525,"1"
"2","2","87","no","self",0.676,"1"
"2","2","88","yes","stranger",0.756,"1"
"2","2","89","no","mother",0.854,"1"
"2","2","90","yes","self",0.722,"1"
"2","2","91","no","stranger",0.686,"1"
"2","2","92","no","self",0.686,"1"
"2","2","93","no","self",0.689,"1"
"2","2","94","no","self",0.607,"1"
"2","2","95","no","mother",0.761,"1"
"2","2","96","yes","stranger",0.933,"1"
"2","2","97","no","stranger",0.936,"1"
"2","2","98","yes","stranger",0.892,"1"
"2","2","99","yes","stranger",0.72,"1"
"2","2","100","yes","self",0.494,"1"
"2","2","101","no","mother",0.804,"1"
"2","2","102","yes","mother",0.549,"1"
"2","2","103","yes","mother",0.473,"1"
"2","2","104","no","stranger",0.547,"1"
"2","2","105","no","self",0.581,"1"
"2","2","106","yes","stranger",0.664,"0"
"2","2","107","yes","stranger",0.592,"1"
"2","2","108","yes","self",0.552,"1"
"2","2","109","no","mother",0.684,"1"
"2","2","110","no","self",0.615,"1"
"2","2","111","yes","mother",0.557,"1"
"2","2","112","no","mother",0.871,"1"
"2","2","113","yes","mother",0.957,"1"
"2","2","114","no","stranger",0.7,"1"
"2","2","115","no","stranger",0.804,"1"
"2","2","116","yes","mother",0.528,"1"
"2","2","117","no","mother",0.468,"1"
"2","2","118","no","mother",0.893,"1"
"2","2","119","no","self",0.525,"1"
"2","2","120","no","self",0.52,"1"
"2","3","121","yes","self",0.616,"1"
"2","3","122","yes","mother",0.648,"1"
"2","3","123","no","stranger",0.841,"1"
"2","3","124","yes","stranger",0.935,"0"
"2","3","125","yes","stranger",0.625,"1"
"2","3","126","no","mother",0.683,"1"
"2","3","127","no","self",0.607,"1"
"2","3","128","no","self",0.545,"1"
"2","3","129","yes","stranger",0.564,"1"
"2","3","130","no","self",0.63,"1"
"2","3","131","no","self",0.672,"1"
"2","3","132","yes","stranger",0.64,"1"
"2","3","133","yes","stranger",0.755,"0"
"2","3","134","no","self",0.575,"1"
"2","3","135","yes","mother",0.503,"1"
"2","3","136","no","self",0.611,"1"
"2","3","137","no","stranger",0.764,"1"
"2","3","138","yes","mother",0.552,"1"
"2","3","139","yes","stranger",0.802,"1"
"2","3","140","no","mother",0.63,"1"
"2","3","141","yes","mother",0.557,"1"
"2","3","142","yes","stranger",0.875,"1"
"2","3","143","no","stranger",0.901,"1"
"2","3","144","yes","stranger",0.701,"1"
"2","3","145","no","stranger",0.697,"1"
"2","3","146","yes","self",0.594,"1"
"2","3","147","no","mother",0.766,"1"
"2","3","148","yes","self",0.442,"1"
"2","3","149","yes","mother",0.652,"1"
"2","3","150","no","stranger",0.586,"1"
"2","3","151","yes","mother",0.44,"1"
"2","3","152","no","stranger",0.865,"1"
"2","3","153","yes","self",0.653,"1"
"2","3","154","yes","self",0.633,"1"
"2","3","155","no","mother",0.743,"1"
"2","3","156","no","stranger",0.677,"1"
"2","3","157","no","stranger",1.078,"1"
"2","3","158","no","mother",0.75,"1"
"2","3","159","no","mother",0.634,"1"
"2","3","160","no","self",0.689,"1"
"2","3","161","no","self",0.644,"1"
"2","3","162","yes","mother",0.542,"1"
"2","3","163","no","self",1.026,"1"
"2","3","164","yes","self",0.63,"1"
"2","3","165","no","mother",0.482,"1"
"2","3","166","yes","self",0.795,"1"
"2","3","167","yes","self",0.497,"1"
"2","3","168","yes","self",0.431,"1"
"2","3","169","yes","mother",0.497,"1"
"2","3","170","yes","self",0.443,"1"
"2","3","171","yes","mother",0.49,"1"
"2","3","172","yes","mother",0.368,"1"
"2","3","173","no","mother",0.716,"1"
"2","3","174","no","mother",0.584,"1"
"2","3","175","yes","stranger",0.543,"0"
"2","3","176","yes","stranger",0.447,"1"
"2","3","177","no","self",0.779,"1"
"2","3","178","no","stranger",0.751,"0"
"2","3","179","no","stranger",0.896,"1"
"2","3","180","no","mother",0.678,"1"
"2","4","181","no","self",0.601,"1"
"2","4","185","no","mother",0.716,"1"
"2","4","186","no","stranger",0.734,"1"
"2","4","188","no","mother",0.576,"1"
"2","4","189","no","self",0.646,"1"
"2","4","190","no","stranger",0.523,"1"
"2","4","191","yes","self",0.465,"1"
"2","4","192","no","mother",0.699,"1"
"2","4","193","yes","mother",0.543,"1"
"2","4","194","yes","mother",0.488,"1"
"2","4","195","no","self",0.532,"1"
"2","4","196","no","stranger",0.592,"1"
"2","4","197","yes","self",0.506,"1"
"2","4","198","yes","stranger",0.468,"0"
"2","4","199","no","stranger",0.625,"1"
"2","4","200","no","stranger",0.577,"1"
"2","4","201","no","self",0.507,"1"
"2","4","202","yes","mother",0.557,"1"
"2","4","203","yes","self",0.524,"1"
"2","4","204","yes","mother",0.485,"1"
"2","4","205","no","stranger",0.649,"0"
"2","4","206","no","stranger",0.631,"1"
"2","4","207","yes","stranger",0.779,"1"
"2","4","208","yes","self",0.454,"1"
"2","4","209","yes","mother",0.588,"1"
"2","4","210","yes","stranger",0.552,"0"
"2","4","211","no","mother",0.758,"1"
"2","4","212","yes","self",0.6,"1"
"2","4","213","yes","mother",0.671,"1"
"2","4","214","yes","stranger",0.891,"0"
"2","4","215","yes","stranger",0.631,"1"
"2","4","216","no","mother",0.963,"1"
"2","4","217","yes","mother",0.491,"1"
"2","4","218","no","stranger",0.762,"1"
"2","4","219","no","mother",0.95,"1"
"2","4","220","no","mother",1.222,"1"
"2","4","221","yes","self",0.424,"1"
"2","4","222","yes","self",0.426,"1"
"2","4","223","yes","self",0.429,"1"
"2","4","224","yes","stranger",0.811,"1"
"2","4","225","yes","stranger",0.429,"1"
"2","4","226","no","mother",0.535,"1"
"2","4","227","no","stranger",0.607,"0"
"2","4","228","no","self",0.692,"1"
"2","4","229","no","mother",0.642,"1"
"2","4","230","yes","mother",0.462,"1"
"2","4","231","yes","stranger",0.774,"1"
"2","4","232","yes","stranger",0.463,"1"
"2","4","233","no","self",0.569,"1"
"2","4","234","yes","self",0.683,"1"
"2","4","235","no","self",0.591,"1"
"2","4","236","yes","stranger",0.607,"0"
"2","4","237","no","self",0.662,"1"
"2","4","238","yes","mother",0.446,"1"
"2","4","239","yes","mother",0.59,"1"
"2","4","240","no","self",0.73,"1"
"2","5","241","no","self",0.644,"1"
"2","5","242","no","stranger",0.876,"1"
"2","5","243","yes","stranger",0.64,"1"
"2","5","244","yes","mother",0.594,"1"
"2","5","245","yes","stranger",0.529,"0"
"2","5","246","yes","mother",0.456,"1"
"2","5","247","yes","stranger",0.476,"1"
"2","5","248","no","stranger",0.85,"1"
"2","5","249","yes","self",0.654,"1"
"2","5","250","yes","stranger",0.777,"1"
"2","5","251","no","self",0.741,"1"
"2","5","252","no","mother",0.763,"1"
"2","5","253","yes","stranger",0.815,"1"
"2","5","254","no","mother",0.754,"1"
"2","5","255","no","mother",0.684,"1"
"2","5","256","yes","stranger",0.958,"1"
"2","5","257","no","self",0.674,"1"
"2","5","258","no","mother",0.697,"1"
"2","5","259","no","self",0.505,"1"
"2","5","260","no","stranger",0.619,"1"
"2","5","261","yes","mother",0.679,"1"
"2","5","262","yes","stranger",0.727,"1"
"2","5","263","no","stranger",0.74,"1"
"2","5","264","no","self",0.712,"1"
"2","5","265","no","self",0.722,"1"
"2","5","266","no","self",0.786,"1"
"2","5","267","no","mother",0.604,"1"
"2","5","268","yes","mother",0.809,"1"
"2","5","269","yes","mother",0.573,"1"
"2","5","270","yes","self",0.613,"1"
"2","5","271","no","mother",0.565,"1"
"2","5","272","yes","self",0.643,"1"
"2","5","273","no","mother",0.506,"1"
"2","5","274","no","self",0.672,"1"
"2","5","275","yes","self",0.524,"1"
"2","5","276","yes","mother",0.512,"1"
"2","5","277","no","self",0.863,"1"
"2","5","278","no","stranger",0.649,"1"
"2","5","279","yes","self",0.479,"1"
"2","5","280","no","mother",0.675,"1"
"2","5","281","yes","self",0.431,"1"
"2","5","282","yes","self",0.509,"1"
"2","5","284","no","stranger",0.724,"1"
"2","5","285","no","stranger",0.682,"1"
"2","5","286","yes","mother",0.438,"1"
"2","5","287","yes","self",0.504,"1"
"2","5","288","no","stranger",0.556,"1"
"2","5","289","yes","mother",0.499,"1"
"2","5","290","yes","stranger",0.763,"1"
"2","5","291","no","stranger",0.702,"1"
"2","5","293","yes","mother",0.532,"1"
"2","5","294","no","stranger",0.877,"1"
"2","5","295","no","mother",0.995,"1"
"2","5","296","yes","mother",0.491,"1"
"2","5","297","yes","stranger",0.696,"1"
"2","5","298","yes","self",0.608,"1"
"2","5","299","yes","self",0.444,"1"
"2","5","300","yes","stranger",0.616,"1"
"2","6","301","no","stranger",0.662,"1"
"2","6","302","no","self",0.554,"1"
"2","6","303","yes","stranger",0.771,"1"
"2","6","304","yes","stranger",0.607,"1"
"2","6","305","yes","self",0.483,"1"
"2","6","306","yes","self",0.345,"1"
"2","6","307","no","self",0.529,"1"
"2","6","308","no","stranger",0.743,"1"
"2","6","309","no","mother",0.922,"1"
"2","6","310","no","stranger",0.686,"1"
"2","6","311","yes","mother",0.498,"1"
"2","6","312","no","stranger",0.538,"1"
"2","6","313","no","mother",0.539,"1"
"2","6","314","no","mother",0.749,"1"
"2","6","315","yes","stranger",0.621,"1"
"2","6","316","yes","mother",0.579,"1"
"2","6","317","yes","self",0.415,"1"
"2","6","318","yes","mother",0.644,"1"
"2","6","319","yes","mother",0.574,"1"
"2","6","320","no","stranger",0.778,"1"
"2","6","321","yes","self",0.41,"1"
"2","6","322","yes","self",0.417,"1"
"2","6","323","yes","stranger",0.739,"1"
"2","6","324","yes","mother",0.503,"1"
"2","6","325","no","mother",0.577,"1"
"2","6","326","no","self",1,"1"
"2","6","327","yes","stranger",0.618,"1"
"2","6","328","no","stranger",0.756,"1"
"2","6","329","no","mother",0.896,"1"
"2","6","330","yes","stranger",0.627,"1"
"2","6","331","yes","mother",0.578,"1"
"2","6","332","no","self",0.738,"1"
"2","6","333","yes","stranger",0.816,"1"
"2","6","334","no","mother",0.615,"1"
"2","6","335","yes","mother",0.701,"1"
"2","6","336","no","stranger",0.795,"0"
"2","6","337","no","self",0.727,"1"
"2","6","338","yes","stranger",0.531,"1"
"2","6","339","yes","mother",0.422,"1"
"2","6","340","no","stranger",0.692,"1"
"2","6","341","no","self",0.564,"1"
"2","6","342","no","mother",0.664,"1"
"2","6","343","no","mother",0.862,"1"
"2","6","344","yes","self",0.527,"1"
"2","6","345","no","self",0.463,"1"
"2","6","346","no","mother",0.517,"1"
"2","6","347","no","stranger",0.589,"1"
"2","6","348","yes","mother",0.91,"1"
"2","6","349","yes","mother",0.42,"1"
"2","6","350","no","stranger",0.666,"1"
"2","6","351","no","self",0.552,"1"
"2","6","352","yes","stranger",0.922,"1"
"2","6","353","no","self",0.868,"1"
"2","6","354","no","mother",0.609,"1"
"2","6","355","yes","self",0.467,"1"
"2","6","356","no","self",0.475,"1"
"2","6","357","yes","self",0.483,"1"
"2","6","358","yes","self",0.434,"1"
"2","6","359","yes","self",0.46,"1"
"2","6","360","yes","stranger",0.574,"1"
"3","1","1","no","self",0.514,"1"
"3","1","2","yes","self",0.75,"1"
"3","1","3","yes","mother",0.548,"1"
"3","1","4","yes","mother",0.653,"1"
"3","1","5","no","mother",0.407,"1"
"3","1","6","yes","stranger",0.603,"1"
"3","1","7","no","mother",0.592,"1"
"3","1","8","yes","self",0.938,"1"
"3","1","9","yes","mother",0.626,"1"
"3","1","10","no","self",0.504,"1"
"3","1","11","yes","stranger",0.573,"1"
"3","1","12","no","mother",0.695,"1"
"3","1","13","yes","self",0.595,"0"
"3","1","14","yes","stranger",0.49,"1"
"3","1","15","yes","mother",0.592,"1"
"3","1","16","no","self",0.562,"1"
"3","1","17","no","stranger",0.706,"1"
"3","1","18","no","self",0.916,"0"
"3","1","19","yes","stranger",0.524,"1"
"3","1","20","yes","self",0.836,"0"
"3","1","21","no","mother",0.8,"1"
"3","1","22","no","stranger",0.577,"1"
"3","1","23","no","self",0.491,"0"
"3","1","24","yes","self",0.605,"0"
"3","1","25","yes","mother",0.598,"1"
"3","1","26","no","self",0.564,"1"
"3","1","27","yes","mother",0.556,"0"
"3","1","28","yes","stranger",0.644,"1"
"3","1","29","no","stranger",0.547,"1"
"3","1","30","yes","self",0.641,"0"
"3","1","31","no","stranger",0.451,"1"
"3","1","32","yes","self",0.538,"0"
"3","1","33","yes","mother",0.568,"1"
"3","1","34","yes","self",0.454,"1"
"3","1","35","no","stranger",0.446,"0"
"3","1","36","no","mother",0.615,"1"
"3","1","37","no","stranger",0.767,"0"
"3","1","38","no","stranger",0.729,"1"
"3","1","39","yes","stranger",0.629,"1"
"3","1","40","yes","self",0.598,"0"
"3","1","41","no","stranger",0.576,"1"
"3","1","42","no","mother",0.54,"1"
"3","1","43","yes","stranger",0.49,"1"
"3","1","44","no","self",0.587,"1"
"3","1","45","no","mother",0.601,"1"
"3","1","46","no","stranger",0.401,"1"
"3","1","47","yes","mother",0.57,"1"
"3","1","48","no","mother",0.363,"1"
"3","1","49","no","stranger",0.515,"1"
"3","1","50","yes","mother",0.549,"1"
"3","1","51","no","self",0.867,"1"
"3","1","52","no","self",0.684,"1"
"3","1","53","yes","stranger",0.598,"1"
"3","1","54","no","self",0.506,"1"
"3","1","55","no","mother",0.547,"1"
"3","1","56","yes","mother",0.445,"0"
"3","1","57","yes","stranger",0.489,"1"
"3","1","58","yes","self",0.492,"1"
"3","1","59","yes","stranger",0.49,"0"
"3","1","60","no","mother",0.496,"1"
"3","2","61","yes","stranger",0.616,"1"
"3","2","62","yes","stranger",0.698,"1"
"3","2","63","no","stranger",0.389,"1"
"3","2","64","yes","self",0.583,"1"
"3","2","65","yes","self",0.503,"1"
"3","2","66","no","mother",0.537,"1"
"3","2","67","no","mother",0.492,"1"
"3","2","68","no","stranger",0.598,"1"
"3","2","69","no","mother",0.55,"1"
"3","2","70","no","stranger",0.438,"0"
"3","2","71","yes","mother",0.525,"1"
"3","2","72","yes","mother",0.539,"1"
"3","2","73","no","self",0.543,"1"
"3","2","74","no","stranger",0.612,"1"
"3","2","75","yes","self",0.425,"0"
"3","2","76","yes","self",0.747,"1"
"3","2","77","yes","mother",0.485,"1"
"3","2","78","yes","self",0.636,"0"
"3","2","79","yes","mother",0.592,"1"
"3","2","80","no","self",0.476,"1"
"3","2","81","no","mother",0.461,"1"
"3","2","82","yes","self",0.597,"1"
"3","2","83","yes","self",0.471,"1"
"3","2","84","yes","stranger",0.426,"0"
"3","2","85","no","mother",0.524,"1"
"3","2","86","no","stranger",0.468,"0"
"3","2","87","no","self",0.796,"1"
"3","2","88","no","self",0.569,"1"
"3","2","89","no","self",0.789,"1"
"3","2","90","yes","stranger",0.477,"1"
"3","2","91","yes","stranger",0.495,"0"
"3","2","92","no","self",0.686,"1"
"3","2","93","no","self",0.57,"1"
"3","2","94","no","mother",0.514,"1"
"3","2","95","no","mother",0.609,"1"
"3","2","96","yes","stranger",0.493,"1"
"3","2","97","no","self",0.503,"1"
"3","2","98","yes","self",0.631,"1"
"3","2","99","no","stranger",0.554,"1"
"3","2","100","yes","stranger",0.466,"0"
"3","2","101","yes","mother",0.756,"1"
"3","2","102","no","stranger",0.594,"1"
"3","2","103","yes","self",0.793,"1"
"3","2","104","yes","mother",0.622,"1"
"3","2","105","yes","stranger",0.64,"1"
"3","2","106","yes","self",0.81,"1"
"3","2","107","yes","mother",0.374,"1"
"3","2","108","no","self",0.791,"1"
"3","2","109","yes","stranger",0.799,"1"
"3","2","110","yes","mother",0.937,"1"
"3","2","111","yes","mother",0.409,"1"
"3","2","112","no","stranger",0.612,"1"
"3","2","113","no","mother",0.596,"1"
"3","2","114","yes","mother",0.792,"1"
"3","2","115","no","mother",0.618,"1"
"3","2","116","yes","stranger",0.487,"0"
"3","2","117","no","mother",0.613,"1"
"3","2","118","no","stranger",0.665,"1"
"3","2","119","no","stranger",0.516,"1"
"3","2","120","no","self",0.84,"1"
"3","3","121","yes","stranger",0.457,"0"
"3","3","122","no","self",0.713,"1"
"3","3","123","yes","self",0.868,"1"
"3","3","124","no","mother",0.638,"1"
"3","3","125","no","mother",0.488,"1"
"3","3","126","no","self",0.678,"1"
"3","3","127","no","self",0.749,"0"
"3","3","128","no","self",0.521,"1"
"3","3","129","yes","mother",0.554,"0"
"3","3","130","no","stranger",0.599,"1"
"3","3","131","yes","self",0.607,"0"
"3","3","132","yes","mother",0.627,"1"
"3","3","133","yes","mother",0.605,"0"
"3","3","134","yes","mother",0.414,"0"
"3","3","135","no","stranger",0.54,"1"
"3","3","136","no","stranger",0.554,"1"
"3","3","137","no","mother",0.609,"1"
"3","3","138","no","self",0.541,"1"
"3","3","139","yes","self",0.691,"1"
"3","3","140","yes","stranger",0.403,"0"
"3","3","141","no","mother",0.534,"1"
"3","3","142","no","stranger",0.656,"1"
"3","3","143","no","stranger",0.57,"1"
"3","3","144","no","mother",0.622,"1"
"3","3","145","yes","mother",0.619,"1"
"3","3","146","yes","mother",0.457,"0"
"3","3","147","yes","self",0.751,"0"
"3","3","148","no","mother",0.979,"1"
"3","3","149","yes","self",0.52,"1"
"3","3","150","no","stranger",0.444,"0"
"3","3","151","yes","self",0.76,"0"
"3","3","152","yes","stranger",0.706,"1"
"3","3","153","no","self",0.549,"1"
"3","3","154","no","mother",0.919,"1"
"3","3","155","no","self",0.543,"1"
"3","3","156","yes","stranger",0.457,"1"
"3","3","157","yes","stranger",0.458,"1"
"3","3","158","yes","mother",0.901,"1"
"3","3","159","no","self",0.543,"1"
"3","3","160","yes","self",0.626,"0"
"3","3","161","yes","stranger",0.574,"1"
"3","3","162","yes","mother",1.024,"1"
"3","3","163","yes","stranger",0.616,"1"
"3","3","164","no","stranger",0.735,"1"
"3","3","165","no","mother",0.673,"1"
"3","3","166","yes","stranger",0.697,"1"
"3","3","167","yes","mother",0.795,"1"
"3","3","168","no","mother",0.542,"1"
"3","3","169","no","self",0.646,"1"
"3","3","170","yes","self",0.504,"1"
"3","3","171","no","mother",0.738,"1"
"3","3","172","yes","self",0.589,"0"
"3","3","173","yes","stranger",0.431,"1"
"3","3","174","no","stranger",0.625,"1"
"3","3","175","yes","mother",0.568,"1"
"3","3","176","no","self",0.598,"1"
"3","3","177","no","stranger",0.782,"1"
"3","3","178","yes","self",0.679,"1"
"3","3","179","no","stranger",0.565,"1"
"3","3","180","yes","stranger",0.679,"1"
"3","4","181","no","mother",0.523,"1"
"3","4","182","yes","mother",0.759,"1"
"3","4","183","yes","stranger",0.621,"1"
"3","4","184","no","stranger",0.479,"1"
"3","4","185","yes","stranger",0.456,"1"
"3","4","186","no","mother",0.525,"1"
"3","4","187","no","self",0.677,"1"
"3","4","188","no","self",0.804,"1"
"3","4","189","no","stranger",0.736,"1"
"3","4","190","no","self",0.57,"1"
"3","4","191","no","stranger",0.587,"1"
"3","4","192","yes","mother",0.555,"1"
"3","4","193","no","mother",0.457,"1"
"3","4","194","no","stranger",0.642,"1"
"3","4","195","yes","mother",0.716,"1"
"3","4","196","yes","self",0.64,"1"
"3","4","197","yes","stranger",0.454,"1"
"3","4","198","no","self",0.721,"1"
"3","4","199","yes","self",0.569,"1"
"3","4","200","no","mother",0.523,"1"
"3","4","201","no","stranger",0.505,"1"
"3","4","202","no","stranger",0.482,"1"
"3","4","203","yes","stranger",0.598,"1"
"3","4","204","no","mother",0.504,"1"
"3","4","205","yes","self",0.489,"0"
"3","4","206","yes","mother",0.639,"0"
"3","4","207","no","stranger",0.553,"1"
"3","4","208","yes","stranger",0.348,"1"
"3","4","209","yes","mother",0.538,"1"
"3","4","210","no","mother",0.448,"1"
"3","4","211","no","mother",0.595,"1"
"3","4","212","yes","mother",0.451,"1"
"3","4","213","no","self",0.529,"1"
"3","4","214","yes","self",0.629,"0"
"3","4","215","yes","stranger",0.623,"1"
"3","4","216","yes","mother",0.441,"1"
"3","4","217","yes","self",0.787,"0"
"3","4","218","yes","mother",0.606,"1"
"3","4","219","yes","self",0.478,"1"
"3","4","220","yes","self",0.48,"1"
"3","4","221","no","self",0.516,"0"
"3","4","222","yes","stranger",0.968,"1"
"3","4","223","no","self",0.739,"1"
"3","4","224","yes","mother",0.481,"1"
"3","4","225","no","stranger",0.587,"1"
"3","4","226","yes","mother",0.601,"1"
"3","4","227","yes","stranger",0.513,"1"
"3","4","228","no","self",0.77,"0"
"3","4","229","no","mother",0.538,"1"
"3","4","230","no","self",0.526,"1"
"3","4","231","yes","stranger",0.667,"0"
"3","4","232","no","mother",0.531,"1"
"3","4","233","yes","self",1.057,"1"
"3","4","234","no","mother",0.639,"1"
"3","4","235","yes","stranger",0.657,"0"
"3","4","236","yes","self",0.624,"0"
"3","4","237","no","stranger",0.644,"1"
"3","4","238","no","stranger",0.566,"1"
"3","4","239","yes","self",0.875,"1"
"3","4","240","no","self",0.739,"1"
"3","5","241","yes","self",0.827,"0"
"3","5","242","no","mother",0.818,"1"
"3","5","243","yes","stranger",0.666,"1"
"3","5","244","yes","stranger",0.504,"1"
"3","5","245","no","mother",0.476,"1"
"3","5","246","yes","stranger",0.529,"1"
"3","5","247","yes","mother",0.507,"1"
"3","5","248","yes","self",0.871,"1"
"3","5","249","no","mother",0.476,"0"
"3","5","250","no","mother",0.442,"1"
"3","5","251","yes","self",0.562,"0"
"3","5","252","yes","stranger",0.418,"1"
"3","5","253","no","stranger",0.499,"1"
"3","5","254","yes","stranger",0.951,"1"
"3","5","255","no","mother",0.531,"1"
"3","5","256","no","mother",0.569,"1"
"3","5","257","no","mother",0.432,"1"
"3","5","258","no","mother",0.496,"1"
"3","5","259","no","mother",0.78,"1"
"3","5","260","no","self",0.616,"1"
"3","5","261","no","self",0.745,"1"
"3","5","262","yes","stranger",0.421,"1"
"3","5","263","yes","stranger",0.503,"1"
"3","5","264","yes","mother",0.551,"1"
"3","5","265","yes","mother",0.394,"1"
"3","5","266","no","stranger",0.62,"1"
"3","5","267","no","stranger",0.426,"1"
"3","5","268","no","stranger",0.414,"1"
"3","5","269","no","self",0.549,"1"
"3","5","270","yes","self",0.97,"1"
"3","5","271","yes","stranger",0.476,"1"
"3","5","272","no","stranger",0.527,"1"
"3","5","273","yes","self",0.481,"0"
"3","5","274","yes","mother",0.957,"0"
"3","5","275","no","self",0.794,"0"
"3","5","276","yes","self",0.852,"1"
"3","5","277","no","self",0.802,"1"
"3","5","278","no","self",0.722,"1"
"3","5","279","yes","self",0.635,"0"
"3","5","280","no","stranger",0.695,"1"
"3","5","281","yes","mother",0.835,"1"
"3","5","282","no","self",0.659,"1"
"3","5","283","yes","stranger",0.428,"1"
"3","5","284","yes","mother",0.806,"1"
"3","5","285","yes","mother",0.522,"1"
"3","5","286","yes","stranger",0.541,"1"
"3","5","287","no","stranger",0.551,"1"
"3","5","288","yes","mother",0.525,"1"
"3","5","289","no","mother",0.371,"0"
"3","5","290","no","stranger",0.568,"1"
"3","5","291","yes","self",0.868,"1"
"3","5","292","yes","self",0.488,"1"
"3","5","293","no","self",0.457,"1"
"3","5","294","no","stranger",0.541,"1"
"3","5","295","no","stranger",0.481,"1"
"3","5","296","yes","self",0.565,"0"
"3","5","297","yes","mother",0.581,"1"
"3","5","298","no","self",0.574,"1"
"3","5","299","yes","mother",0.612,"1"
"3","5","300","no","self",0.736,"1"
"3","6","301","yes","stranger",0.587,"1"
"3","6","302","no","stranger",0.529,"1"
"3","6","303","yes","stranger",0.525,"1"
"3","6","304","yes","mother",0.505,"1"
"3","6","305","yes","self",0.667,"1"
"3","6","306","no","self",0.71,"1"
"3","6","307","no","mother",0.502,"1"
"3","6","308","no","mother",0.606,"1"
"3","6","309","yes","self",0.696,"1"
"3","6","310","no","mother",0.565,"1"
"3","6","311","no","stranger",0.568,"1"
"3","6","312","no","self",0.945,"1"
"3","6","313","yes","self",0.395,"1"
"3","6","314","no","self",0.695,"1"
"3","6","315","yes","self",0.524,"1"
"3","6","316","yes","self",0.374,"1"
"3","6","317","no","mother",0.49,"1"
"3","6","318","no","self",0.487,"1"
"3","6","319","no","self",0.76,"1"
"3","6","320","no","stranger",0.609,"1"
"3","6","321","no","mother",0.555,"0"
"3","6","322","no","self",0.636,"1"
"3","6","323","no","stranger",0.492,"1"
"3","6","324","no","self",0.559,"1"
"3","6","325","no","stranger",0.775,"1"
"3","6","326","yes","stranger",0.707,"1"
"3","6","327","yes","stranger",0.616,"1"
"3","6","328","yes","stranger",0.619,"0"
"3","6","329","no","mother",0.506,"1"
"3","6","330","yes","mother",0.548,"1"
"3","6","331","yes","stranger",0.824,"1"
"3","6","332","no","stranger",0.504,"1"
"3","6","333","yes","stranger",1.049,"0"
"3","6","334","no","stranger",0.531,"1"
"3","6","335","no","mother",0.498,"1"
"3","6","336","no","self",0.506,"1"
"3","6","337","no","self",0.752,"1"
"3","6","338","yes","mother",0.582,"1"
"3","6","339","yes","self",0.635,"0"
"3","6","340","no","stranger",0.535,"1"
"3","6","341","yes","stranger",0.699,"0"
"3","6","342","no","stranger",0.571,"1"
"3","6","343","no","mother",0.78,"1"
"3","6","344","yes","mother",0.582,"1"
"3","6","345","yes","mother",0.508,"1"
"3","6","346","yes","self",0.342,"1"
"3","6","347","no","mother",0.588,"1"
"3","6","348","yes","mother",0.565,"1"
"3","6","349","no","mother",0.655,"1"
"3","6","350","yes","mother",0.823,"1"
"3","6","351","yes","stranger",0.46,"1"
"3","6","352","yes","self",0.896,"0"
"3","6","353","no","self",0.563,"1"
"3","6","354","yes","mother",0.605,"0"
"3","6","355","no","stranger",0.715,"1"
"3","6","356","yes","self",0.5,"1"
"3","6","357","yes","self",0.618,"1"
"3","6","358","yes","mother",0.462,"1"
"3","6","359","yes","mother",0.599,"0"
"3","6","360","yes","stranger",0.691,"1"
"4","1","1","yes","mother",0.971,"0"
"4","1","3","no","self",1.158,"1"
"4","1","4","no","self",0.824,"1"
"4","1","5","no","self",0.627,"1"
"4","1","6","yes","stranger",0.929,"1"
"4","1","7","no","self",0.827,"1"
"4","1","8","no","stranger",0.869,"1"
"4","1","9","no","mother",0.789,"1"
"4","1","10","yes","stranger",0.708,"1"
"4","1","11","no","mother",1.088,"1"
"4","1","12","no","mother",0.712,"1"
"4","1","13","yes","stranger",0.632,"1"
"4","1","14","yes","self",0.473,"1"
"4","1","15","no","stranger",0.833,"1"
"4","1","16","yes","self",0.513,"1"
"4","1","17","yes","mother",0.867,"1"
"4","1","18","no","self",0.751,"1"
"4","1","20","yes","self",0.672,"1"
"4","1","21","yes","stranger",1.008,"1"
"4","1","22","yes","mother",0.896,"1"
"4","1","23","yes","self",0.464,"1"
"4","1","24","no","stranger",0.525,"0"
"4","1","25","no","self",0.931,"1"
"4","1","27","yes","self",0.703,"1"
"4","1","28","no","mother",0.673,"1"
"4","1","29","yes","self",0.473,"1"
"4","1","30","yes","stranger",0.926,"1"
"4","1","31","yes","stranger",0.51,"1"
"4","1","32","yes","mother",0.75,"1"
"4","1","33","no","self",0.54,"1"
"4","1","34","no","self",0.654,"1"
"4","1","35","no","stranger",0.862,"1"
"4","1","36","yes","mother",0.657,"1"
"4","1","37","yes","self",0.563,"1"
"4","1","38","no","mother",0.861,"1"
"4","1","39","no","mother",0.609,"1"
"4","1","40","yes","mother",0.655,"1"
"4","1","41","yes","mother",0.852,"1"
"4","1","42","no","stranger",0.628,"0"
"4","1","43","no","stranger",0.628,"1"
"4","1","45","yes","self",0.552,"1"
"4","1","46","yes","self",0.717,"1"
"4","1","47","yes","stranger",0.783,"1"
"4","1","48","no","stranger",0.624,"1"
"4","1","49","no","mother",0.948,"0"
"4","1","50","yes","mother",0.658,"1"
"4","1","51","no","stranger",1.213,"1"
"4","1","52","no","mother",1.013,"1"
"4","1","53","yes","stranger",0.555,"0"
"4","1","54","yes","self",0.533,"1"
"4","1","55","no","stranger",0.983,"1"
"4","1","56","yes","mother",0.628,"1"
"4","1","57","yes","mother",1.066,"1"
"4","1","58","no","mother",0.578,"1"
"4","1","60","yes","stranger",0.582,"1"
"4","2","61","no","stranger",0.709,"1"
"4","2","62","yes","self",0.437,"1"
"4","2","63","yes","self",0.559,"1"
"4","2","64","no","stranger",0.824,"1"
"4","2","65","no","stranger",0.832,"1"
"4","2","66","yes","mother",0.646,"1"
"4","2","67","no","self",0.658,"1"
"4","2","68","yes","stranger",0.794,"1"
"4","2","69","yes","self",0.45,"1"
"4","2","70","yes","self",0.477,"1"
"4","2","71","yes","stranger",0.837,"1"
"4","2","72","yes","stranger",0.515,"1"
"4","2","73","no","mother",0.577,"1"
"4","2","75","no","self",0.514,"1"
"4","2","76","no","mother",0.84,"1"
"4","2","77","yes","mother",0.52,"1"
"4","2","78","no","stranger",0.719,"1"
"4","2","79","no","mother",0.853,"1"
"4","2","80","no","stranger",0.675,"1"
"4","2","81","no","self",0.625,"1"
"4","2","82","yes","self",0.663,"1"
"4","2","83","no","self",0.952,"1"
"4","2","84","yes","mother",0.73,"1"
"4","2","85","yes","stranger",0.65,"1"
"4","2","86","no","mother",0.554,"1"
"4","2","87","yes","self",0.507,"1"
"4","2","88","no","self",1.009,"1"
"4","2","90","yes","stranger",0.544,"1"
"4","2","91","yes","mother",0.696,"1"
"4","2","92","no","mother",0.649,"1"
"4","2","93","yes","self",0.443,"1"
"4","2","94","yes","stranger",0.855,"1"
"4","2","95","no","mother",0.615,"1"
"4","2","96","no","stranger",0.883,"1"
"4","2","97","yes","stranger",0.668,"1"
"4","2","98","yes","stranger",0.666,"1"
"4","2","99","no","mother",0.758,"1"
"4","2","100","no","mother",0.663,"1"
"4","2","101","yes","mother",0.645,"1"
"4","2","102","no","self",0.527,"1"
"4","2","103","yes","mother",0.679,"1"
"4","2","104","yes","self",0.549,"1"
"4","2","105","no","self",0.581,"1"
"4","2","106","no","stranger",0.726,"1"
"4","2","107","no","self",0.63,"1"
"4","2","108","no","self",0.644,"1"
"4","2","109","yes","mother",0.744,"1"
"4","2","110","yes","self",0.512,"1"
"4","2","111","yes","stranger",0.527,"1"
"4","2","112","no","stranger",0.623,"1"
"4","2","113","yes","mother",0.671,"1"
"4","2","114","no","mother",0.574,"1"
"4","2","115","no","stranger",0.978,"1"
"4","2","116","no","mother",0.584,"1"
"4","2","117","yes","mother",0.812,"1"
"4","2","118","no","self",0.584,"1"
"4","2","119","yes","mother",0.925,"1"
"4","2","120","no","stranger",0.733,"1"
"4","3","121","yes","mother",0.617,"1"
"4","3","122","no","stranger",0.701,"1"
"4","3","123","no","self",0.615,"1"
"4","3","124","yes","self",0.465,"1"
"4","3","125","no","mother",0.812,"1"
"4","3","126","no","stranger",0.66,"1"
"4","3","127","no","mother",0.778,"1"
"4","3","128","yes","self",0.488,"1"
"4","3","129","yes","mother",0.702,"1"
"4","3","130","no","mother",0.511,"1"
"4","3","131","no","mother",0.678,"1"
"4","3","132","yes","stranger",0.71,"1"
"4","3","133","yes","stranger",0.68,"1"
"4","3","134","yes","stranger",0.53,"1"
"4","3","135","yes","self",0.39,"1"
"4","3","136","no","stranger",0.546,"1"
"4","3","137","no","stranger",0.697,"1"
"4","3","138","yes","self",0.445,"1"
"4","3","139","yes","self",0.407,"1"
"4","3","140","yes","stranger",0.689,"1"
"4","3","141","yes","mother",0.716,"1"
"4","3","142","no","mother",0.618,"1"
"4","3","143","no","stranger",0.746,"1"
"4","3","144","no","self",0.64,"1"
"4","3","145","yes","stranger",0.64,"0"
"4","3","146","yes","stranger",0.785,"1"
"4","3","147","yes","mother",0.701,"1"
"4","3","148","no","stranger",1.003,"1"
"4","3","149","yes","stranger",0.611,"1"
"4","3","150","no","stranger",0.675,"1"
"4","3","151","no","stranger",0.56,"0"
"4","3","152","yes","mother",0.466,"1"
"4","3","153","yes","self",0.484,"1"
"4","3","154","no","mother",0.666,"1"
"4","3","155","yes","mother",0.742,"1"
"4","3","156","no","self",0.705,"1"
"4","3","157","no","mother",1.277,"1"
"4","3","158","yes","stranger",0.689,"1"
"4","3","159","no","mother",0.671,"1"
"4","3","160","yes","mother",0.61,"1"
"4","3","161","yes","self",0.554,"1"
"4","3","162","no","stranger",0.954,"1"
"4","3","163","yes","self",0.462,"1"
"4","3","164","yes","mother",0.557,"1"
"4","3","165","yes","self",0.419,"1"
"4","3","166","no","mother",0.693,"1"
"4","3","167","no","self",0.717,"1"
"4","3","168","no","self",0.711,"1"
"4","3","169","no","self",0.68,"1"
"4","3","170","yes","mother",0.646,"1"
"4","3","171","no","self",0.526,"1"
"4","3","172","no","self",0.588,"1"
"4","3","173","no","self",0.653,"1"
"4","3","174","no","self",0.557,"1"
"4","3","175","yes","stranger",0.779,"0"
"4","3","176","yes","self",0.679,"1"
"4","3","177","no","stranger",0.554,"1"
"4","3","178","yes","mother",0.595,"1"
"4","3","179","no","mother",0.845,"0"
"4","3","180","yes","stranger",0.543,"0"
"4","4","181","yes","stranger",0.757,"1"
"4","4","182","no","mother",0.665,"1"
"4","4","183","no","stranger",0.735,"1"
"4","4","184","no","mother",0.884,"1"
"4","4","185","yes","self",0.366,"1"
"4","4","186","yes","mother",0.732,"1"
"4","4","187","yes","self",0.99,"1"
"4","4","188","no","mother",0.63,"1"
"4","4","189","no","stranger",0.689,"1"
"4","4","190","no","mother",0.569,"1"
"4","4","191","no","stranger",0.675,"1"
"4","4","192","yes","mother",0.711,"1"
"4","4","193","yes","self",0.399,"1"
"4","4","194","no","stranger",0.669,"1"
"4","4","195","no","self",0.542,"1"
"4","4","196","no","self",0.482,"1"
"4","4","197","yes","stranger",0.62,"1"
"4","4","198","yes","stranger",0.61,"1"
"4","4","199","yes","stranger",0.532,"1"
"4","4","200","no","self",0.706,"1"
"4","4","201","no","stranger",0.965,"1"
"4","4","202","no","mother",0.633,"1"
"4","4","203","yes","stranger",0.593,"1"
"4","4","204","yes","stranger",0.493,"1"
"4","4","205","yes","mother",0.67,"1"
"4","4","206","yes","mother",0.572,"1"
"4","4","207","no","stranger",0.616,"1"
"4","4","208","no","self",0.986,"1"
"4","4","209","yes","self",0.568,"1"
"4","4","210","yes","mother",0.781,"1"
"4","4","211","yes","mother",0.591,"1"
"4","4","212","no","mother",0.637,"1"
"4","4","213","yes","self",0.511,"1"
"4","4","214","yes","stranger",0.636,"1"
"4","4","215","no","mother",0.546,"1"
"4","4","216","yes","self",0.553,"1"
"4","4","217","no","stranger",0.617,"1"
"4","4","218","yes","self",0.536,"1"
"4","4","219","no","self",0.698,"1"
"4","4","220","no","stranger",0.72,"1"
"4","4","221","yes","mother",0.804,"1"
"4","4","222","yes","stranger",1.11,"1"
"4","4","223","yes","self",0.398,"1"
"4","4","224","no","self",0.485,"1"
"4","4","225","no","self",0.633,"1"
"4","4","226","no","stranger",0.725,"1"
"4","4","227","no","self",0.639,"1"
"4","4","228","no","self",0.663,"1"
"4","4","229","yes","stranger",0.611,"1"
"4","4","230","yes","self",0.446,"1"
"4","4","231","yes","self",0.41,"1"
"4","4","232","no","stranger",0.57,"1"
"4","4","233","no","mother",0.482,"1"
"4","4","234","yes","stranger",0.65,"1"
"4","4","235","no","mother",0.581,"1"
"4","4","236","no","self",0.529,"1"
"4","4","237","yes","mother",0.655,"1"
"4","4","238","yes","mother",0.629,"1"
"4","4","239","no","mother",0.588,"1"
"4","4","240","yes","mother",0.672,"1"
"4","5","241","no","stranger",0.616,"1"
"4","5","242","no","stranger",0.648,"1"
"4","5","243","no","stranger",0.687,"1"
"4","5","244","yes","mother",0.645,"1"
"4","5","245","yes","mother",0.687,"1"
"4","5","246","yes","stranger",0.625,"1"
"4","5","247","no","mother",0.419,"0"
"4","5","248","yes","self",0.808,"1"
"4","5","249","no","mother",0.77,"1"
"4","5","250","yes","mother",0.6,"1"
"4","5","251","no","stranger",0.952,"1"
"4","5","252","no","self",0.516,"1"
"4","5","253","yes","mother",0.755,"1"
"4","5","254","yes","self",0.621,"1"
"4","5","255","yes","stranger",0.924,"1"
"4","5","256","no","mother",0.524,"1"
"4","5","257","yes","mother",0.718,"1"
"4","5","258","yes","self",0.41,"1"
"4","5","259","no","stranger",1.103,"1"
"4","5","260","no","self",0.545,"1"
"4","5","261","no","stranger",0.571,"1"
"4","5","262","yes","stranger",0.831,"1"
"4","5","263","no","self",0.609,"1"
"4","5","264","no","mother",0.947,"1"
"4","5","265","yes","self",0.46,"1"
"4","5","266","yes","self",0.416,"1"
"4","5","267","yes","mother",1.166,"1"
"4","5","268","yes","self",0.368,"1"
"4","5","269","no","self",0.556,"1"
"4","5","270","yes","stranger",0.615,"1"
"4","5","271","yes","mother",0.553,"1"
"4","5","272","no","mother",0.695,"1"
"4","5","273","yes","self",0.391,"1"
"4","5","274","yes","self",0.404,"1"
"4","5","275","no","self",0.484,"1"
"4","5","276","no","stranger",0.632,"1"
"4","5","277","yes","stranger",0.692,"1"
"4","5","278","yes","stranger",0.489,"1"
"4","5","279","no","stranger",0.773,"1"
"4","5","280","no","mother",0.963,"1"
"4","5","281","yes","mother",0.667,"1"
"4","5","282","no","mother",1.066,"1"
"4","5","283","yes","stranger",0.772,"1"
"4","5","284","no","mother",0.914,"1"
"4","5","285","no","stranger",0.63,"1"
"4","5","286","yes","stranger",0.65,"1"
"4","5","287","no","self",0.549,"1"
"4","5","288","yes","stranger",0.693,"1"
"4","5","289","no","mother",0.677,"1"
"4","5","290","yes","self",0.381,"1"
"4","5","291","yes","mother",0.619,"1"
"4","5","292","no","mother",0.508,"1"
"4","5","293","no","stranger",0.598,"1"
"4","5","294","yes","stranger",0.508,"1"
"4","5","295","no","self",0.63,"1"
"4","5","296","yes","self",0.496,"1"
"4","5","297","no","self",0.575,"1"
"4","5","298","no","self",0.841,"1"
"4","5","299","yes","mother",1.084,"1"
"4","5","300","no","self",0.786,"1"
"4","6","301","no","self",0.586,"1"
"4","6","302","no","mother",0.99,"1"
"4","6","303","no","self",0.472,"1"
"4","6","304","no","stranger",0.564,"1"
"4","6","305","no","mother",0.597,"1"
"4","6","306","no","stranger",0.657,"1"
"4","6","307","no","mother",0.459,"1"
"4","6","308","no","self",0.563,"1"
"4","6","309","yes","mother",0.543,"0"
"4","6","310","yes","mother",0.552,"1"
"4","6","311","no","stranger",0.648,"1"
"4","6","312","no","stranger",0.516,"1"
"4","6","313","yes","mother",0.626,"1"
"4","6","314","yes","self",0.552,"1"
"4","6","315","yes","mother",0.622,"1"
"4","6","316","yes","stranger",0.705,"0"
"4","6","317","yes","mother",0.517,"1"
"4","6","318","yes","stranger",0.527,"1"
"4","6","319","no","stranger",0.663,"1"
"4","6","320","no","stranger",0.763,"1"
"4","6","321","yes","self",0.428,"1"
"4","6","322","no","self",0.894,"1"
"4","6","323","yes","stranger",0.632,"1"
"4","6","324","yes","mother",0.548,"1"
"4","6","325","yes","stranger",0.487,"0"
"4","6","326","no","self",0.677,"1"
"4","6","327","yes","stranger",0.565,"1"
"4","6","328","yes","self",0.595,"1"
"4","6","329","no","mother",0.639,"1"
"4","6","330","yes","self",0.585,"1"
"4","6","331","no","self",0.758,"1"
"4","6","332","no","mother",0.84,"1"
"4","6","333","yes","self",0.594,"1"
"4","6","334","no","stranger",1.1,"1"
"4","6","335","no","mother",1.058,"1"
"4","6","336","yes","stranger",0.558,"1"
"4","6","337","yes","self",0.56,"1"
"4","6","338","yes","self",0.514,"1"
"4","6","339","no","stranger",0.75,"1"
"4","6","340","yes","stranger",0.538,"1"
"4","6","341","no","self",0.83,"1"
"4","6","342","yes","mother",0.672,"1"
"4","6","343","no","stranger",0.604,"1"
"4","6","344","yes","self",0.483,"1"
"4","6","345","no","self",0.659,"1"
"4","6","347","yes","stranger",0.605,"1"
"4","6","348","yes","mother",0.447,"1"
"4","6","349","yes","stranger",0.658,"1"
"4","6","350","yes","self",0.702,"1"
"4","6","351","no","stranger",0.722,"1"
"4","6","352","no","mother",0.726,"1"
"4","6","353","yes","mother",0.553,"1"
"4","6","354","no","self",0.691,"1"
"4","6","355","no","mother",0.657,"1"
"4","6","356","no","mother",0.569,"1"
"4","6","357","yes","stranger",0.626,"1"
"4","6","358","no","mother",0.796,"1"
"4","6","359","yes","mother",0.734,"1"
"4","6","360","no","self",0.684,"1"
"5","1","1","yes","mother",0.981,"1"
"5","1","2","yes","self",0.499,"1"
"5","1","3","yes","self",0.533,"1"
"5","1","4","no","self",0.766,"1"
"5","1","5","no","mother",0.722,"1"
"5","1","7","no","mother",0.787,"1"
"5","1","8","yes","self",0.581,"1"
"5","1","9","no","self",0.531,"1"
"5","1","10","no","self",0.687,"1"
"5","1","11","yes","stranger",0.91,"1"
"5","1","12","no","stranger",0.658,"1"
"5","1","13","no","self",0.592,"1"
"5","1","14","yes","stranger",1.048,"1"
"5","1","15","yes","stranger",0.858,"1"
"5","1","16","no","mother",0.674,"1"
"5","1","17","yes","self",0.732,"1"
"5","1","18","no","stranger",0.642,"1"
"5","1","19","no","self",0.599,"1"
"5","1","20","no","stranger",0.729,"1"
"5","1","21","yes","mother",0.648,"1"
"5","1","22","no","mother",0.552,"1"
"5","1","23","yes","stranger",0.84,"1"
"5","1","24","yes","self",0.736,"1"
"5","1","25","no","mother",0.815,"1"
"5","1","26","no","self",0.557,"1"
"5","1","27","no","mother",0.697,"1"
"5","1","28","yes","stranger",0.509,"1"
"5","1","29","yes","mother",1.033,"1"
"5","1","30","no","stranger",0.501,"1"
"5","1","31","no","mother",0.946,"1"
"5","1","32","yes","mother",0.916,"1"
"5","1","33","yes","mother",0.562,"1"
"5","1","34","no","stranger",0.746,"1"
"5","1","35","no","stranger",0.724,"1"
"5","1","36","no","mother",0.7,"1"
"5","1","37","yes","stranger",1.006,"1"
"5","1","38","no","self",1.011,"1"
"5","1","39","yes","mother",0.825,"0"
"5","1","40","yes","mother",0.539,"1"
"5","1","41","yes","self",0.535,"1"
"5","1","42","yes","self",0.527,"1"
"5","1","43","yes","self",0.572,"1"
"5","1","44","yes","self",0.546,"1"
"5","1","45","no","self",0.718,"0"
"5","1","46","no","self",0.518,"1"
"5","1","47","yes","stranger",0.936,"1"
"5","1","48","no","mother",1.007,"1"
"5","1","49","yes","mother",0.814,"1"
"5","1","50","no","mother",0.628,"1"
"5","1","51","no","stranger",0.85,"1"
"5","1","52","yes","mother",0.792,"1"
"5","1","53","yes","self",0.731,"1"
"5","1","54","no","self",0.788,"1"
"5","1","55","yes","stranger",0.902,"1"
"5","1","56","no","stranger",0.607,"1"
"5","1","57","no","stranger",0.739,"1"
"5","1","58","yes","mother",0.631,"1"
"5","1","59","yes","stranger",0.948,"1"
"5","1","60","no","stranger",0.651,"1"
"5","2","61","no","mother",0.726,"1"
"5","2","62","yes","mother",0.758,"1"
"5","2","63","no","mother",1.24,"1"
"5","2","64","no","mother",0.708,"1"
"5","2","65","no","stranger",0.679,"1"
"5","2","66","yes","mother",0.685,"1"
"5","2","67","yes","mother",0.711,"1"
"5","2","68","no","stranger",0.792,"1"
"5","2","69","no","stranger",0.642,"1"
"5","2","70","no","stranger",0.688,"1"
"5","2","71","no","mother",0.803,"0"
"5","2","72","no","stranger",0.698,"1"
"5","2","73","no","mother",0.978,"1"
"5","2","74","no","mother",0.646,"1"
"5","2","75","no","self",0.577,"1"
"5","2","76","yes","mother",0.655,"1"
"5","2","77","yes","stranger",0.821,"1"
"5","2","78","yes","stranger",0.682,"1"
"5","2","79","yes","stranger",0.636,"1"
"5","2","80","yes","stranger",0.69,"1"
"5","2","81","yes","mother",0.812,"1"
"5","2","82","yes","self",0.627,"1"
"5","2","83","yes","mother",0.851,"1"
"5","2","84","yes","self",0.575,"1"
"5","2","85","no","stranger",0.787,"1"
"5","2","86","no","self",0.64,"1"
"5","2","87","yes","mother",0.714,"1"
"5","2","88","yes","self",0.598,"1"
"5","2","89","no","stranger",0.742,"1"
"5","2","90","no","self",0.603,"1"
"5","2","91","no","self",1.163,"1"
"5","2","92","no","mother",1.047,"1"
"5","2","93","yes","stranger",0.845,"1"
"5","2","94","yes","self",0.56,"1"
"5","2","95","yes","stranger",1.216,"1"
"5","2","96","yes","stranger",0.526,"1"
"5","2","97","no","stranger",1.098,"1"
"5","2","98","no","self",0.575,"1"
"5","2","99","yes","stranger",0.823,"1"
"5","2","100","no","mother",0.607,"1"
"5","2","101","yes","self",0.932,"1"
"5","2","102","no","mother",0.777,"1"
"5","2","103","yes","self",0.431,"1"
"5","2","104","yes","self",0.517,"1"
"5","2","105","no","stranger",0.609,"1"
"5","2","106","yes","mother",0.604,"1"
"5","2","107","no","self",0.532,"1"
"5","2","108","no","self",0.708,"1"
"5","2","109","yes","self",0.787,"0"
"5","2","110","no","self",0.515,"1"
"5","2","111","yes","self",0.571,"1"
"5","2","112","yes","self",0.531,"1"
"5","2","113","no","stranger",0.852,"1"
"5","2","114","yes","mother",0.558,"0"
"5","2","115","no","self",1.054,"1"
"5","2","116","no","mother",1.126,"1"
"5","2","117","yes","mother",0.767,"1"
"5","2","118","yes","stranger",0.863,"1"
"5","2","119","no","self",0.895,"1"
"5","2","120","yes","stranger",0.834,"1"
"5","3","121","no","stranger",0.961,"1"
"5","3","122","no","self",1.185,"1"
"5","3","123","yes","stranger",0.766,"1"
"5","3","124","no","self",0.644,"1"
"5","3","125","yes","self",0.564,"1"
"5","3","126","yes","mother",1.044,"1"
"5","3","127","yes","mother",0.488,"1"
"5","3","128","yes","stranger",0.974,"1"
"5","3","129","yes","stranger",0.504,"1"
"5","3","130","yes","self",0.719,"1"
"5","3","131","yes","stranger",0.699,"1"
"5","3","132","yes","stranger",0.817,"1"
"5","3","133","no","mother",0.598,"0"
"5","3","134","yes","self",0.516,"1"
"5","3","135","no","stranger",0.922,"1"
"5","3","136","no","mother",0.678,"1"
"5","3","137","no","mother",0.747,"1"
"5","3","138","yes","self",0.577,"1"
"5","3","139","no","stranger",0.633,"1"
"5","3","140","yes","self",0.605,"1"
"5","3","141","no","self",0.602,"1"
"5","3","142","no","self",0.544,"1"
"5","3","143","no","self",0.852,"1"
"5","3","144","yes","mother",0.508,"1"
"5","3","145","no","self",0.595,"1"
"5","3","146","yes","stranger",0.683,"1"
"5","3","147","no","mother",0.787,"1"
"5","3","148","no","self",0.675,"1"
"5","3","149","yes","mother",0.902,"1"
"5","3","150","no","mother",0.544,"1"
"5","3","151","yes","mother",0.836,"1"
"5","3","152","no","mother",0.752,"1"
"5","3","153","yes","stranger",0.549,"1"
"5","3","154","no","stranger",0.737,"1"
"5","3","155","no","self",0.974,"1"
"5","3","156","yes","mother",0.705,"1"
"5","3","157","no","stranger",0.723,"1"
"5","3","158","yes","mother",0.573,"1"
"5","3","159","yes","self",0.599,"1"
"5","3","160","yes","stranger",1.048,"1"
"5","3","161","yes","self",0.554,"1"
"5","3","162","yes","mother",0.684,"1"
"5","3","163","no","stranger",0.828,"1"
"5","3","164","no","stranger",0.731,"1"
"5","3","165","yes","stranger",0.707,"1"
"5","3","166","no","mother",0.671,"1"
"5","3","167","yes","self",0.577,"1"
"5","3","168","no","stranger",1.098,"0"
"5","3","169","yes","mother",0.772,"1"
"5","3","171","no","mother",0.834,"1"
"5","3","172","no","stranger",1.001,"1"
"5","3","173","no","mother",0.929,"1"
"5","3","174","no","self",0.603,"1"
"5","3","175","yes","self",0.688,"1"
"5","3","176","no","mother",0.614,"1"
"5","3","177","yes","self",0.632,"1"
"5","3","178","no","self",0.604,"1"
"5","3","179","yes","stranger",0.648,"1"
"5","3","180","yes","mother",0.795,"1"
"5","4","181","yes","stranger",0.722,"1"
"5","4","182","yes","mother",0.994,"1"
"5","4","183","no","self",0.962,"1"
"5","4","184","yes","stranger",0.68,"1"
"5","4","185","no","mother",0.718,"1"
"5","4","187","no","mother",0.635,"1"
"5","4","188","no","self",0.827,"1"
"5","4","189","no","mother",0.531,"0"
"5","4","190","yes","self",0.538,"1"
"5","4","191","yes","mother",0.976,"1"
"5","4","192","no","stranger",0.89,"1"
"5","4","193","yes","stranger",0.782,"1"
"5","4","194","yes","mother",0.837,"1"
"5","4","195","no","self",0.605,"1"
"5","4","196","yes","self",0.603,"1"
"5","4","197","no","mother",0.681,"1"
"5","4","198","no","mother",1.042,"1"
"5","4","199","yes","mother",0.666,"1"
"5","4","200","yes","stranger",0.782,"1"
"5","4","201","yes","mother",0.6,"1"
"5","4","202","no","self",0.663,"1"
"5","4","203","yes","self",0.977,"1"
"5","4","204","yes","stranger",0.735,"1"
"5","4","205","no","self",0.63,"1"
"5","4","206","yes","stranger",0.908,"1"
"5","4","207","no","self",0.538,"1"
"5","4","209","no","stranger",0.641,"1"
"5","4","210","no","self",0.595,"1"
"5","4","211","no","mother",0.743,"1"
"5","4","212","no","stranger",0.946,"1"
"5","4","213","yes","self",0.545,"1"
"5","4","214","yes","stranger",0.673,"1"
"5","4","215","yes","self",0.773,"1"
"5","4","216","yes","mother",0.856,"1"
"5","4","217","no","mother",0.66,"1"
"5","4","218","yes","self",0.506,"1"
"5","4","219","yes","mother",0.72,"1"
"5","4","220","no","stranger",0.843,"1"
"5","4","221","yes","stranger",0.895,"1"
"5","4","222","no","mother",0.781,"1"
"5","4","223","no","mother",0.63,"1"
"5","4","224","yes","mother",0.658,"1"
"5","4","225","yes","stranger",0.736,"1"
"5","4","226","no","stranger",0.556,"1"
"5","4","227","yes","mother",0.703,"1"
"5","4","228","no","self",0.589,"1"
"5","4","229","yes","stranger",0.671,"1"
"5","4","230","yes","mother",0.884,"1"
"5","4","231","yes","self",0.598,"1"
"5","4","232","yes","self",0.808,"1"
"5","4","233","no","stranger",0.602,"1"
"5","4","234","no","stranger",0.696,"1"
"5","4","235","no","stranger",0.785,"1"
"5","4","236","no","self",0.597,"1"
"5","4","237","yes","self",0.585,"1"
"5","4","238","no","mother",0.606,"1"
"5","4","239","no","stranger",0.712,"1"
"5","4","240","no","self",0.564,"1"
"5","5","241","no","self",0.595,"1"
"5","5","242","yes","stranger",0.879,"1"
"5","5","243","yes","self",0.541,"1"
"5","5","244","yes","stranger",0.634,"1"
"5","5","245","yes","stranger",0.542,"1"
"5","5","246","no","self",0.59,"1"
"5","5","247","no","self",0.564,"1"
"5","5","248","no","self",0.587,"1"
"5","5","249","yes","self",0.551,"1"
"5","5","250","yes","self",0.597,"1"
"5","5","251","yes","stranger",0.582,"1"
"5","5","252","yes","mother",0.572,"1"
"5","5","253","yes","mother",0.502,"1"
"5","5","254","no","mother",0.584,"1"
"5","5","255","yes","mother",0.618,"1"
"5","5","256","no","mother",0.605,"1"
"5","5","257","yes","mother",0.553,"1"
"5","5","258","yes","self",0.487,"1"
"5","5","259","yes","self",0.499,"1"
"5","5","260","no","mother",0.628,"1"
"5","5","261","no","mother",0.59,"1"
"5","5","262","no","self",0.602,"1"
"5","5","263","yes","mother",0.593,"1"
"5","5","264","no","mother",0.539,"1"
"5","5","265","no","stranger",0.597,"1"
"5","5","266","no","self",0.541,"1"
"5","5","267","yes","stranger",0.862,"1"
"5","5","268","no","stranger",0.607,"1"
"5","5","269","yes","mother",0.705,"1"
"5","5","270","no","stranger",0.54,"1"
"5","5","271","yes","self",0.486,"1"
"5","5","272","no","mother",0.654,"1"
"5","5","273","yes","mother",0.783,"1"
"5","5","274","no","mother",0.533,"1"
"5","5","275","no","mother",0.655,"1"
"5","5","276","yes","stranger",0.62,"1"
"5","5","277","no","mother",0.59,"1"
"5","5","278","no","self",0.558,"1"
"5","5","279","no","stranger",0.67,"1"
"5","5","280","yes","self",0.477,"1"
"5","5","281","yes","self",0.531,"1"
"5","5","282","no","stranger",0.621,"1"
"5","5","283","yes","stranger",0.667,"1"
"5","5","284","yes","stranger",0.62,"1"
"5","5","285","yes","mother",0.618,"1"
"5","5","286","no","stranger",0.624,"1"
"5","5","287","no","mother",0.781,"1"
"5","5","288","no","self",0.555,"1"
"5","5","289","no","stranger",0.893,"1"
"5","5","290","no","self",0.557,"1"
"5","5","291","no","stranger",0.687,"1"
"5","5","292","yes","stranger",0.62,"1"
"5","5","293","yes","stranger",0.604,"1"
"5","5","294","yes","self",0.53,"1"
"5","5","295","yes","self",0.564,"1"
"5","5","296","no","stranger",0.539,"1"
"5","5","297","yes","mother",0.507,"1"
"5","5","298","yes","mother",0.622,"1"
"5","5","299","no","stranger",0.632,"1"
"5","5","300","no","self",0.566,"1"
"5","6","301","yes","self",0.591,"1"
"5","6","302","yes","self",0.49,"1"
"5","6","303","no","mother",0.55,"1"
"5","6","304","no","stranger",0.566,"1"
"5","6","305","no","mother",0.566,"1"
"5","6","306","no","self",0.857,"1"
"5","6","307","yes","mother",0.467,"1"
"5","6","308","no","mother",0.509,"1"
"5","6","309","yes","self",0.545,"1"
"5","6","310","no","self",0.554,"1"
"5","6","311","no","self",0.546,"1"
"5","6","312","yes","mother",0.486,"1"
"5","6","313","yes","mother",0.488,"1"
"5","6","314","no","mother",0.505,"1"
"5","6","315","yes","self",0.619,"1"
"5","6","316","no","mother",0.745,"1"
"5","6","317","yes","stranger",0.601,"1"
"5","6","318","no","mother",0.568,"1"
"5","6","319","no","self",0.536,"1"
"5","6","320","no","mother",0.53,"1"
"5","6","321","yes","stranger",0.75,"1"
"5","6","322","yes","stranger",0.477,"1"
"5","6","323","no","mother",0.686,"1"
"5","6","324","yes","self",0.448,"1"
"5","6","325","yes","mother",0.82,"1"
"5","6","326","no","stranger",0.563,"1"
"5","6","327","no","stranger",0.623,"1"
"5","6","328","no","stranger",0.629,"1"
"5","6","329","no","stranger",0.571,"1"
"5","6","330","yes","mother",0.64,"1"
"5","6","331","yes","stranger",0.836,"1"
"5","6","332","no","self",0.656,"1"
"5","6","333","no","mother",0.768,"1"
"5","6","334","yes","self",0.477,"1"
"5","6","335","yes","stranger",0.545,"1"
"5","6","336","no","stranger",0.566,"1"
"5","6","337","yes","stranger",0.816,"1"
"5","6","338","yes","self",0.566,"1"
"5","6","339","yes","stranger",0.522,"0"
"5","6","340","no","stranger",0.707,"1"
"5","6","341","no","self",0.595,"1"
"5","6","342","yes","stranger",0.615,"1"
"5","6","343","no","stranger",0.567,"1"
"5","6","344","no","stranger",0.844,"0"
"5","6","345","no","self",0.546,"1"
"5","6","346","yes","mother",0.77,"1"
"5","6","347","yes","stranger",0.763,"1"
"5","6","348","no","self",0.601,"1"
"5","6","349","yes","self",0.515,"1"
"5","6","350","yes","self",0.633,"1"
"5","6","351","no","mother",0.996,"1"
"5","6","352","yes","mother",0.627,"1"
"5","6","353","no","self",0.589,"1"
"5","6","354","yes","self",0.635,"1"
"5","6","355","yes","mother",0.85,"1"
"5","6","356","yes","mother",0.558,"1"
"5","6","357","yes","stranger",0.786,"1"
"5","6","358","no","self",0.905,"1"
"5","6","359","no","stranger",0.647,"1"
"5","6","360","yes","mother",0.551,"1"
"6","1","1","yes","self",0.924,"0"
"6","1","6","yes","stranger",1.003,"0"
"6","1","7","no","mother",0.952,"0"
"6","1","8","no","stranger",0.682,"1"
"6","1","9","no","stranger",1.132,"1"
"6","1","10","no","mother",1.036,"1"
"6","1","11","yes","mother",1.057,"1"
"6","1","14","no","stranger",0.767,"1"
"6","1","16","no","stranger",0.866,"1"
"6","1","17","no","stranger",1.262,"1"
"6","1","18","no","self",0.842,"1"
"6","1","19","no","mother",0.802,"1"
"6","1","21","yes","stranger",0.825,"1"
"6","1","22","no","mother",0.812,"1"
"6","1","23","yes","mother",1.202,"1"
"6","1","26","yes","mother",0.825,"1"
"6","1","27","yes","self",0.681,"1"
"6","1","28","yes","self",0.659,"1"
"6","1","29","yes","self",0.471,"1"
"6","1","30","no","self",0.596,"1"
"6","1","31","no","self",0.758,"1"
"6","1","32","no","self",0.716,"1"
"6","1","33","no","self",0.882,"1"
"6","1","34","no","self",0.893,"1"
"6","1","35","yes","mother",0.849,"1"
"6","1","36","no","self",1.009,"0"
"6","1","37","no","stranger",0.981,"1"
"6","1","38","no","stranger",0.747,"1"
"6","1","39","no","stranger",0.798,"1"
"6","1","40","yes","stranger",1.164,"1"
"6","1","41","no","mother",1.006,"1"
"6","1","43","yes","stranger",0.878,"1"
"6","1","44","yes","stranger",1.037,"1"
"6","1","45","no","stranger",0.739,"1"
"6","1","48","no","mother",1.369,"1"
"6","1","49","yes","mother",0.827,"1"
"6","1","51","yes","mother",1.078,"1"
"6","1","52","yes","mother",0.772,"1"
"6","1","53","no","self",0.669,"1"
"6","1","54","yes","self",0.789,"1"
"6","1","55","no","self",0.905,"1"
"6","1","56","no","mother",0.909,"0"
"6","1","57","yes","self",0.425,"1"
"6","1","59","no","self",0.594,"1"
"6","1","60","yes","stranger",1.034,"1"
"6","2","61","yes","mother",0.745,"1"
"6","2","62","yes","self",0.753,"1"
"6","2","63","yes","mother",0.642,"1"
"6","2","64","yes","stranger",0.91,"1"
"6","2","65","no","stranger",0.726,"1"
"6","2","66","yes","self",0.526,"1"
"6","2","67","yes","self",0.543,"1"
"6","2","68","no","self",0.791,"1"
"6","2","69","yes","stranger",1.04,"1"
"6","2","70","yes","mother",0.586,"1"
"6","2","71","yes","self",0.506,"1"
"6","2","72","no","mother",0.602,"1"
"6","2","73","no","stranger",0.981,"1"
"6","2","74","yes","stranger",0.753,"1"
"6","2","75","yes","self",0.713,"1"
"6","2","76","yes","self",0.619,"1"
"6","2","77","yes","mother",1.183,"1"
"6","2","78","no","mother",0.708,"1"
"6","2","79","no","stranger",0.91,"1"
"6","2","80","yes","stranger",0.808,"1"
"6","2","81","no","mother",0.676,"1"
"6","2","82","yes","self",0.986,"1"
"6","2","83","no","mother",0.825,"1"
"6","2","84","yes","stranger",1.165,"1"
"6","2","85","yes","mother",0.861,"1"
"6","2","86","yes","self",0.539,"1"
"6","2","88","no","stranger",0.858,"1"
"6","2","89","yes","mother",0.66,"1"
"6","2","90","no","self",0.978,"1"
"6","2","92","yes","stranger",0.665,"1"
"6","2","93","no","mother",0.729,"1"
"6","2","94","yes","stranger",1.259,"1"
"6","2","95","yes","self",0.729,"1"
"6","2","96","yes","mother",0.929,"1"
"6","2","97","yes","stranger",0.831,"1"
"6","2","98","no","stranger",0.596,"1"
"6","2","99","yes","mother",0.67,"0"
"6","2","100","no","self",1.02,"0"
"6","2","101","no","self",0.914,"0"
"6","2","103","no","self",0.863,"1"
"6","2","104","no","self",1.205,"1"
"6","2","105","yes","stranger",0.665,"0"
"6","2","106","yes","mother",0.805,"1"
"6","2","107","yes","mother",0.668,"1"
"6","2","108","no","stranger",1.116,"1"
"6","2","109","no","self",0.758,"1"
"6","2","110","no","stranger",1.212,"1"
"6","2","111","no","self",0.826,"1"
"6","2","112","no","mother",0.718,"1"
"6","2","113","no","stranger",0.956,"1"
"6","2","114","no","mother",0.68,"1"
"6","2","115","no","mother",0.642,"1"
"6","2","116","yes","self",0.812,"1"
"6","2","117","no","mother",0.652,"1"
"6","2","120","no","stranger",0.667,"1"
"6","3","121","yes","self",0.548,"1"
"6","3","122","no","stranger",0.718,"1"
"6","3","123","yes","self",0.855,"1"
"6","3","124","no","self",0.559,"1"
"6","3","125","yes","stranger",0.759,"1"
"6","3","126","no","mother",0.697,"1"
"6","3","127","yes","self",0.897,"1"
"6","3","128","yes","mother",0.698,"1"
"6","3","129","yes","mother",0.564,"1"
"6","3","130","yes","mother",0.562,"1"
"6","3","131","yes","mother",0.54,"1"
"6","3","132","yes","self",0.659,"1"
"6","3","133","yes","stranger",0.689,"1"
"6","3","134","no","self",0.859,"1"
"6","3","135","yes","self",1.019,"1"
"6","3","136","no","stranger",0.752,"1"
"6","3","137","no","stranger",1.073,"1"
"6","3","138","no","stranger",0.749,"1"
"6","3","139","yes","self",0.519,"1"
"6","3","140","no","self",0.733,"1"
"6","3","141","no","self",0.696,"1"
"6","3","142","yes","self",0.772,"1"
"6","3","143","yes","stranger",0.86,"1"
"6","3","144","no","mother",0.84,"1"
"6","3","145","no","self",0.726,"0"
"6","3","146","no","stranger",0.893,"1"
"6","3","147","no","mother",0.675,"1"
"6","3","148","no","mother",0.781,"1"
"6","3","149","yes","stranger",0.935,"1"
"6","3","150","no","mother",0.954,"1"
"6","3","151","yes","self",0.486,"1"
"6","3","152","yes","stranger",0.846,"1"
"6","3","153","yes","stranger",0.784,"1"
"6","3","154","no","stranger",0.648,"1"
"6","3","155","no","self",0.836,"1"
"6","3","156","no","mother",0.491,"0"
"6","3","157","yes","stranger",0.723,"1"
"6","3","158","no","mother",0.791,"1"
"6","3","159","no","stranger",0.857,"1"
"6","3","160","yes","mother",0.847,"1"
"6","3","161","no","self",0.75,"1"
"6","3","162","yes","mother",0.954,"1"
"6","3","163","no","stranger",0.732,"1"
"6","3","164","yes","self",0.85,"1"
"6","3","165","yes","mother",0.616,"1"
"6","3","166","yes","stranger",0.975,"1"
"6","3","167","yes","stranger",0.651,"1"
"6","3","168","no","self",0.629,"1"
"6","3","169","no","self",0.917,"1"
"6","3","170","no","mother",0.674,"1"
"6","3","171","no","self",0.66,"1"
"6","3","172","yes","self",0.846,"0"
"6","3","173","no","mother",0.692,"1"
"6","3","174","no","stranger",0.777,"1"
"6","3","175","no","mother",0.569,"1"
"6","3","176","yes","mother",0.527,"1"
"6","3","177","yes","stranger",0.677,"1"
"6","3","178","no","stranger",0.577,"1"
"6","3","179","yes","mother",0.53,"1"
"6","3","180","yes","mother",0.536,"1"
"6","4","181","no","stranger",0.716,"1"
"6","4","182","no","self",0.558,"1"
"6","4","183","yes","self",0.52,"1"
"6","4","184","no","stranger",0.638,"1"
"6","4","185","yes","self",0.739,"1"
"6","4","186","yes","self",0.541,"1"
"6","4","187","yes","stranger",0.625,"1"
"6","4","188","no","mother",0.559,"1"
"6","4","189","yes","mother",0.423,"1"
"6","4","190","no","mother",0.68,"1"
"6","4","191","yes","self",0.636,"1"
"6","4","192","no","stranger",0.596,"1"
"6","4","193","no","stranger",0.784,"1"
"6","4","194","no","self",0.566,"0"
"6","4","195","yes","mother",0.488,"1"
"6","4","196","yes","mother",0.471,"1"
"6","4","197","yes","stranger",0.619,"1"
"6","4","198","no","self",0.581,"1"
"6","4","199","yes","stranger",0.503,"1"
"6","4","200","yes","mother",0.426,"1"
"6","4","201","yes","stranger",0.698,"1"
"6","4","202","no","self",0.752,"1"
"6","4","203","yes","mother",0.6,"1"
"6","4","204","yes","mother",0.449,"1"
"6","4","205","yes","mother",0.379,"1"
"6","4","206","yes","stranger",0.595,"1"
"6","4","207","yes","self",0.641,"0"
"6","4","208","no","stranger",0.782,"1"
"6","4","209","yes","stranger",0.708,"1"
"6","4","210","no","mother",0.676,"1"
"6","4","211","no","mother",0.598,"1"
"6","4","212","no","stranger",0.891,"1"
"6","4","213","yes","self",0.563,"0"
"6","4","215","yes","stranger",0.645,"1"
"6","4","216","yes","stranger",0.735,"1"
"6","4","217","yes","stranger",0.543,"1"
"6","4","218","no","mother",0.7,"1"
"6","4","219","no","self",0.836,"1"
"6","4","220","yes","stranger",0.648,"1"
"6","4","221","no","stranger",0.702,"1"
"6","4","222","yes","self",0.468,"1"
"6","4","223","no","self",0.633,"1"
"6","4","224","no","stranger",0.611,"1"
"6","4","225","no","mother",0.572,"1"
"6","4","226","no","self",0.524,"1"
"6","4","227","yes","mother",0.482,"1"
"6","4","228","no","self",0.745,"1"
"6","4","229","no","mother",0.627,"1"
"6","4","230","no","mother",0.745,"1"
"6","4","231","yes","mother",0.492,"1"
"6","4","232","no","mother",0.518,"1"
"6","4","233","yes","self",0.492,"1"
"6","4","234","no","self",0.628,"1"
"6","4","235","no","self",0.712,"0"
"6","4","236","no","stranger",0.552,"1"
"6","4","237","no","stranger",0.581,"1"
"6","4","238","yes","mother",0.579,"1"
"6","4","239","no","mother",0.549,"1"
"6","4","240","yes","self",0.727,"1"
"6","5","241","no","self",0.632,"1"
"6","5","242","yes","mother",0.476,"1"
"6","5","243","no","stranger",0.607,"1"
"6","5","244","yes","stranger",0.471,"1"
"6","5","245","no","stranger",0.523,"1"
"6","5","246","yes","self",0.583,"1"
"6","5","247","no","self",0.82,"1"
"6","5","248","yes","mother",0.394,"1"
"6","5","249","yes","mother",0.503,"1"
"6","5","250","yes","self",0.749,"1"
"6","5","251","yes","stranger",0.639,"1"
"6","5","252","yes","self",0.806,"1"
"6","5","253","no","self",0.728,"1"
"6","5","254","yes","mother",0.446,"1"
"6","5","255","yes","stranger",0.522,"1"
"6","5","256","no","mother",0.531,"1"
"6","5","257","yes","self",0.585,"1"
"6","5","258","yes","self",0.483,"1"
"6","5","259","no","stranger",0.397,"1"
"6","5","260","yes","stranger",0.512,"0"
"6","5","261","yes","self",0.472,"1"
"6","5","262","no","mother",0.622,"1"
"6","5","263","no","mother",0.576,"1"
"6","5","264","no","mother",0.526,"1"
"6","5","265","yes","self",0.503,"1"
"6","5","266","yes","mother",0.585,"1"
"6","5","267","no","mother",0.611,"1"
"6","5","268","no","mother",0.717,"1"
"6","5","270","yes","stranger",0.55,"1"
"6","5","271","yes","stranger",0.704,"1"
"6","5","272","no","self",0.79,"1"
"6","5","273","no","stranger",0.626,"1"
"6","5","274","no","stranger",0.64,"0"
"6","5","276","yes","mother",0.621,"1"
"6","5","277","yes","stranger",0.605,"1"
"6","5","278","no","mother",0.497,"1"
"6","5","279","no","self",0.706,"1"
"6","5","280","yes","mother",0.5,"1"
"6","5","281","no","stranger",0.464,"1"
"6","5","282","yes","stranger",0.474,"1"
"6","5","283","yes","stranger",0.5,"1"
"6","5","284","yes","self",0.451,"0"
"6","5","285","no","self",0.693,"1"
"6","5","286","yes","self",0.657,"1"
"6","5","287","no","mother",0.417,"1"
"6","5","288","no","stranger",0.648,"1"
"6","5","289","yes","self",0.616,"1"
"6","5","290","yes","mother",0.404,"1"
"6","5","291","yes","mother",0.543,"1"
"6","5","292","no","self",0.467,"1"
"6","5","293","yes","mother",0.775,"1"
"6","5","295","yes","stranger",0.555,"0"
"6","5","296","no","self",0.751,"1"
"6","5","297","no","mother",0.773,"1"
"6","5","298","no","stranger",0.501,"0"
"6","5","299","no","mother",0.549,"1"
"6","5","300","no","self",0.641,"1"
"6","6","301","no","self",0.756,"1"
"6","6","302","yes","stranger",0.625,"1"
"6","6","303","no","mother",0.439,"1"
"6","6","304","no","mother",0.705,"1"
"6","6","305","yes","mother",0.471,"1"
"6","6","306","no","stranger",0.501,"1"
"6","6","307","no","stranger",0.876,"1"
"6","6","308","no","mother",0.806,"1"
"6","6","309","no","self",0.96,"1"
"6","6","310","yes","stranger",0.648,"1"
"6","6","311","yes","self",0.503,"1"
"6","6","312","no","self",0.507,"1"
"6","6","313","yes","stranger",0.863,"1"
"6","6","314","yes","stranger",0.515,"1"
"6","6","315","yes","mother",0.592,"1"
"6","6","316","no","mother",0.592,"1"
"6","6","317","no","self",0.56,"0"
"6","6","318","yes","self",0.726,"1"
"6","6","319","yes","self",0.674,"1"
"6","6","320","yes","self",0.513,"1"
"6","6","321","no","stranger",0.509,"1"
"6","6","322","no","stranger",0.477,"0"
"6","6","323","yes","stranger",0.747,"1"
"6","6","324","yes","mother",0.549,"1"
"6","6","325","yes","mother",0.401,"1"
"6","6","326","yes","mother",0.423,"1"
"6","6","327","yes","mother",0.376,"1"
"6","6","328","yes","stranger",0.454,"1"
"6","6","329","yes","self",0.538,"0"
"6","6","330","no","mother",0.746,"1"
"6","6","331","no","self",0.74,"1"
"6","6","332","yes","self",0.927,"1"
"6","6","333","no","self",0.499,"1"
"6","6","334","no","stranger",0.961,"1"
"6","6","336","no","self",0.566,"1"
"6","6","337","yes","self",0.677,"1"
"6","6","338","yes","stranger",0.809,"1"
"6","6","339","yes","mother",0.533,"1"
"6","6","340","yes","stranger",0.545,"1"
"6","6","341","yes","stranger",0.965,"0"
"6","6","342","yes","mother",0.532,"1"
"6","6","343","no","mother",1.026,"1"
"6","6","344","no","self",0.542,"1"
"6","6","345","no","mother",0.652,"1"
"6","6","346","yes","self",0.962,"0"
"6","6","347","no","mother",0.649,"1"
"6","6","348","no","mother",0.469,"1"
"6","6","349","yes","mother",0.503,"1"
"6","6","350","no","stranger",0.967,"1"
"6","6","351","no","self",0.709,"1"
"6","6","352","no","self",0.888,"1"
"6","6","353","yes","stranger",0.472,"1"
"6","6","354","no","stranger",0.502,"1"
"6","6","355","no","mother",0.68,"1"
"6","6","356","no","stranger",0.998,"1"
"6","6","357","yes","self",0.462,"1"
"6","6","358","yes","self",0.681,"1"
"6","6","359","yes","mother",0.459,"1"
"6","6","360","no","stranger",0.613,"1"
"7","1","3","no","stranger",0.674,"1"
"7","1","4","no","mother",1.269,"1"
"7","1","5","no","self",0.737,"1"
"7","1","6","no","self",0.865,"1"
"7","1","7","yes","stranger",0.836,"1"
"7","1","8","yes","stranger",0.636,"0"
"7","1","9","yes","stranger",0.88,"1"
"7","1","10","yes","self",0.601,"1"
"7","1","11","no","self",0.698,"1"
"7","1","14","yes","self",0.547,"1"
"7","1","15","yes","self",0.533,"1"
"7","1","16","yes","mother",0.664,"1"
"7","1","17","yes","mother",0.589,"1"
"7","1","18","yes","mother",0.517,"1"
"7","1","19","no","stranger",0.66,"1"
"7","1","20","yes","self",0.516,"1"
"7","1","21","yes","self",0.46,"1"
"7","1","22","yes","stranger",0.781,"1"
"7","1","23","no","stranger",0.623,"1"
"7","1","24","yes","mother",1.092,"1"
"7","1","25","yes","self",0.459,"1"
"7","1","26","yes","self",0.477,"1"
"7","1","27","yes","mother",0.907,"1"
"7","1","28","yes","stranger",0.711,"1"
"7","1","29","no","mother",1.03,"0"
"7","1","30","yes","mother",1.017,"1"
"7","1","31","no","self",0.595,"1"
"7","1","32","no","mother",0.978,"0"
"7","1","33","no","stranger",1.233,"1"
"7","1","34","no","self",0.707,"1"
"7","1","35","yes","mother",0.889,"1"
"7","1","36","yes","self",0.592,"1"
"7","1","37","yes","mother",0.69,"1"
"7","1","38","no","stranger",0.638,"1"
"7","1","39","no","mother",1.392,"1"
"7","1","40","no","stranger",0.79,"1"
"7","1","41","no","self",0.664,"1"
"7","1","42","no","self",1.264,"1"
"7","1","43","no","stranger",0.647,"1"
"7","1","44","no","mother",0.991,"1"
"7","1","46","no","stranger",0.683,"1"
"7","1","47","yes","stranger",0.845,"1"
"7","1","48","no","self",0.689,"1"
"7","1","49","no","mother",0.827,"1"
"7","1","50","yes","mother",1.132,"1"
"7","1","51","no","mother",0.732,"1"
"7","1","52","no","mother",1.014,"1"
"7","1","53","yes","stranger",0.994,"1"
"7","1","54","yes","stranger",0.836,"1"
"7","1","55","yes","stranger",0.683,"1"
"7","1","56","no","stranger",0.703,"1"
"7","1","57","no","self",0.891,"1"
"7","1","58","no","self",0.672,"1"
"7","1","59","yes","self",0.69,"1"
"7","1","60","yes","self",0.511,"1"
"7","2","61","yes","self",1.033,"1"
"7","2","63","no","mother",0.666,"1"
"7","2","64","no","mother",0.92,"0"
"7","2","65","yes","mother",0.814,"1"
"7","2","66","yes","mother",0.717,"1"
"7","2","67","no","mother",0.55,"1"
"7","2","68","no","stranger",0.786,"1"
"7","2","69","yes","stranger",0.775,"1"
"7","2","70","yes","self",0.533,"1"
"7","2","71","no","stranger",0.756,"1"
"7","2","73","no","self",0.694,"1"
"7","2","74","yes","stranger",0.79,"1"
"7","2","75","no","self",1.02,"1"
"7","2","76","yes","stranger",0.797,"1"
"7","2","77","no","self",1.226,"1"
"7","2","78","no","self",0.763,"1"
"7","2","79","no","self",1.018,"1"
"7","2","80","yes","stranger",0.691,"1"
"7","2","81","no","mother",0.993,"1"
"7","2","82","yes","self",0.524,"1"
"7","2","83","yes","self",0.484,"1"
"7","2","84","yes","mother",1.056,"1"
"7","2","85","no","mother",0.617,"1"
"7","2","86","yes","self",0.621,"1"
"7","2","87","no","mother",1.199,"1"
"7","2","88","no","stranger",0.915,"1"
"7","2","89","yes","mother",0.785,"1"
"7","2","90","yes","mother",0.485,"1"
"7","2","91","yes","stranger",0.976,"0"
"7","2","92","yes","mother",1.052,"1"
"7","2","93","no","self",0.913,"1"
"7","2","94","no","stranger",0.712,"1"
"7","2","95","yes","self",0.506,"1"
"7","2","98","yes","stranger",0.912,"1"
"7","2","99","no","mother",0.783,"1"
"7","2","100","no","self",1.104,"1"
"7","2","101","yes","stranger",0.613,"0"
"7","2","102","yes","mother",0.853,"1"
"7","2","103","no","stranger",0.707,"1"
"7","2","104","no","stranger",0.765,"1"
"7","2","105","no","stranger",0.808,"1"
"7","2","106","no","mother",0.806,"1"
"7","2","107","no","self",1.028,"1"
"7","2","108","no","stranger",0.86,"1"
"7","2","109","yes","self",0.522,"1"
"7","2","110","yes","self",0.494,"1"
"7","2","111","yes","self",0.446,"1"
"7","2","112","no","stranger",0.721,"1"
"7","2","113","yes","stranger",0.743,"1"
"7","2","114","no","mother",1.058,"1"
"7","2","115","yes","self",0.528,"1"
"7","2","118","yes","stranger",0.576,"0"
"7","2","119","yes","mother",0.949,"1"
"7","2","120","no","self",0.669,"1"
"7","3","121","no","mother",0.938,"1"
"7","3","123","yes","stranger",1.194,"0"
"7","3","124","no","self",0.665,"1"
"7","3","125","no","mother",0.621,"0"
"7","3","126","yes","mother",0.888,"1"
"7","3","128","yes","mother",0.919,"1"
"7","3","129","no","mother",0.981,"1"
"7","3","130","no","stranger",0.75,"1"
"7","3","131","yes","self",0.711,"1"
"7","3","132","yes","mother",0.894,"1"
"7","3","133","yes","self",0.582,"1"
"7","3","134","no","mother",0.934,"1"
"7","3","135","yes","self",0.516,"1"
"7","3","136","yes","mother",0.696,"1"
"7","3","137","yes","mother",0.786,"1"
"7","3","138","yes","mother",0.581,"1"
"7","3","139","yes","self",0.731,"1"
"7","3","140","no","stranger",0.657,"1"
"7","3","141","no","stranger",0.747,"1"
"7","3","142","no","self",0.771,"1"
"7","3","143","yes","stranger",0.779,"1"
"7","3","144","no","stranger",0.68,"1"
"7","3","145","no","stranger",0.995,"1"
"7","3","146","no","self",0.635,"1"
"7","3","147","no","mother",0.669,"1"
"7","3","148","no","self",0.652,"1"
"7","3","149","yes","stranger",0.68,"1"
"7","3","150","yes","stranger",0.619,"1"
"7","3","151","yes","mother",0.688,"1"
"7","3","152","no","self",0.608,"1"
"7","3","153","yes","stranger",0.722,"1"
"7","3","155","no","stranger",1.064,"1"
"7","3","156","yes","stranger",0.581,"1"
"7","3","157","no","self",0.721,"1"
"7","3","158","no","mother",0.835,"1"
"7","3","159","yes","self",0.491,"1"
"7","3","160","yes","self",0.477,"1"
"7","3","161","no","self",0.539,"1"
"7","3","162","no","stranger",0.781,"1"
"7","3","163","yes","self",0.774,"1"
"7","3","164","no","self",1.115,"1"
"7","3","165","yes","self",0.5,"1"
"7","3","166","no","self",0.574,"1"
"7","3","167","no","mother",0.77,"1"
"7","3","168","no","mother",0.9,"1"
"7","3","169","yes","stranger",0.721,"1"
"7","3","170","no","stranger",0.723,"1"
"7","3","171","yes","self",0.48,"1"
"7","3","172","yes","mother",0.728,"1"
"7","3","173","yes","self",0.482,"1"
"7","3","174","no","stranger",0.661,"1"
"7","3","175","yes","stranger",1.141,"0"
"7","3","176","yes","mother",0.737,"1"
"7","3","177","no","stranger",0.669,"1"
"7","3","178","yes","stranger",0.719,"1"
"7","3","179","no","self",0.636,"1"
"7","3","180","no","mother",0.774,"1"
"7","4","181","no","stranger",0.653,"1"
"7","4","182","yes","stranger",0.709,"1"
"7","4","183","yes","self",0.431,"1"
"7","4","184","no","mother",0.601,"1"
"7","4","185","yes","mother",0.606,"0"
"7","4","186","no","mother",0.628,"1"
"7","4","187","no","self",0.642,"1"
"7","4","188","yes","stranger",0.693,"1"
"7","4","189","no","self",0.763,"1"
"7","4","190","yes","mother",0.725,"1"
"7","4","191","yes","mother",0.7,"1"
"7","4","192","no","mother",0.759,"1"
"7","4","193","no","mother",0.646,"1"
"7","4","194","yes","stranger",0.61,"1"
"7","4","195","yes","self",0.692,"1"
"7","4","196","no","self",0.634,"1"
"7","4","197","no","stranger",0.71,"1"
"7","4","198","no","mother",0.754,"1"
"7","4","199","yes","mother",0.583,"1"
"7","4","200","no","stranger",0.717,"1"
"7","4","201","yes","self",0.619,"1"
"7","4","202","no","mother",0.76,"1"
"7","4","203","no","self",1.059,"1"
"7","4","204","no","self",0.791,"1"
"7","4","205","yes","stranger",0.596,"0"
"7","4","206","yes","stranger",0.63,"1"
"7","4","207","yes","stranger",0.634,"1"
"7","4","208","yes","self",0.509,"1"
"7","4","209","yes","stranger",0.607,"1"
"7","4","210","yes","mother",0.64,"1"
"7","4","211","yes","stranger",0.505,"1"
"7","4","212","yes","self",0.529,"1"
"7","4","213","yes","self",0.477,"1"
"7","4","214","no","stranger",0.559,"1"
"7","4","215","yes","mother",0.638,"1"
"7","4","216","yes","stranger",0.614,"1"
"7","4","217","no","mother",0.645,"1"
"7","4","218","no","stranger",0.995,"1"
"7","4","219","no","mother",0.721,"1"
"7","4","220","no","stranger",0.715,"1"
"7","4","221","no","self",0.635,"1"
"7","4","222","no","stranger",0.519,"1"
"7","4","223","no","self",0.48,"1"
"7","4","224","no","stranger",0.476,"1"
"7","4","225","yes","mother",0.672,"1"
"7","4","226","no","mother",0.6,"1"
"7","4","227","yes","self",0.672,"1"
"7","4","228","yes","self",0.467,"1"
"7","4","229","no","self",0.473,"1"
"7","4","230","yes","mother",0.679,"1"
"7","4","231","yes","stranger",0.625,"1"
"7","4","232","no","self",0.47,"1"
"7","4","233","no","stranger",0.692,"1"
"7","4","234","yes","self",0.405,"1"
"7","4","235","no","stranger",0.485,"1"
"7","4","236","no","self",0.521,"1"
"7","4","237","yes","mother",0.667,"1"
"7","4","238","yes","mother",0.515,"1"
"7","4","239","yes","self",0.473,"1"
"7","4","240","no","mother",0.479,"1"
"7","5","241","no","self",0.536,"1"
"7","5","242","yes","self",0.397,"1"
"7","5","243","no","mother",0.479,"1"
"7","5","244","no","mother",0.627,"1"
"7","5","245","no","stranger",0.565,"1"
"7","5","246","no","mother",1.004,"1"
"7","5","247","no","self",0.5,"1"
"7","5","248","yes","mother",0.6,"1"
"7","5","249","yes","mother",0.548,"1"
"7","5","250","no","stranger",0.628,"1"
"7","5","251","yes","mother",0.518,"1"
"7","5","252","no","stranger",0.556,"1"
"7","5","253","yes","mother",0.495,"1"
"7","5","254","no","mother",0.505,"1"
"7","5","255","yes","self",0.509,"1"
"7","5","256","no","mother",1.111,"1"
"7","5","257","yes","stranger",0.691,"1"
"7","5","258","yes","stranger",0.686,"0"
"7","5","259","yes","stranger",0.53,"1"
"7","5","260","no","self",0.49,"1"
"7","5","261","no","self",0.728,"0"
"7","5","262","yes","mother",0.725,"1"
"7","5","263","yes","self",0.519,"1"
"7","5","264","no","mother",0.563,"1"
"7","5","265","no","stranger",0.768,"1"
"7","5","266","yes","self",0.506,"1"
"7","5","267","no","self",0.644,"1"
"7","5","268","yes","stranger",0.662,"1"
"7","5","269","no","mother",0.581,"1"
"7","5","270","no","stranger",0.691,"1"
"7","5","271","yes","stranger",0.625,"1"
"7","5","272","no","stranger",0.807,"1"
"7","5","273","no","mother",0.6,"1"
"7","5","274","no","self",0.532,"1"
"7","5","275","no","self",0.482,"1"
"7","5","276","yes","self",0.494,"1"
"7","5","277","yes","self",0.431,"1"
"7","5","278","yes","self",0.433,"1"
"7","5","279","yes","mother",0.461,"1"
"7","5","280","yes","stranger",0.569,"0"
"7","5","281","no","mother",0.593,"1"
"7","5","282","yes","mother",0.623,"1"
"7","5","283","no","stranger",0.728,"1"
"7","5","284","no","stranger",0.71,"1"
"7","5","285","yes","stranger",0.51,"1"
"7","5","286","yes","self",0.383,"1"
"7","5","287","no","self",0.437,"1"
"7","5","288","yes","self",0.451,"1"
"7","5","289","no","self",0.439,"1"
"7","5","290","no","self",0.542,"1"
"7","5","291","yes","stranger",0.642,"1"
"7","5","292","no","stranger",0.738,"1"
"7","5","293","yes","mother",0.444,"1"
"7","5","294","yes","self",0.409,"1"
"7","5","295","yes","mother",0.863,"1"
"7","5","296","yes","stranger",0.623,"1"
"7","5","297","yes","mother",0.575,"1"
"7","5","298","no","mother",0.608,"1"
"7","5","299","yes","stranger",0.606,"1"
"7","5","300","no","stranger",0.684,"1"
"7","6","301","no","mother",0.626,"1"
"7","6","302","no","stranger",0.559,"1"
"7","6","303","yes","stranger",0.563,"1"
"7","6","304","no","mother",0.455,"1"
"7","6","305","yes","mother",0.475,"1"
"7","6","306","yes","self",0.351,"1"
"7","6","307","yes","mother",0.508,"1"
"7","6","308","yes","self",0.404,"1"
"7","6","309","yes","mother",0.498,"1"
"7","6","310","no","stranger",0.473,"1"
"7","6","311","no","self",0.473,"1"
"7","6","312","no","mother",0.507,"1"
"7","6","313","no","self",0.585,"1"
"7","6","314","no","mother",0.456,"1"
"7","6","315","no","self",0.546,"1"
"7","6","316","yes","stranger",0.59,"1"
"7","6","317","no","mother",0.687,"1"
"7","6","318","yes","stranger",0.643,"1"
"7","6","319","yes","self",0.461,"1"
"7","6","320","yes","mother",0.463,"1"
"7","6","321","no","self",0.43,"1"
"7","6","322","no","stranger",0.623,"1"
"7","6","323","yes","self",0.519,"1"
"7","6","324","yes","stranger",0.533,"0"
"7","6","325","yes","self",0.45,"1"
"7","6","326","no","mother",0.48,"1"
"7","6","327","yes","self",0.412,"1"
"7","6","328","yes","stranger",0.593,"1"
"7","6","329","yes","self",0.399,"1"
"7","6","330","no","self",0.739,"1"
"7","6","331","no","self",0.457,"1"
"7","6","332","no","self",0.508,"1"
"7","6","333","yes","mother",0.492,"0"
"7","6","334","no","mother",0.622,"1"
"7","6","335","yes","stranger",0.638,"1"
"7","6","336","no","mother",0.593,"1"
"7","6","337","no","mother",0.553,"0"
"7","6","338","yes","self",0.437,"1"
"7","6","339","no","stranger",0.747,"1"
"7","6","340","no","self",0.532,"1"
"7","6","341","yes","stranger",0.538,"1"
"7","6","342","no","stranger",0.564,"1"
"7","6","343","yes","mother",0.47,"1"
"7","6","344","no","stranger",0.543,"1"
"7","6","345","yes","stranger",0.425,"1"
"7","6","346","no","stranger",0.449,"1"
"7","6","347","no","stranger",0.449,"1"
"7","6","348","yes","stranger",0.448,"1"
"7","6","349","yes","mother",0.606,"1"
"7","6","350","yes","mother",0.44,"1"
"7","6","351","no","stranger",0.475,"1"
"7","6","352","yes","mother",0.538,"1"
"7","6","353","no","stranger",0.518,"1"
"7","6","354","no","self",0.722,"1"
"7","6","355","no","self",0.435,"1"
"7","6","356","no","mother",0.439,"1"
"7","6","357","yes","mother",0.419,"1"
"7","6","358","yes","stranger",0.565,"0"
"7","6","359","yes","self",0.394,"1"
"7","6","360","yes","self",0.46,"1"
"8","1","1","no","self",0.555,"0"
"8","1","2","no","stranger",0.817,"1"
"8","1","3","yes","stranger",0.546,"0"
"8","1","4","yes","self",0.468,"1"
"8","1","5","yes","stranger",0.476,"0"
"8","1","6","no","self",0.628,"0"
"8","1","7","no","mother",0.846,"1"
"8","1","8","yes","mother",0.641,"0"
"8","1","9","no","stranger",0.507,"1"
"8","1","10","no","self",0.477,"1"
"8","1","11","no","mother",0.597,"1"
"8","1","12","no","self",0.499,"1"
"8","1","13","no","stranger",0.44,"1"
"8","1","14","yes","stranger",0.504,"0"
"8","1","15","yes","self",0.418,"1"
"8","1","16","no","mother",0.518,"1"
"8","1","17","yes","self",0.461,"1"
"8","1","18","no","stranger",0.459,"1"
"8","1","19","yes","self",0.484,"1"
"8","1","20","yes","mother",0.426,"0"
"8","1","21","yes","self",0.468,"1"
"8","1","22","no","self",0.431,"1"
"8","1","23","no","self",0.549,"1"
"8","1","24","no","mother",0.885,"1"
"8","1","25","yes","mother",0.555,"0"
"8","1","26","no","self",0.698,"1"
"8","1","27","yes","mother",0.624,"1"
"8","1","28","no","stranger",0.574,"1"
"8","1","29","yes","stranger",0.646,"1"
"8","1","30","yes","self",0.774,"1"
"8","1","31","no","stranger",0.733,"1"
"8","1","32","no","mother",0.571,"0"
"8","1","33","yes","self",0.717,"1"
"8","1","34","no","stranger",0.455,"1"
"8","1","35","no","self",0.724,"1"
"8","1","36","no","mother",0.53,"0"
"8","1","37","yes","stranger",0.448,"0"
"8","1","38","yes","stranger",0.47,"0"
"8","1","39","yes","self",0.737,"1"
"8","1","40","yes","mother",0.825,"1"
"8","1","41","yes","mother",0.541,"1"
"8","1","42","yes","mother",0.443,"1"
"8","1","43","yes","stranger",0.416,"0"
"8","1","44","no","mother",0.602,"1"
"8","1","45","no","stranger",0.714,"1"
"8","1","46","no","stranger",0.942,"1"
"8","1","47","yes","self",0.474,"1"
"8","1","48","no","stranger",0.539,"1"
"8","1","49","no","self",1.025,"1"
"8","1","50","yes","stranger",0.695,"1"
"8","1","51","no","mother",0.626,"1"
"8","1","52","no","self",0.78,"1"
"8","1","53","yes","stranger",0.92,"1"
"8","1","54","yes","stranger",0.674,"1"
"8","1","55","yes","self",0.682,"1"
"8","1","56","no","mother",1.059,"1"
"8","1","57","yes","mother",0.683,"1"
"8","1","58","yes","mother",0.559,"1"
"8","1","59","yes","mother",0.495,"1"
"8","1","60","no","mother",0.526,"1"
"8","2","61","yes","mother",0.693,"1"
"8","2","62","no","mother",0.559,"1"
"8","2","63","yes","self",0.501,"1"
"8","2","64","yes","mother",0.579,"0"
"8","2","65","yes","stranger",0.692,"1"
"8","2","66","yes","stranger",0.736,"1"
"8","2","67","no","self",0.524,"1"
"8","2","68","no","self",0.884,"1"
"8","2","69","yes","stranger",0.978,"1"
"8","2","70","yes","self",0.515,"1"
"8","2","71","no","mother",0.533,"1"
"8","2","72","no","mother",0.487,"1"
"8","2","73","no","self",0.645,"0"
"8","2","74","no","stranger",0.871,"1"
"8","2","75","no","self",0.521,"1"
"8","2","76","yes","mother",0.498,"1"
"8","2","77","no","self",0.696,"1"
"8","2","78","yes","self",0.55,"1"
"8","2","79","yes","self",0.504,"1"
"8","2","80","no","mother",0.677,"1"
"8","2","81","no","self",0.515,"1"
"8","2","82","yes","stranger",0.647,"1"
"8","2","83","no","stranger",0.659,"1"
"8","2","84","yes","mother",0.526,"1"
"8","2","85","yes","stranger",0.458,"0"
"8","2","86","no","stranger",0.484,"1"
"8","2","87","yes","mother",0.445,"1"
"8","2","88","no","self",0.459,"1"
"8","2","89","yes","mother",0.529,"1"
"8","2","90","yes","mother",0.427,"1"
"8","2","91","no","mother",0.511,"1"
"8","2","92","yes","self",0.526,"1"
"8","2","93","yes","mother",0.454,"1"
"8","2","94","no","stranger",0.454,"1"
"8","2","95","no","self",0.504,"1"
"8","2","96","yes","stranger",0.548,"1"
"8","2","97","no","mother",0.574,"1"
"8","2","98","no","stranger",0.627,"1"
"8","2","99","no","self",0.573,"1"
"8","2","100","no","mother",0.527,"1"
"8","2","101","yes","self",0.433,"1"
"8","2","102","yes","stranger",0.667,"1"
"8","2","103","yes","mother",0.566,"1"
"8","2","104","no","mother",0.536,"1"
"8","2","105","no","stranger",0.546,"1"
"8","2","106","yes","stranger",0.699,"0"
"8","2","107","no","mother",0.549,"1"
"8","2","108","yes","stranger",0.544,"0"
"8","2","109","yes","self",0.424,"1"
"8","2","110","no","mother",0.508,"1"
"8","2","111","no","stranger",0.586,"1"
"8","2","112","no","self",0.59,"1"
"8","2","113","yes","mother",0.525,"1"
"8","2","114","no","stranger",0.503,"1"
"8","2","115","no","stranger",0.429,"1"
"8","2","116","yes","stranger",0.393,"0"
"8","2","117","no","stranger",0.649,"1"
"8","2","118","yes","self",0.422,"1"
"8","2","119","yes","self",0.44,"1"
"8","2","120","yes","self",0.436,"1"
"8","3","121","yes","stranger",0.516,"0"
"8","3","122","yes","stranger",0.575,"1"
"8","3","123","yes","stranger",0.465,"1"
"8","3","124","no","self",0.581,"1"
"8","3","125","yes","stranger",0.433,"0"
"8","3","126","no","stranger",0.724,"0"
"8","3","127","no","self",0.512,"1"
"8","3","128","no","self",0.478,"1"
"8","3","129","no","stranger",0.764,"1"
"8","3","130","yes","mother",0.54,"1"
"8","3","131","yes","stranger",0.635,"0"
"8","3","132","yes","self",0.535,"1"
"8","3","133","yes","stranger",0.727,"1"
"8","3","134","no","mother",0.479,"1"
"8","3","135","no","self",0.623,"1"
"8","3","136","no","mother",0.468,"1"
"8","3","137","no","self",0.494,"1"
"8","3","138","no","stranger",0.454,"1"
"8","3","139","no","mother",0.442,"1"
"8","3","140","no","mother",0.48,"1"
"8","3","141","yes","mother",0.427,"1"
"8","3","142","no","self",0.423,"1"
"8","3","143","yes","self",0.573,"1"
"8","3","144","yes","mother",0.321,"0"
"8","3","145","yes","self",0.401,"1"
"8","3","146","no","self",0.602,"0"
"8","3","147","no","mother",0.544,"1"
"8","3","148","no","stranger",0.894,"1"
"8","3","149","yes","stranger",0.855,"1"
"8","3","150","no","stranger",0.664,"1"
"8","3","151","yes","mother",0.464,"1"
"8","3","152","no","mother",0.098,"0"
"8","3","153","yes","self",0.498,"1"
"8","3","154","yes","self",0.436,"1"
"8","3","155","yes","stranger",0.635,"1"
"8","3","156","no","self",0.587,"1"
"8","3","157","yes","stranger",1.027,"1"
"8","3","158","yes","mother",0.747,"1"
"8","3","159","no","mother",0.517,"1"
"8","3","160","yes","self",0.365,"1"
"8","3","161","yes","self",0.464,"1"
"8","3","162","yes","mother",0.454,"1"
