"","Subject","Age","Gender","Handedness","Block","Trial","Shape","Label","Matching","Origin_Identity","English_Identity","Standarlized_Identity","RT_ms","RT_sec","ACC"
"1",6201,21,"male","right",1,1,"S.bmp","BadOther.bmp","Nonmatching","Stranger","Stranger","Stranger",605,0.605,1
"2",6201,21,"male","right",1,2,"D.bmp","BadSelf.bmp","Matching","Self","Self","Self",537,0.537,1
"3",6201,21,"male","right",1,3,"C.bmp","NormalSelf.bmp","Nonmatching","Self","Self","Self",517,0.517,1
"4",6201,21,"male","right",1,4,"C.bmp","GoodOther.bmp","Nonmatching","Stranger","Stranger","Stranger",728,0.728,1
"5",6201,21,"male","right",1,5,"P.bmp","GoodOther.bmp","Matching","Stranger","Stranger","Stranger",624,0.624,0
"6",6201,21,"male","right",1,6,"S.bmp","NormalOther.bmp","Matching","Stranger","Stranger","Stranger",643,0.643,1
"7",6201,21,"male","right",1,7,"P.bmp","NormalSelf.bmp","Nonmatching","Self","Self","Self",671,0.671,0
"8",6201,21,"male","right",1,8,"T.bmp","GoodOther.bmp","Nonmatching","Stranger","Stranger","Stranger",771,0.771,0
"9",6201,21,"male","right",1,9,"D.bmp","BadSelf.bmp","Matching","Self","Self","Self",623,0.623,1
"10",6201,21,"male","right",1,10,"C.bmp","GoodSelf.bmp","Matching","Self","Self","Self",347,0.347,1
"11",6201,21,"male","right",1,11,"C.bmp","GoodSelf.bmp","Matching","Self","Self","Self",431,0.431,1
"12",6201,21,"male","right",1,12,"S.bmp","NormalOther.bmp","Matching","Stranger","Stranger","Stranger",627,0.627,1
"13",6201,21,"male","right",1,13,"P.bmp","GoodOther.bmp","Matching","Stranger","Stranger","Stranger",807,0.807,0
"14",6201,21,"male","right",1,14,"Tra.bmp","GoodSelf.bmp","Nonmatching","Self","Self","Self",595,0.595,0
"15",6201,21,"male","right",1,15,"D.bmp","BadSelf.bmp","Matching","Self","Self","Self",511,0.511,1
"16",6201,21,"male","right",1,16,"P.bmp","GoodOther.bmp","Matching","Stranger","Stranger","Stranger",801,0.801,1
"17",6201,21,"male","right",1,17,"T.bmp","NormalSelf.bmp","Nonmatching","Self","Self","Self",499,0.499,1
"18",6201,21,"male","right",1,18,"D.bmp","NormalOther.bmp","Nonmatching","Stranger","Stranger","Stranger",727,0.727,1
"19",6201,21,"male","right",1,19,"P.bmp","GoodOther.bmp","Matching","Stranger","Stranger","Stranger",411,0.411,1
"20",6201,21,"male","right",1,20,"Tra.bmp","NormalSelf.bmp","Matching","Self","Self","Self",727,0.727,1
"21",6201,21,"male","right",1,21,"S.bmp","GoodSelf.bmp","Nonmatching","Self","Self","Self",531,0.531,1
"22",6201,21,"male","right",1,22,"D.bmp","NormalSelf.bmp","Nonmatching","Self","Self","Self",655,0.655,1
"23",6201,21,"male","right",1,23,"C.bmp","GoodSelf.bmp","Matching","Self","Self","Self",331,0.331,1
"24",6201,21,"male","right",1,24,"T.bmp","BadOther.bmp","Matching","Stranger","Stranger","Stranger",863,0.863,0
"25",6201,21,"male","right",1,25,"S.bmp","BadSelf.bmp","Nonmatching","Self","Self","Self",931,0.931,1
"26",6201,21,"male","right",1,26,"T.bmp","BadOther.bmp","Matching","Stranger","Stranger","Stranger",759,0.759,1
"27",6201,21,"male","right",1,27,"C.bmp","GoodSelf.bmp","Matching","Self","Self","Self",857,0.857,1
"28",6201,21,"male","right",1,28,"Tra.bmp","NormalSelf.bmp","Matching","Self","Self","Self",916,0.916,1
"29",6201,21,"male","right",1,29,"T.bmp","NormalOther.bmp","Nonmatching","Stranger","Stranger","Stranger",840,0.84,1
"30",6201,21,"male","right",1,30,"S.bmp","NormalOther.bmp","Matching","Stranger","Stranger","Stranger",923,0.923,1
"31",6201,21,"male","right",1,31,"P.bmp","GoodSelf.bmp","Nonmatching","Self","Self","Self",767,0.767,0
"32",6201,21,"male","right",1,32,"Tra.bmp","BadSelf.bmp","Nonmatching","Self","Self","Self",859,0.859,1
"33",6201,21,"male","right",1,33,"P.bmp","GoodOther.bmp","Matching","Stranger","Stranger","Stranger",607,0.607,1
"34",6201,21,"male","right",1,34,"T.bmp","BadOther.bmp","Matching","Stranger","Stranger","Stranger",1051,1.051,1
"35",6201,21,"male","right",1,35,"Tra.bmp","NormalSelf.bmp","Matching","Self","Self","Self",895,0.895,1
"36",6201,21,"male","right",1,36,"C.bmp","GoodSelf.bmp","Matching","Self","Self","Self",395,0.395,1
"37",6201,21,"male","right",1,37,"S.bmp","GoodOther.bmp","Nonmatching","Stranger","Stranger","Stranger",471,0.471,1
"38",6201,21,"male","right",1,38,"C.bmp","GoodSelf.bmp","Matching","Self","Self","Self",121,0.121,1
"39",6201,21,"male","right",1,39,"S.bmp","NormalOther.bmp","Matching","Stranger","Stranger","Stranger",602,0.602,1
"40",6201,21,"male","right",1,40,"Tra.bmp","NormalSelf.bmp","Matching","Self","Self","Self",470,0.47,1
"41",6201,21,"male","right",1,41,"Tra.bmp","NormalSelf.bmp","Matching","Self","Self","Self",338,0.338,1
"42",6201,21,"male","right",1,42,"S.bmp","NormalOther.bmp","Matching","Stranger","Stranger","Stranger",413,0.413,1
"43",6201,21,"male","right",1,43,"C.bmp","NormalOther.bmp","Nonmatching","Stranger","Stranger","Stranger",473,0.473,0
"44",6201,21,"male","right",1,44,"P.bmp","GoodOther.bmp","Matching","Stranger","Stranger","Stranger",469,0.469,1
"45",6201,21,"male","right",1,45,"Tra.bmp","NormalSelf.bmp","Matching","Self","Self","Self",521,0.521,1
"46",6201,21,"male","right",1,46,"D.bmp","BadSelf.bmp","Matching","Self","Self","Self",0,0,0
"47",6201,21,"male","right",1,47,"P.bmp","GoodOther.bmp","Matching","Stranger","Stranger","Stranger",748,0.748,1
"48",6201,21,"male","right",1,48,"C.bmp","BadSelf.bmp","Nonmatching","Self","Self","Self",456,0.456,0
"49",6201,21,"male","right",1,49,"Tra.bmp","GoodOther.bmp","Nonmatching","Stranger","Stranger","Stranger",540,0.54,1
"50",6201,21,"male","right",1,50,"T.bmp","BadOther.bmp","Matching","Stranger","Stranger","Stranger",567,0.567,1
"51",6201,21,"male","right",1,51,"D.bmp","BadOther.bmp","Nonmatching","Stranger","Stranger","Stranger",0,0,0
"52",6201,21,"male","right",1,52,"S.bmp","NormalOther.bmp","Matching","Stranger","Stranger","Stranger",767,0.767,1
"53",6201,21,"male","right",1,53,"Tra.bmp","NormalSelf.bmp","Matching","Self","Self","Self",459,0.459,1
"54",6201,21,"male","right",1,54,"S.bmp","NormalOther.bmp","Matching","Stranger","Stranger","Stranger",751,0.751,1
"55",6201,21,"male","right",1,55,"D.bmp","BadSelf.bmp","Matching","Self","Self","Self",601,0.601,1
"56",6201,21,"male","right",1,56,"D.bmp","GoodOther.bmp","Nonmatching","Stranger","Stranger","Stranger",1097,1.097,1
"57",6201,21,"male","right",1,57,"T.bmp","BadOther.bmp","Matching","Stranger","Stranger","Stranger",766,0.766,1
"58",6201,21,"male","right",1,58,"T.bmp","BadOther.bmp","Matching","Stranger","Stranger","Stranger",978,0.978,0
"59",6201,21,"male","right",1,59,"C.bmp","GoodSelf.bmp","Matching","Self","Self","Self",670,0.67,1
"60",6201,21,"male","right",1,60,"D.bmp","BadSelf.bmp","Matching","Self","Self","Self",682,0.682,1
"61",6201,21,"male","right",1,61,"C.bmp","GoodSelf.bmp","Matching","Self","Self","Self",326,0.326,1
"62",6201,21,"male","right",1,62,"D.bmp","BadSelf.bmp","Matching","Self","Self","Self",546,0.546,0
"63",6201,21,"male","right",1,63,"T.bmp","GoodSelf.bmp","Nonmatching","Self","Self","Self",485,0.485,1
"64",6201,21,"male","right",1,64,"S.bmp","NormalOther.bmp","Matching","Stranger","Stranger","Stranger",649,0.649,1
"65",6201,21,"male","right",1,65,"S.bmp","NormalOther.bmp","Matching","Stranger","Stranger","Stranger",493,0.493,1
"66",6201,21,"male","right",1,66,"Tra.bmp","NormalOther.bmp","Nonmatching","Stranger","Stranger","Stranger",575,0.575,1
"67",6201,21,"male","right",1,67,"C.bmp","BadOther.bmp","Nonmatching","Stranger","Stranger","Stranger",735,0.735,1
"68",6201,21,"male","right",1,68,"S.bmp","NormalSelf.bmp","Nonmatching","Self","Self","Self",740,0.74,0
"69",6201,21,"male","right",1,69,"P.bmp","BadOther.bmp","Nonmatching","Stranger","Stranger","Stranger",0,0,0
"70",6201,21,"male","right",1,70,"T.bmp","BadOther.bmp","Matching","Stranger","Stranger","Stranger",668,0.668,1
"71",6201,21,"male","right",1,71,"P.bmp","BadSelf.bmp","Nonmatching","Self","Self","Self",880,0.88,1
"72",6201,21,"male","right",1,72,"Tra.bmp","NormalSelf.bmp","Matching","Self","Self","Self",692,0.692,1
"73",6201,21,"male","right",1,73,"Tra.bmp","BadOther.bmp","Nonmatching","Stranger","Stranger","Stranger",856,0.856,1
"74",6201,21,"male","right",1,74,"C.bmp","GoodSelf.bmp","Matching","Self","Self","Self",340,0.34,1
"75",6201,21,"male","right",1,75,"C.bmp","GoodSelf.bmp","Matching","Self","Self","Self",384,0.384,1
"76",6201,21,"male","right",1,76,"T.bmp","BadSelf.bmp","Nonmatching","Self","Self","Self",723,0.723,1
"77",6201,21,"male","right",1,77,"D.bmp","GoodSelf.bmp","Nonmatching","Self","Self","Self",1093,1.093,1
"78",6201,21,"male","right",1,78,"Tra.bmp","NormalSelf.bmp","Matching","Self","Self","Self",885,0.885,1
"79",6201,21,"male","right",1,79,"S.bmp","NormalOther.bmp","Matching","Stranger","Stranger","Stranger",674,0.674,1
"80",6201,21,"male","right",1,80,"P.bmp","GoodOther.bmp","Matching","Stranger","Stranger","Stranger",390,0.39,1
"81",6201,21,"male","right",1,81,"P.bmp","GoodOther.bmp","Matching","Stranger","Stranger","Stranger",554,0.554,1
"82",6201,21,"male","right",1,82,"T.bmp","BadOther.bmp","Matching","Stranger","Stranger","Stranger",662,0.662,1
"83",6201,21,"male","right",1,83,"Tra.bmp","NormalSelf.bmp","Matching","Self","Self","Self",746,0.746,1
"84",6201,21,"male","right",1,84,"P.bmp","GoodOther.bmp","Matching","Stranger","Stranger","Stranger",654,0.654,1
"85",6201,21,"male","right",1,85,"D.bmp","BadSelf.bmp","Matching","Self","Self","Self",978,0.978,0
"86",6201,21,"male","right",1,86,"D.bmp","BadSelf.bmp","Matching","Self","Self","Self",486,0.486,1
"87",6201,21,"male","right",1,87,"T.bmp","BadOther.bmp","Matching","Stranger","Stranger","Stranger",0,0,0
"88",6201,21,"male","right",1,88,"T.bmp","BadOther.bmp","Matching","Stranger","Stranger","Stranger",411,0.411,1
"89",6201,21,"male","right",1,89,"D.bmp","BadSelf.bmp","Matching","Self","Self","Self",379,0.379,1
"90",6201,21,"male","right",1,90,"P.bmp","NormalOther.bmp","Nonmatching","Stranger","Stranger","Stranger",712,0.712,0
"91",6201,21,"male","right",2,1,"T.bmp","BadSelf.bmp","Nonmatching","Self","Self","Self",894,0.894,1
"92",6201,21,"male","right",2,2,"P.bmp","GoodOther.bmp","Matching","Stranger","Stranger","Stranger",426,0.426,1
"93",6201,21,"male","right",2,3,"D.bmp","BadSelf.bmp","Matching","Self","Self","Self",702,0.702,1
"94",6201,21,"male","right",2,4,"C.bmp","GoodSelf.bmp","Matching","Self","Self","Self",302,0.302,1
"95",6201,21,"male","right",2,5,"D.bmp","BadSelf.bmp","Matching","Self","Self","Self",531,0.531,1
"96",6201,21,"male","right",2,6,"P.bmp","BadOther.bmp","Nonmatching","Stranger","Stranger","Stranger",926,0.926,0
"97",6201,21,"male","right",2,7,"Tra.bmp","NormalSelf.bmp","Matching","Self","Self","Self",738,0.738,1
"98",6201,21,"male","right",2,8,"D.bmp","BadSelf.bmp","Matching","Self","Self","Self",838,0.838,1
"99",6201,21,"male","right",2,9,"T.bmp","BadOther.bmp","Matching","Stranger","Stranger","Stranger",554,0.554,1
"100",6201,21,"male","right",2,10,"T.bmp","BadOther.bmp","Matching","Stranger","Stranger","Stranger",430,0.43,1
"101",6201,21,"male","right",2,11,"T.bmp","NormalSelf.bmp","Nonmatching","Self","Self","Self",978,0.978,1
"102",6201,21,"male","right",2,12,"T.bmp","BadOther.bmp","Matching","Stranger","Stranger","Stranger",398,0.398,1
"103",6201,21,"male","right",2,13,"T.bmp","GoodSelf.bmp","Nonmatching","Self","Self","Self",618,0.618,1
"104",6201,21,"male","right",2,14,"T.bmp","GoodOther.bmp","Nonmatching","Stranger","Stranger","Stranger",950,0.95,1
"105",6201,21,"male","right",2,15,"C.bmp","GoodSelf.bmp","Matching","Self","Self","Self",278,0.278,1
"106",6201,21,"male","right",2,16,"Tra.bmp","BadOther.bmp","Nonmatching","Stranger","Stranger","Stranger",667,0.667,1
"107",6201,21,"male","right",2,17,"D.bmp","BadSelf.bmp","Matching","Self","Self","Self",719,0.719,1
"108",6201,21,"male","right",2,18,"S.bmp","GoodSelf.bmp","Nonmatching","Self","Self","Self",427,0.427,1
"109",6201,21,"male","right",2,19,"T.bmp","BadOther.bmp","Matching","Stranger","Stranger","Stranger",726,0.726,1
"110",6201,21,"male","right",2,20,"T.bmp","BadOther.bmp","Matching","Stranger","Stranger","Stranger",970,0.97,0
"111",6201,21,"male","right",2,21,"T.bmp","BadOther.bmp","Matching","Stranger","Stranger","Stranger",350,0.35,1
"112",6201,21,"male","right",2,22,"T.bmp","BadOther.bmp","Matching","Stranger","Stranger","Stranger",554,0.554,1
"113",6201,21,"male","right",2,23,"Tra.bmp","GoodSelf.bmp","Nonmatching","Self","Self","Self",502,0.502,0
"114",6201,21,"male","right",2,24,"D.bmp","NormalOther.bmp","Nonmatching","Stranger","Stranger","Stranger",530,0.53,1
"115",6201,21,"male","right",2,25,"Tra.bmp","NormalSelf.bmp","Matching","Self","Self","Self",628,0.628,1
"116",6201,21,"male","right",2,26,"D.bmp","GoodSelf.bmp","Nonmatching","Self","Self","Self",0,0,0
"117",6201,21,"male","right",2,27,"C.bmp","GoodOther.bmp","Nonmatching","Stranger","Stranger","Stranger",361,0.361,0
"118",6201,21,"male","right",2,28,"Tra.bmp","NormalOther.bmp","Nonmatching","Stranger","Stranger","Stranger",933,0.933,0
"119",6201,21,"male","right",2,29,"P.bmp","GoodOther.bmp","Matching","Stranger","Stranger","Stranger",841,0.841,1
"120",6201,21,"male","right",2,30,"C.bmp","GoodSelf.bmp","Matching","Self","Self","Self",517,0.517,1
"121",6201,21,"male","right",2,31,"P.bmp","GoodOther.bmp","Matching","Stranger","Stranger","Stranger",720,0.72,1
"122",6201,21,"male","right",2,32,"D.bmp","BadSelf.bmp","Matching","Self","Self","Self",740,0.74,1
"123",6201,21,"male","right",2,33,"Tra.bmp","NormalSelf.bmp","Matching","Self","Self","Self",608,0.608,1
"124",6201,21,"male","right",2,34,"D.bmp","BadSelf.bmp","Matching","Self","Self","Self",0,0,0
"125",6201,21,"male","right",2,35,"S.bmp","NormalOther.bmp","Matching","Stranger","Stranger","Stranger",992,0.992,1
"126",6201,21,"male","right",2,36,"T.bmp","NormalOther.bmp","Nonmatching","Stranger","Stranger","Stranger",412,0.412,1
"127",6201,21,"male","right",2,37,"C.bmp","GoodSelf.bmp","Matching","Self","Self","Self",604,0.604,1
"128",6201,21,"male","right",2,38,"S.bmp","NormalSelf.bmp","Nonmatching","Self","Self","Self",1049,1.049,0
"129",6201,21,"male","right",2,39,"S.bmp","NormalOther.bmp","Matching","Stranger","Stranger","Stranger",1077,1.077,1
"130",6201,21,"male","right",2,40,"P.bmp","GoodOther.bmp","Matching","Stranger","Stranger","Stranger",393,0.393,1
"131",6201,21,"male","right",2,41,"P.bmp","GoodOther.bmp","Matching","Stranger","Stranger","Stranger",357,0.357,1
"132",6201,21,"male","right",2,42,"P.bmp","GoodOther.bmp","Matching","Stranger","Stranger","Stranger",585,0.585,1
"133",6201,21,"male","right",2,43,"T.bmp","BadOther.bmp","Matching","Stranger","Stranger","Stranger",773,0.773,0
"134",6201,21,"male","right",2,44,"P.bmp","GoodOther.bmp","Matching","Stranger","Stranger","Stranger",512,0.512,1
"135",6201,21,"male","right",2,45,"S.bmp","GoodOther.bmp","Nonmatching","Stranger","Stranger","Stranger",412,0.412,1
"136",6201,21,"male","right",2,46,"P.bmp","GoodOther.bmp","Matching","Stranger","Stranger","Stranger",824,0.824,1
"137",6201,21,"male","right",2,47,"Tra.bmp","NormalSelf.bmp","Matching","Self","Self","Self",748,0.748,1
"138",6201,21,"male","right",2,48,"C.bmp","GoodSelf.bmp","Matching","Self","Self","Self",428,0.428,1
"139",6201,21,"male","right",2,49,"S.bmp","NormalOther.bmp","Matching","Stranger","Stranger","Stranger",497,0.497,1
"140",6201,21,"male","right",2,50,"D.bmp","BadSelf.bmp","Matching","Self","Self","Self",853,0.853,1
"141",6201,21,"male","right",2,51,"S.bmp","NormalOther.bmp","Matching","Stranger","Stranger","Stranger",513,0.513,1
"142",6201,21,"male","right",2,52,"Tra.bmp","GoodOther.bmp","Nonmatching","Stranger","Stranger","Stranger",301,0.301,0
"143",6201,21,"male","right",2,53,"Tra.bmp","NormalSelf.bmp","Matching","Self","Self","Self",929,0.929,1
"144",6201,21,"male","right",2,54,"Tra.bmp","NormalSelf.bmp","Matching","Self","Self","Self",365,0.365,1
"145",6201,21,"male","right",2,55,"P.bmp","NormalOther.bmp","Nonmatching","Stranger","Stranger","Stranger",833,0.833,1
"146",6201,21,"male","right",2,56,"C.bmp","NormalSelf.bmp","Nonmatching","Self","Self","Self",708,0.708,1
"147",6201,21,"male","right",2,57,"P.bmp","GoodSelf.bmp","Nonmatching","Self","Self","Self",536,0.536,1
"148",6201,21,"male","right",2,58,"D.bmp","NormalSelf.bmp","Nonmatching","Self","Self","Self",556,0.556,1
"149",6201,21,"male","right",2,59,"Tra.bmp","NormalSelf.bmp","Matching","Self","Self","Self",844,0.844,1
"150",6201,21,"male","right",2,60,"S.bmp","NormalOther.bmp","Matching","Stranger","Stranger","Stranger",361,0.361,1
"151",6201,21,"male","right",2,61,"S.bmp","BadOther.bmp","Nonmatching","Stranger","Stranger","Stranger",1061,1.061,1
"152",6201,21,"male","right",2,62,"C.bmp","GoodSelf.bmp","Matching","Self","Self","Self",409,0.409,1
"153",6201,21,"male","right",2,63,"C.bmp","BadSelf.bmp","Nonmatching","Self","Self","Self",893,0.893,1
"154",6201,21,"male","right",2,64,"C.bmp","GoodSelf.bmp","Matching","Self","Self","Self",449,0.449,1
"155",6201,21,"male","right",2,65,"D.bmp","GoodOther.bmp","Nonmatching","Stranger","Stranger","Stranger",749,0.749,1
"156",6201,21,"male","right",2,66,"D.bmp","BadSelf.bmp","Matching","Self","Self","Self",593,0.593,1
"157",6201,21,"male","right",2,67,"D.bmp","BadOther.bmp","Nonmatching","Stranger","Stranger","Stranger",0,0,0
"158",6201,21,"male","right",2,68,"C.bmp","BadOther.bmp","Nonmatching","Stranger","Stranger","Stranger",697,0.697,1
"159",6201,21,"male","right",2,69,"Tra.bmp","NormalSelf.bmp","Matching","Self","Self","Self",788,0.788,1
"160",6201,21,"male","right",2,70,"S.bmp","NormalOther.bmp","Matching","Stranger","Stranger","Stranger",0,0,0
"161",6201,21,"male","right",2,71,"S.bmp","BadSelf.bmp","Nonmatching","Self","Self","Self",433,0.433,1
"162",6201,21,"male","right",2,72,"C.bmp","GoodSelf.bmp","Matching","Self","Self","Self",581,0.581,1
"163",6201,21,"male","right",2,73,"Tra.bmp","NormalSelf.bmp","Matching","Self","Self","Self",721,0.721,1
"164",6201,21,"male","right",2,74,"S.bmp","NormalOther.bmp","Matching","Stranger","Stranger","Stranger",981,0.981,1
"165",6201,21,"male","right",2,75,"Tra.bmp","NormalSelf.bmp","Matching","Self","Self","Self",873,0.873,1
"166",6201,21,"male","right",2,76,"D.bmp","BadSelf.bmp","Matching","Self","Self","Self",333,0.333,1
"167",6201,21,"male","right",2,77,"S.bmp","NormalOther.bmp","Matching","Stranger","Stranger","Stranger",681,0.681,1
"168",6201,21,"male","right",2,78,"S.bmp","NormalOther.bmp","Matching","Stranger","Stranger","Stranger",349,0.349,1
"169",6201,21,"male","right",2,79,"T.bmp","BadOther.bmp","Matching","Stranger","Stranger","Stranger",721,0.721,1
"170",6201,21,"male","right",2,80,"C.bmp","NormalOther.bmp","Nonmatching","Stranger","Stranger","Stranger",597,0.597,0
"171",6201,21,"male","right",2,81,"T.bmp","BadOther.bmp","Matching","Stranger","Stranger","Stranger",846,0.846,1
"172",6201,21,"male","right",2,82,"Tra.bmp","BadSelf.bmp","Nonmatching","Self","Self","Self",499,0.499,1
"173",6201,21,"male","right",2,83,"P.bmp","NormalSelf.bmp","Nonmatching","Self","Self","Self",1047,1.047,1
"174",6201,21,"male","right",2,84,"P.bmp","BadSelf.bmp","Nonmatching","Self","Self","Self",1051,1.051,1
"175",6201,21,"male","right",2,85,"C.bmp","GoodSelf.bmp","Matching","Self","Self","Self",327,0.327,1
"176",6201,21,"male","right",2,86,"C.bmp","GoodSelf.bmp","Matching","Self","Self","Self",331,0.331,1
"177",6201,21,"male","right",2,87,"P.bmp","GoodOther.bmp","Matching","Stranger","Stranger","Stranger",511,0.511,1
"178",6201,21,"male","right",2,88,"S.bmp","NormalOther.bmp","Matching","Stranger","Stranger","Stranger",659,0.659,0
"179",6201,21,"male","right",2,89,"P.bmp","GoodOther.bmp","Matching","Stranger","Stranger","Stranger",631,0.631,1
"180",6201,21,"male","right",2,90,"D.bmp","BadSelf.bmp","Matching","Self","Self","Self",339,0.339,1
"181",6201,21,"male","right",3,1,"S.bmp","NormalOther.bmp","Matching","Stranger","Stranger","Stranger",975,0.975,1
"182",6201,21,"male","right",3,2,"P.bmp","BadOther.bmp","Nonmatching","Stranger","Stranger","Stranger",0,0,0
"183",6201,21,"male","right",3,3,"T.bmp","GoodOther.bmp","Nonmatching","Stranger","Stranger","Stranger",599,0.599,1
"184",6201,21,"male","right",3,4,"Tra.bmp","NormalSelf.bmp","Matching","Self","Self","Self",603,0.603,1
"185",6201,21,"male","right",3,5,"D.bmp","BadSelf.bmp","Matching","Self","Self","Self",319,0.319,1
"186",6201,21,"male","right",3,6,"D.bmp","NormalSelf.bmp","Nonmatching","Self","Self","Self",563,0.563,1
"187",6201,21,"male","right",3,7,"T.bmp","BadOther.bmp","Matching","Stranger","Stranger","Stranger",485,0.485,1
"188",6201,21,"male","right",3,8,"T.bmp","BadOther.bmp","Matching","Stranger","Stranger","Stranger",766,0.766,0
"189",6201,21,"male","right",3,9,"D.bmp","BadSelf.bmp","Matching","Self","Self","Self",626,0.626,1
"190",6201,21,"male","right",3,10,"S.bmp","NormalOther.bmp","Matching","Stranger","Stranger","Stranger",782,0.782,1
"191",6201,21,"male","right",3,11,"S.bmp","NormalOther.bmp","Matching","Stranger","Stranger","Stranger",354,0.354,1
"192",6201,21,"male","right",3,12,"C.bmp","GoodSelf.bmp","Matching","Self","Self","Self",638,0.638,1
"193",6201,21,"male","right",3,13,"P.bmp","GoodOther.bmp","Matching","Stranger","Stranger","Stranger",609,0.609,1
"194",6201,21,"male","right",3,14,"T.bmp","BadOther.bmp","Matching","Stranger","Stranger","Stranger",397,0.397,1
"195",6201,21,"male","right",3,15,"P.bmp","GoodOther.bmp","Matching","Stranger","Stranger","Stranger",409,0.409,1
"196",6201,21,"male","right",3,16,"P.bmp","GoodOther.bmp","Matching","Stranger","Stranger","Stranger",309,0.309,1
"197",6201,21,"male","right",3,17,"Tra.bmp","NormalSelf.bmp","Matching","Self","Self","Self",753,0.753,1
"198",6201,21,"male","right",3,18,"S.bmp","BadSelf.bmp","Nonmatching","Self","Self","Self",673,0.673,0
"199",6201,21,"male","right",3,19,"C.bmp","GoodSelf.bmp","Matching","Self","Self","Self",722,0.722,1
"200",6201,21,"male","right",3,20,"C.bmp","GoodSelf.bmp","Matching","Self","Self","Self",374,0.374,1
"201",6201,21,"male","right",3,21,"C.bmp","BadSelf.bmp","Nonmatching","Self","Self","Self",778,0.778,1
"202",6201,21,"male","right",3,22,"S.bmp","NormalOther.bmp","Matching","Stranger","Stranger","Stranger",758,0.758,1
"203",6201,21,"male","right",3,23,"D.bmp","BadSelf.bmp","Matching","Self","Self","Self",738,0.738,1
"204",6201,21,"male","right",3,24,"C.bmp","NormalOther.bmp","Nonmatching","Stranger","Stranger","Stranger",710,0.71,0
"205",6201,21,"male","right",3,25,"T.bmp","BadOther.bmp","Matching","Stranger","Stranger","Stranger",897,0.897,1
"206",6201,21,"male","right",3,26,"D.bmp","GoodSelf.bmp","Nonmatching","Self","Self","Self",533,0.533,1
"207",6201,21,"male","right",3,27,"C.bmp","GoodSelf.bmp","Matching","Self","Self","Self",457,0.457,1
"208",6201,21,"male","right",3,28,"Tra.bmp","NormalSelf.bmp","Matching","Self","Self","Self",437,0.437,1
"209",6201,21,"male","right",3,29,"Tra.bmp","NormalSelf.bmp","Matching","Self","Self","Self",809,0.809,1
"210",6201,21,"male","right",3,30,"C.bmp","NormalSelf.bmp","Nonmatching","Self","Self","Self",506,0.506,1
"211",6201,21,"male","right",3,31,"Tra.bmp","GoodOther.bmp","Nonmatching","Stranger","Stranger","Stranger",798,0.798,1
"212",6201,21,"male","right",3,32,"S.bmp","NormalOther.bmp","Matching","Stranger","Stranger","Stranger",874,0.874,1
"213",6201,21,"male","right",3,33,"Tra.bmp","NormalSelf.bmp","Matching","Self","Self","Self",358,0.358,1
"214",6201,21,"male","right",3,34,"Tra.bmp","NormalSelf.bmp","Matching","Self","Self","Self",338,0.338,1
"215",6201,21,"male","right",3,35,"T.bmp","NormalOther.bmp","Nonmatching","Stranger","Stranger","Stranger",654,0.654,1
"216",6201,21,"male","right",3,36,"D.bmp","BadSelf.bmp","Matching","Self","Self","Self",682,0.682,1
"217",6201,21,"male","right",3,37,"P.bmp","NormalOther.bmp","Nonmatching","Stranger","Stranger","Stranger",845,0.845,1
"218",6201,21,"male","right",3,38,"C.bmp","GoodSelf.bmp","Matching","Self","Self","Self",585,0.585,1
"219",6201,21,"male","right",3,39,"S.bmp","NormalOther.bmp","Matching","Stranger","Stranger","Stranger",565,0.565,1
"220",6201,21,"male","right",3,40,"D.bmp","NormalOther.bmp","Nonmatching","Stranger","Stranger","Stranger",733,0.733,1
"221",6201,21,"male","right",3,41,"D.bmp","BadSelf.bmp","Matching","Self","Self","Self",334,0.334,1
"222",6201,21,"male","right",3,42,"D.bmp","BadSelf.bmp","Matching","Self","Self","Self",514,0.514,1
"223",6201,21,"male","right",3,43,"D.bmp","BadSelf.bmp","Matching","Self","Self","Self",422,0.422,1
"224",6201,21,"male","right",3,44,"T.bmp","BadOther.bmp","Matching","Stranger","Stranger","Stranger",770,0.77,1
"225",6201,21,"male","right",3,45,"S.bmp","NormalOther.bmp","Matching","Stranger","Stranger","Stranger",1062,1.062,1
"226",6201,21,"male","right",3,46,"Tra.bmp","NormalSelf.bmp","Matching","Self","Self","Self",306,0.306,1
"227",6201,21,"male","right",3,47,"P.bmp","GoodOther.bmp","Matching","Stranger","Stranger","Stranger",534,0.534,1
"228",6201,21,"male","right",3,48,"S.bmp","GoodSelf.bmp","Nonmatching","Self","Self","Self",386,0.386,0
"229",6201,21,"male","right",3,49,"Tra.bmp","NormalOther.bmp","Nonmatching","Stranger","Stranger","Stranger",478,0.478,0
"230",6201,21,"male","right",3,50,"S.bmp","NormalOther.bmp","Matching","Stranger","Stranger","Stranger",505,0.505,1
"231",6201,21,"male","right",3,51,"C.bmp","GoodSelf.bmp","Matching","Self","Self","Self",781,0.781,1
"232",6201,21,"male","right",3,52,"P.bmp","GoodOther.bmp","Matching","Stranger","Stranger","Stranger",718,0.718,1
"233",6201,21,"male","right",3,53,"D.bmp","GoodOther.bmp","Nonmatching","Stranger","Stranger","Stranger",546,0.546,1
"234",6201,21,"male","right",3,54,"C.bmp","GoodOther.bmp","Nonmatching","Stranger","Stranger","Stranger",622,0.622,1
"235",6201,21,"male","right",3,55,"P.bmp","GoodOther.bmp","Matching","Stranger","Stranger","Stranger",810,0.81,1
"236",6201,21,"male","right",3,56,"P.bmp","GoodOther.bmp","Matching","Stranger","Stranger","Stranger",550,0.55,1
"237",6201,21,"male","right",3,57,"S.bmp","BadOther.bmp","Nonmatching","Stranger","Stranger","Stranger",794,0.794,1
"238",6201,21,"male","right",3,58,"Tra.bmp","NormalSelf.bmp","Matching","Self","Self","Self",766,0.766,1
"239",6201,21,"male","right",3,59,"P.bmp","GoodOther.bmp","Matching","Stranger","Stranger","Stranger",642,0.642,1
"240",6201,21,"male","right",3,60,"S.bmp","NormalOther.bmp","Matching","Stranger","Stranger","Stranger",870,0.87,1
"241",6201,21,"male","right",3,61,"C.bmp","GoodSelf.bmp","Matching","Self","Self","Self",434,0.434,1
"242",6201,21,"male","right",3,62,"Tra.bmp","BadOther.bmp","Nonmatching","Stranger","Stranger","Stranger",734,0.734,0
"243",6201,21,"male","right",3,63,"P.bmp","BadSelf.bmp","Nonmatching","Self","Self","Self",902,0.902,1
"244",6201,21,"male","right",3,64,"D.bmp","BadSelf.bmp","Matching","Self","Self","Self",570,0.57,1
"245",6201,21,"male","right",3,65,"D.bmp","BadSelf.bmp","Matching","Self","Self","Self",398,0.398,1
"246",6201,21,"male","right",3,66,"T.bmp","BadOther.bmp","Matching","Stranger","Stranger","Stranger",450,0.45,1
"247",6201,21,"male","right",3,67,"D.bmp","BadOther.bmp","Nonmatching","Stranger","Stranger","Stranger",1030,1.03,1
"248",6201,21,"male","right",3,68,"P.bmp","GoodOther.bmp","Matching","Stranger","Stranger","Stranger",482,0.482,1
"249",6201,21,"male","right",3,69,"C.bmp","BadOther.bmp","Nonmatching","Stranger","Stranger","Stranger",838,0.838,1
"250",6201,21,"male","right",3,70,"T.bmp","BadOther.bmp","Matching","Stranger","Stranger","Stranger",802,0.802,0
"251",6201,21,"male","right",3,71,"S.bmp","GoodOther.bmp","Nonmatching","Stranger","Stranger","Stranger",766,0.766,1
"252",6201,21,"male","right",3,72,"T.bmp","GoodSelf.bmp","Nonmatching","Self","Self","Self",598,0.598,1
"253",6201,21,"male","right",3,73,"Tra.bmp","BadSelf.bmp","Nonmatching","Self","Self","Self",718,0.718,1
"254",6201,21,"male","right",3,74,"D.bmp","BadSelf.bmp","Matching","Self","Self","Self",775,0.775,1
"255",6201,21,"male","right",3,75,"T.bmp","NormalSelf.bmp","Nonmatching","Self","Self","Self",0,0,0
"256",6201,21,"male","right",3,76,"S.bmp","NormalOther.bmp","Matching","Stranger","Stranger","Stranger",798,0.798,1
"257",6201,21,"male","right",3,77,"T.bmp","BadOther.bmp","Matching","Stranger","Stranger","Stranger",498,0.498,1
"258",6201,21,"male","right",3,78,"T.bmp","BadOther.bmp","Matching","Stranger","Stranger","Stranger",470,0.47,1
"259",6201,21,"male","right",3,79,"Tra.bmp","NormalSelf.bmp","Matching","Self","Self","Self",58,0.058,1
"260",6201,21,"male","right",3,80,"S.bmp","NormalSelf.bmp","Nonmatching","Self","Self","Self",582,0.582,1
"261",6201,21,"male","right",3,81,"Tra.bmp","GoodSelf.bmp","Nonmatching","Self","Self","Self",866,0.866,1
"262",6201,21,"male","right",3,82,"C.bmp","GoodSelf.bmp","Matching","Self","Self","Self",686,0.686,1
"263",6201,21,"male","right",3,83,"C.bmp","GoodSelf.bmp","Matching","Self","Self","Self",394,0.394,1
"264",6201,21,"male","right",3,84,"T.bmp","BadSelf.bmp","Nonmatching","Self","Self","Self",958,0.958,1
"265",6201,21,"male","right",3,85,"P.bmp","GoodOther.bmp","Matching","Stranger","Stranger","Stranger",734,0.734,1
"266",6201,21,"male","right",3,86,"P.bmp","NormalSelf.bmp","Nonmatching","Self","Self","Self",1051,1.051,1
"267",6201,21,"male","right",3,87,"T.bmp","BadOther.bmp","Matching","Stranger","Stranger","Stranger",783,0.783,1
"268",6201,21,"male","right",3,88,"C.bmp","GoodSelf.bmp","Matching","Self","Self","Self",490,0.49,1
"269",6201,21,"male","right",3,89,"Tra.bmp","NormalSelf.bmp","Matching","Self","Self","Self",598,0.598,1
"270",6201,21,"male","right",3,90,"P.bmp","GoodSelf.bmp","Nonmatching","Self","Self","Self",434,0.434,1
"271",6201,21,"male","right",4,1,"Tra.bmp","NormalSelf.bmp","Matching","Self","Self","Self",512,0.512,1
"272",6201,21,"male","right",4,2,"P.bmp","GoodOther.bmp","Matching","Stranger","Stranger","Stranger",340,0.34,1
"273",6201,21,"male","right",4,3,"C.bmp","GoodOther.bmp","Nonmatching","Stranger","Stranger","Stranger",392,0.392,0
"274",6201,21,"male","right",4,4,"D.bmp","BadSelf.bmp","Matching","Self","Self","Self",682,0.682,1
"275",6201,21,"male","right",4,5,"Tra.bmp","NormalSelf.bmp","Matching","Self","Self","Self",394,0.394,1
"276",6201,21,"male","right",4,6,"Tra.bmp","NormalSelf.bmp","Matching","Self","Self","Self",783,0.783,1
"277",6201,21,"male","right",4,7,"D.bmp","GoodOther.bmp","Nonmatching","Stranger","Stranger","Stranger",715,0.715,1
"278",6201,21,"male","right",4,8,"C.bmp","GoodSelf.bmp","Matching","Self","Self","Self",311,0.311,1
"279",6201,21,"male","right",4,9,"D.bmp","BadSelf.bmp","Matching","Self","Self","Self",427,0.427,1
"280",6201,21,"male","right",4,10,"P.bmp","NormalOther.bmp","Nonmatching","Stranger","Stranger","Stranger",791,0.791,1
"281",6201,21,"male","right",4,11,"Tra.bmp","NormalSelf.bmp","Matching","Self","Self","Self",339,0.339,1
"282",6201,21,"male","right",4,12,"S.bmp","BadOther.bmp","Nonmatching","Stranger","Stranger","Stranger",0,0,0
"283",6201,21,"male","right",4,13,"P.bmp","GoodOther.bmp","Matching","Stranger","Stranger","Stranger",650,0.65,1
"284",6201,21,"male","right",4,14,"Tra.bmp","NormalSelf.bmp","Matching","Self","Self","Self",830,0.83,1
"285",6201,21,"male","right",4,15,"P.bmp","GoodOther.bmp","Matching","Stranger","Stranger","Stranger",354,0.354,1
"286",6201,21,"male","right",4,16,"T.bmp","GoodOther.bmp","Nonmatching","Stranger","Stranger","Stranger",578,0.578,1
"287",6201,21,"male","right",4,17,"T.bmp","GoodSelf.bmp","Nonmatching","Self","Self","Self",999,0.999,1
"288",6201,21,"male","right",4,18,"S.bmp","NormalOther.bmp","Matching","Stranger","Stranger","Stranger",803,0.803,1
"289",6201,21,"male","right",4,19,"P.bmp","GoodOther.bmp","Matching","Stranger","Stranger","Stranger",671,0.671,1
"290",6201,21,"male","right",4,20,"S.bmp","BadSelf.bmp","Nonmatching","Self","Self","Self",0,0,0
"291",6201,21,"male","right",4,21,"C.bmp","NormalOther.bmp","Nonmatching","Stranger","Stranger","Stranger",847,0.847,1
"292",6201,21,"male","right",4,22,"T.bmp","NormalSelf.bmp","Nonmatching","Self","Self","Self",507,0.507,1
"293",6201,21,"male","right",4,23,"P.bmp","GoodOther.bmp","Matching","Stranger","Stranger","Stranger",607,0.607,1
"294",6201,21,"male","right",4,24,"D.bmp","BadSelf.bmp","Matching","Self","Self","Self",763,0.763,1
"295",6201,21,"male","right",4,25,"Tra.bmp","NormalSelf.bmp","Matching","Self","Self","Self",454,0.454,1
"296",6201,21,"male","right",4,26,"C.bmp","BadSelf.bmp","Nonmatching","Self","Self","Self",442,0.442,1
"297",6201,21,"male","right",4,27,"T.bmp","BadOther.bmp","Matching","Stranger","Stranger","Stranger",0,0,0
"298",6201,21,"male","right",4,28,"Tra.bmp","NormalSelf.bmp","Matching","Self","Self","Self",703,0.703,1
"299",6201,21,"male","right",4,29,"D.bmp","GoodSelf.bmp","Nonmatching","Self","Self","Self",0,0,0
"300",6201,21,"male","right",4,30,"D.bmp","BadSelf.bmp","Matching","Self","Self","Self",1087,1.087,0
"301",6201,21,"male","right",4,31,"D.bmp","NormalOther.bmp","Nonmatching","Stranger","Stranger","Stranger",987,0.987,1
"302",6201,21,"male","right",4,32,"Tra.bmp","BadSelf.bmp","Nonmatching","Self","Self","Self",639,0.639,0
"303",6201,21,"male","right",4,33,"C.bmp","NormalSelf.bmp","Nonmatching","Self","Self","Self",0,0,0
"304",6201,21,"male","right",4,34,"T.bmp","BadOther.bmp","Matching","Stranger","Stranger","Stranger",855,0.855,1
"305",6201,21,"male","right",4,35,"D.bmp","BadSelf.bmp","Matching","Self","Self","Self",291,0.291,1
"306",6201,21,"male","right",4,36,"S.bmp","NormalOther.bmp","Matching","Stranger","Stranger","Stranger",1007,1.007,0
"307",6201,21,"male","right",4,37,"T.bmp","BadOther.bmp","Matching","Stranger","Stranger","Stranger",603,0.603,1
"308",6201,21,"male","right",4,38,"C.bmp","GoodSelf.bmp","Matching","Self","Self","Self",692,0.692,1
"309",6201,21,"male","right",4,39,"P.bmp","GoodOther.bmp","Matching","Stranger","Stranger","Stranger",1025,1.025,1
"310",6201,21,"male","right",4,40,"Tra.bmp","GoodSelf.bmp","Nonmatching","Self","Self","Self",837,0.837,1
"311",6201,21,"male","right",4,41,"C.bmp","GoodSelf.bmp","Matching","Self","Self","Self",857,0.857,1
"312",6201,21,"male","right",4,42,"D.bmp","BadOther.bmp","Nonmatching","Stranger","Stranger","Stranger",957,0.957,0
"313",6201,21,"male","right",4,43,"T.bmp","BadOther.bmp","Matching","Stranger","Stranger","Stranger",0,0,0
"314",6201,21,"male","right",4,44,"D.bmp","BadSelf.bmp","Matching","Self","Self","Self",973,0.973,1
"315",6201,21,"male","right",4,45,"P.bmp","GoodOther.bmp","Matching","Stranger","Stranger","Stranger",665,0.665,1
"316",6201,21,"male","right",4,46,"D.bmp","BadSelf.bmp","Matching","Self","Self","Self",653,0.653,1
"317",6201,21,"male","right",4,47,"C.bmp","GoodSelf.bmp","Matching","Self","Self","Self",321,0.321,1
"318",6201,21,"male","right",4,48,"T.bmp","BadOther.bmp","Matching","Stranger","Stranger","Stranger",637,0.637,1
"319",6201,21,"male","right",4,49,"P.bmp","GoodOther.bmp","Matching","Stranger","Stranger","Stranger",575,0.575,1
"320",6201,21,"male","right",4,50,"Tra.bmp","NormalSelf.bmp","Matching","Self","Self","Self",546,0.546,1
"321",6201,21,"male","right",4,51,"T.bmp","NormalOther.bmp","Nonmatching","Stranger","Stranger","Stranger",1005,1.005,1
"322",6201,21,"male","right",4,52,"C.bmp","GoodSelf.bmp","Matching","Self","Self","Self",857,0.857,1
"323",6201,21,"male","right",4,53,"C.bmp","GoodSelf.bmp","Matching","Self","Self","Self",461,0.461,1
"324",6201,21,"male","right",4,54,"T.bmp","BadSelf.bmp","Nonmatching","Self","Self","Self",633,0.633,0
"325",6201,21,"male","right",4,55,"D.bmp","BadSelf.bmp","Matching","Self","Self","Self",605,0.605,1
"326",6201,21,"male","right",4,56,"D.bmp","NormalSelf.bmp","Nonmatching","Self","Self","Self",0,0,0
"327",6201,21,"male","right",4,57,"P.bmp","GoodSelf.bmp","Nonmatching","Self","Self","Self",685,0.685,0
"328",6201,21,"male","right",4,58,"T.bmp","BadOther.bmp","Matching","Stranger","Stranger","Stranger",0,0,0
"329",6201,21,"male","right",4,59,"C.bmp","BadOther.bmp","Nonmatching","Stranger","Stranger","Stranger",709,0.709,1
"330",6201,21,"male","right",4,60,"S.bmp","NormalOther.bmp","Matching","Stranger","Stranger","Stranger",383,0.383,1
"331",6201,21,"male","right",4,61,"T.bmp","BadOther.bmp","Matching","Stranger","Stranger","Stranger",980,0.98,1
"332",6201,21,"male","right",4,62,"S.bmp","NormalOther.bmp","Matching","Stranger","Stranger","Stranger",808,0.808,1
"333",6201,21,"male","right",4,63,"Tra.bmp","NormalSelf.bmp","Matching","Self","Self","Self",331,0.331,1
"334",6201,21,"male","right",4,64,"S.bmp","NormalOther.bmp","Matching","Stranger","Stranger","Stranger",943,0.943,1
"335",6201,21,"male","right",4,65,"T.bmp","BadOther.bmp","Matching","Stranger","Stranger","Stranger",651,0.651,1
"336",6201,21,"male","right",4,66,"S.bmp","NormalSelf.bmp","Nonmatching","Self","Self","Self",775,0.775,0
"337",6201,21,"male","right",4,67,"S.bmp","NormalOther.bmp","Matching","Stranger","Stranger","Stranger",275,0.275,1
"338",6201,21,"male","right",4,68,"C.bmp","GoodSelf.bmp","Matching","Self","Self","Self",295,0.295,1
"339",6201,21,"male","right",4,69,"S.bmp","GoodOther.bmp","Nonmatching","Stranger","Stranger","Stranger",547,0.547,0
"340",6201,21,"male","right",4,70,"P.bmp","GoodOther.bmp","Matching","Stranger","Stranger","Stranger",703,0.703,1
"341",6201,21,"male","right",4,71,"T.bmp","BadOther.bmp","Matching","Stranger","Stranger","Stranger",1023,1.023,0
"342",6201,21,"male","right",4,72,"P.bmp","BadSelf.bmp","Nonmatching","Self","Self","Self",858,0.858,1
"343",6201,21,"male","right",4,73,"P.bmp","NormalSelf.bmp","Nonmatching","Self","Self","Self",1006,1.006,1
"344",6201,21,"male","right",4,74,"P.bmp","BadOther.bmp","Nonmatching","Stranger","Stranger","Stranger",0,0,0
"345",6201,21,"male","right",4,75,"C.bmp","GoodSelf.bmp","Matching","Self","Self","Self",318,0.318,1
"346",6201,21,"male","right",4,76,"S.bmp","NormalOther.bmp","Matching","Stranger","Stranger","Stranger",777,0.777,1
"347",6201,21,"male","right",4,77,"D.bmp","BadSelf.bmp","Matching","Self","Self","Self",373,0.373,1
"348",6201,21,"male","right",4,78,"C.bmp","GoodSelf.bmp","Matching","Self","Self","Self",913,0.913,1
"349",6201,21,"male","right",4,79,"P.bmp","GoodOther.bmp","Matching","Stranger","Stranger","Stranger",573,0.573,1
"350",6201,21,"male","right",4,80,"S.bmp","GoodSelf.bmp","Nonmatching","Self","Self","Self",449,0.449,1
"351",6201,21,"male","right",4,81,"Tra.bmp","BadOther.bmp","Nonmatching","Stranger","Stranger","Stranger",525,0.525,0
"352",6201,21,"male","right",4,82,"Tra.bmp","NormalSelf.bmp","Matching","Self","Self","Self",815,0.815,1
"353",6201,21,"male","right",4,83,"C.bmp","GoodSelf.bmp","Matching","Self","Self","Self",408,0.408,1
"354",6201,21,"male","right",4,84,"S.bmp","NormalOther.bmp","Matching","Stranger","Stranger","Stranger",844,0.844,1
"355",6201,21,"male","right",4,85,"T.bmp","BadOther.bmp","Matching","Stranger","Stranger","Stranger",680,0.68,1
"356",6201,21,"male","right",4,86,"D.bmp","BadSelf.bmp","Matching","Self","Self","Self",348,0.348,1
"357",6201,21,"male","right",4,87,"S.bmp","NormalOther.bmp","Matching","Stranger","Stranger","Stranger",552,0.552,1
"358",6201,21,"male","right",4,88,"S.bmp","NormalOther.bmp","Matching","Stranger","Stranger","Stranger",819,0.819,1
"359",6201,21,"male","right",4,89,"Tra.bmp","NormalOther.bmp","Nonmatching","Stranger","Stranger","Stranger",767,0.767,1
"360",6201,21,"male","right",4,90,"Tra.bmp","GoodOther.bmp","Nonmatching","Stranger","Stranger","Stranger",819,0.819,0
"361",6201,21,"male","right",5,1,"T.bmp","BadOther.bmp","Matching","Stranger","Stranger","Stranger",656,0.656,1
"362",6201,21,"male","right",5,2,"S.bmp","BadSelf.bmp","Nonmatching","Self","Self","Self",548,0.548,1
"363",6201,21,"male","right",5,3,"C.bmp","GoodSelf.bmp","Matching","Self","Self","Self",576,0.576,1
"364",6201,21,"male","right",5,4,"D.bmp","BadSelf.bmp","Matching","Self","Self","Self",772,0.772,1
"365",6201,21,"male","right",5,5,"P.bmp","GoodOther.bmp","Matching","Stranger","Stranger","Stranger",840,0.84,1
"366",6201,21,"male","right",5,6,"P.bmp","GoodSelf.bmp","Nonmatching","Self","Self","Self",700,0.7,0
"367",6201,21,"male","right",5,7,"S.bmp","NormalOther.bmp","Matching","Stranger","Stranger","Stranger",629,0.629,1
"368",6201,21,"male","right",5,8,"P.bmp","GoodOther.bmp","Matching","Stranger","Stranger","Stranger",682,0.682,1
"369",6201,21,"male","right",5,9,"Tra.bmp","NormalSelf.bmp","Matching","Self","Self","Self",798,0.798,1
"370",6201,21,"male","right",5,10,"C.bmp","BadSelf.bmp","Nonmatching","Self","Self","Self",890,0.89,1
"371",6201,21,"male","right",5,11,"Tra.bmp","GoodSelf.bmp","Nonmatching","Self","Self","Self",766,0.766,1
"372",6201,21,"male","right",5,12,"P.bmp","GoodOther.bmp","Matching","Stranger","Stranger","Stranger",354,0.354,1
"373",6201,21,"male","right",5,13,"Tra.bmp","NormalOther.bmp","Nonmatching","Stranger","Stranger","Stranger",934,0.934,1
"374",6201,21,"male","right",5,14,"Tra.bmp","NormalSelf.bmp","Matching","Self","Self","Self",378,0.378,1
"375",6201,21,"male","right",5,15,"P.bmp","NormalOther.bmp","Nonmatching","Stranger","Stranger","Stranger",678,0.678,1
"376",6201,21,"male","right",5,16,"C.bmp","GoodSelf.bmp","Matching","Self","Self","Self",626,0.626,1
"377",6201,21,"male","right",5,17,"S.bmp","NormalOther.bmp","Matching","Stranger","Stranger","Stranger",502,0.502,0
"378",6201,21,"male","right",5,18,"D.bmp","BadSelf.bmp","Matching","Self","Self","Self",1072,1.072,1
"379",6201,21,"male","right",5,19,"S.bmp","GoodSelf.bmp","Nonmatching","Self","Self","Self",476,0.476,1
"380",6201,21,"male","right",5,20,"C.bmp","GoodSelf.bmp","Matching","Self","Self","Self",480,0.48,1
"381",6201,21,"male","right",5,21,"T.bmp","BadOther.bmp","Matching","Stranger","Stranger","Stranger",708,0.708,1
"382",6201,21,"male","right",5,22,"S.bmp","NormalOther.bmp","Matching","Stranger","Stranger","Stranger",440,0.44,1
"383",6201,21,"male","right",5,23,"Tra.bmp","NormalSelf.bmp","Matching","Self","Self","Self",572,0.572,1
"384",6201,21,"male","right",5,24,"C.bmp","GoodSelf.bmp","Matching","Self","Self","Self",568,0.568,1
"385",6201,21,"male","right",5,25,"P.bmp","BadOther.bmp","Nonmatching","Stranger","Stranger","Stranger",1012,1.012,1
"386",6201,21,"male","right",5,26,"S.bmp","NormalOther.bmp","Matching","Stranger","Stranger","Stranger",808,0.808,1
"387",6201,21,"male","right",5,27,"P.bmp","GoodOther.bmp","Matching","Stranger","Stranger","Stranger",500,0.5,1
"388",6201,21,"male","right",5,28,"T.bmp","BadOther.bmp","Matching","Stranger","Stranger","Stranger",424,0.424,1
"389",6201,21,"male","right",5,29,"D.bmp","BadSelf.bmp","Matching","Self","Self","Self",600,0.6,0
"390",6201,21,"male","right",5,30,"T.bmp","BadOther.bmp","Matching","Stranger","Stranger","Stranger",505,0.505,1
"391",6201,21,"male","right",5,31,"D.bmp","GoodOther.bmp","Nonmatching","Stranger","Stranger","Stranger",717,0.717,1
"392",6201,21,"male","right",5,32,"S.bmp","NormalOther.bmp","Matching","Stranger","Stranger","Stranger",984,0.984,1
"393",6201,21,"male","right",5,33,"P.bmp","GoodOther.bmp","Matching","Stranger","Stranger","Stranger",460,0.46,1
"394",6201,21,"male","right",5,34,"C.bmp","GoodSelf.bmp","Matching","Self","Self","Self",640,0.64,1
"395",6201,21,"male","right",5,35,"T.bmp","NormalOther.bmp","Nonmatching","Stranger","Stranger","Stranger",708,0.708,0
"396",6201,21,"male","right",5,36,"C.bmp","BadOther.bmp","Nonmatching","Stranger","Stranger","Stranger",552,0.552,1
"397",6201,21,"male","right",5,37,"Tra.bmp","NormalSelf.bmp","Matching","Self","Self","Self",588,0.588,1
"398",6201,21,"male","right",5,38,"D.bmp","GoodSelf.bmp","Nonmatching","Self","Self","Self",856,0.856,1
"399",6201,21,"male","right",5,39,"Tra.bmp","NormalSelf.bmp","Matching","Self","Self","Self",572,0.572,1
"400",6201,21,"male","right",5,40,"T.bmp","GoodOther.bmp","Nonmatching","Stranger","Stranger","Stranger",556,0.556,1
"401",6201,21,"male","right",5,41,"D.bmp","BadSelf.bmp","Matching","Self","Self","Self",703,0.703,0
"402",6201,21,"male","right",5,42,"Tra.bmp","BadOther.bmp","Nonmatching","Stranger","Stranger","Stranger",1043,1.043,1
"403",6201,21,"male","right",5,43,"P.bmp","GoodOther.bmp","Matching","Stranger","Stranger","Stranger",695,0.695,1
"404",6201,21,"male","right",5,44,"D.bmp","NormalOther.bmp","Nonmatching","Stranger","Stranger","Stranger",770,0.77,1
"405",6201,21,"male","right",5,45,"P.bmp","GoodOther.bmp","Matching","Stranger","Stranger","Stranger",750,0.75,1
"406",6201,21,"male","right",5,46,"C.bmp","GoodSelf.bmp","Matching","Self","Self","Self",346,0.346,1
"407",6201,21,"male","right",5,47,"C.bmp","GoodOther.bmp","Nonmatching","Stranger","Stranger","Stranger",630,0.63,0
"408",6201,21,"male","right",5,48,"C.bmp","GoodSelf.bmp","Matching","Self","Self","Self",466,0.466,1
"409",6201,21,"male","right",5,49,"Tra.bmp","NormalSelf.bmp","Matching","Self","Self","Self",974,0.974,1
"410",6201,21,"male","right",5,50,"C.bmp","GoodSelf.bmp","Matching","Self","Self","Self",682,0.682,1
"411",6201,21,"male","right",5,51,"S.bmp","GoodOther.bmp","Nonmatching","Stranger","Stranger","Stranger",434,0.434,1
"412",6201,21,"male","right",5,52,"Tra.bmp","NormalSelf.bmp","Matching","Self","Self","Self",429,0.429,1
"413",6201,21,"male","right",5,53,"D.bmp","NormalSelf.bmp","Nonmatching","Self","Self","Self",409,0.409,1
"414",6201,21,"male","right",5,54,"D.bmp","BadSelf.bmp","Matching","Self","Self","Self",677,0.677,1
"415",6201,21,"male","right",5,55,"D.bmp","BadSelf.bmp","Matching","Self","Self","Self",689,0.689,1
"416",6201,21,"male","right",5,56,"S.bmp","NormalOther.bmp","Matching","Stranger","Stranger","Stranger",0,0,0
"417",6201,21,"male","right",5,57,"S.bmp","NormalOther.bmp","Matching","Stranger","Stranger","Stranger",592,0.592,1
"418",6201,21,"male","right",5,58,"S.bmp","NormalOther.bmp","Matching","Stranger","Stranger","Stranger",412,0.412,1
"419",6201,21,"male","right",5,59,"C.bmp","NormalSelf.bmp","Nonmatching","Self","Self","Self",480,0.48,1
"420",6201,21,"male","right",5,60,"S.bmp","NormalSelf.bmp","Nonmatching","Self","Self","Self",884,0.884,1
"421",6201,21,"male","right",5,61,"T.bmp","BadOther.bmp","Matching","Stranger","Stranger","Stranger",416,0.416,1
"422",6201,21,"male","right",5,62,"Tra.bmp","NormalSelf.bmp","Matching","Self","Self","Self",528,0.528,1
"423",6201,21,"male","right",5,63,"D.bmp","BadSelf.bmp","Matching","Self","Self","Self",729,0.729,1
"424",6201,21,"male","right",5,64,"P.bmp","GoodOther.bmp","Matching","Stranger","Stranger","Stranger",0,0,0
"425",6201,21,"male","right",5,65,"Tra.bmp","NormalSelf.bmp","Matching","Self","Self","Self",441,0.441,1
"426",6201,21,"male","right",5,66,"S.bmp","NormalOther.bmp","Matching","Stranger","Stranger","Stranger",373,0.373,1
"427",6201,21,"male","right",5,67,"T.bmp","BadOther.bmp","Matching","Stranger","Stranger","Stranger",537,0.537,1
"428",6201,21,"male","right",5,68,"D.bmp","BadSelf.bmp","Matching","Self","Self","Self",765,0.765,1
"429",6201,21,"male","right",5,69,"T.bmp","NormalSelf.bmp","Nonmatching","Self","Self","Self",776,0.776,1
"430",6201,21,"male","right",5,70,"D.bmp","BadSelf.bmp","Matching","Self","Self","Self",708,0.708,1
"431",6201,21,"male","right",5,71,"T.bmp","BadOther.bmp","Matching","Stranger","Stranger","Stranger",608,0.608,1
"432",6201,21,"male","right",5,72,"P.bmp","NormalSelf.bmp","Nonmatching","Self","Self","Self",588,0.588,0
"433",6201,21,"male","right",5,73,"P.bmp","BadSelf.bmp","Nonmatching","Self","Self","Self",806,0.806,1
"434",6201,21,"male","right",5,74,"T.bmp","BadOther.bmp","Matching","Stranger","Stranger","Stranger",775,0.775,1
"435",6201,21,"male","right",5,75,"D.bmp","BadSelf.bmp","Matching","Self","Self","Self",635,0.635,1
"436",6201,21,"male","right",5,76,"C.bmp","NormalOther.bmp","Nonmatching","Stranger","Stranger","Stranger",623,0.623,1
"437",6201,21,"male","right",5,77,"S.bmp","NormalOther.bmp","Matching","Stranger","Stranger","Stranger",635,0.635,1
"438",6201,21,"male","right",5,78,"T.bmp","BadOther.bmp","Matching","Stranger","Stranger","Stranger",479,0.479,1
"439",6201,21,"male","right",5,79,"Tra.bmp","GoodOther.bmp","Nonmatching","Stranger","Stranger","Stranger",411,0.411,1
"440",6201,21,"male","right",5,80,"T.bmp","BadSelf.bmp","Nonmatching","Self","Self","Self",863,0.863,1
"441",6201,21,"male","right",5,81,"D.bmp","BadOther.bmp","Nonmatching","Stranger","Stranger","Stranger",643,0.643,1
"442",6201,21,"male","right",5,82,"T.bmp","GoodSelf.bmp","Nonmatching","Self","Self","Self",534,0.534,0
"443",6201,21,"male","right",5,83,"Tra.bmp","NormalSelf.bmp","Matching","Self","Self","Self",650,0.65,1
"444",6201,21,"male","right",5,84,"C.bmp","GoodSelf.bmp","Matching","Self","Self","Self",770,0.77,1
"445",6201,21,"male","right",5,85,"P.bmp","GoodOther.bmp","Matching","Stranger","Stranger","Stranger",597,0.597,0
"446",6201,21,"male","right",5,86,"C.bmp","GoodSelf.bmp","Matching","Self","Self","Self",297,0.297,1
"447",6201,21,"male","right",5,87,"S.bmp","BadOther.bmp","Nonmatching","Stranger","Stranger","Stranger",613,0.613,0
"448",6201,21,"male","right",5,88,"Tra.bmp","BadSelf.bmp","Nonmatching","Self","Self","Self",569,0.569,1
"449",6201,21,"male","right",5,89,"T.bmp","BadOther.bmp","Matching","Stranger","Stranger","Stranger",685,0.685,1
"450",6201,21,"male","right",5,90,"P.bmp","GoodOther.bmp","Matching","Stranger","Stranger","Stranger",609,0.609,1
"451",6201,21,"male","right",6,1,"C.bmp","GoodSelf.bmp","Matching","Self","Self","Self",381,0.381,1
"452",6201,21,"male","right",6,2,"Tra.bmp","NormalSelf.bmp","Matching","Self","Self","Self",469,0.469,1
"453",6201,21,"male","right",6,3,"S.bmp","NormalOther.bmp","Matching","Stranger","Stranger","Stranger",818,0.818,1
"454",6201,21,"male","right",6,4,"S.bmp","NormalOther.bmp","Matching","Stranger","Stranger","Stranger",310,0.31,1
"455",6201,21,"male","right",6,5,"Tra.bmp","NormalSelf.bmp","Matching","Self","Self","Self",505,0.505,1
"456",6201,21,"male","right",6,6,"T.bmp","GoodSelf.bmp","Nonmatching","Self","Self","Self",773,0.773,1
"457",6201,21,"male","right",6,7,"P.bmp","GoodOther.bmp","Matching","Stranger","Stranger","Stranger",681,0.681,1
"458",6201,21,"male","right",6,8,"S.bmp","BadOther.bmp","Nonmatching","Stranger","Stranger","Stranger",525,0.525,1
"459",6201,21,"male","right",6,9,"P.bmp","GoodOther.bmp","Matching","Stranger","Stranger","Stranger",505,0.505,1
"460",6201,21,"male","right",6,10,"D.bmp","BadSelf.bmp","Matching","Self","Self","Self",685,0.685,1
"461",6201,21,"male","right",6,11,"S.bmp","GoodSelf.bmp","Nonmatching","Self","Self","Self",449,0.449,1
"462",6201,21,"male","right",6,12,"P.bmp","GoodOther.bmp","Matching","Stranger","Stranger","Stranger",621,0.621,1
"463",6201,21,"male","right",6,13,"D.bmp","GoodSelf.bmp","Nonmatching","Self","Self","Self",445,0.445,1
"464",6201,21,"male","right",6,14,"Tra.bmp","NormalSelf.bmp","Matching","Self","Self","Self",394,0.394,1
"465",6201,21,"male","right",6,15,"Tra.bmp","NormalSelf.bmp","Matching","Self","Self","Self",382,0.382,1
"466",6201,21,"male","right",6,16,"P.bmp","GoodOther.bmp","Matching","Stranger","Stranger","Stranger",1058,1.058,1
"467",6201,21,"male","right",6,17,"Tra.bmp","NormalOther.bmp","Nonmatching","Stranger","Stranger","Stranger",0,0,0
"468",6201,21,"male","right",6,18,"P.bmp","NormalOther.bmp","Nonmatching","Stranger","Stranger","Stranger",633,0.633,1
"469",6201,21,"male","right",6,19,"T.bmp","BadOther.bmp","Matching","Stranger","Stranger","Stranger",805,0.805,1
"470",6201,21,"male","right",6,20,"C.bmp","NormalSelf.bmp","Nonmatching","Self","Self","Self",673,0.673,1
"471",6201,21,"male","right",6,21,"D.bmp","GoodOther.bmp","Nonmatching","Stranger","Stranger","Stranger",965,0.965,1
"472",6201,21,"male","right",6,22,"P.bmp","GoodOther.bmp","Matching","Stranger","Stranger","Stranger",553,0.553,1
"473",6201,21,"male","right",6,23,"S.bmp","NormalOther.bmp","Matching","Stranger","Stranger","Stranger",925,0.925,1
"474",6201,21,"male","right",6,24,"Tra.bmp","BadSelf.bmp","Nonmatching","Self","Self","Self",669,0.669,1
"475",6201,21,"male","right",6,25,"C.bmp","GoodSelf.bmp","Matching","Self","Self","Self",610,0.61,1
"476",6201,21,"male","right",6,26,"D.bmp","BadSelf.bmp","Matching","Self","Self","Self",798,0.798,0
"477",6201,21,"male","right",6,27,"S.bmp","NormalOther.bmp","Matching","Stranger","Stranger","Stranger",650,0.65,1
"478",6201,21,"male","right",6,28,"Tra.bmp","NormalSelf.bmp","Matching","Self","Self","Self",414,0.414,1
"479",6201,21,"male","right",6,29,"T.bmp","BadOther.bmp","Matching","Stranger","Stranger","Stranger",849,0.849,1
"480",6201,21,"male","right",6,30,"T.bmp","BadOther.bmp","Matching","Stranger","Stranger","Stranger",493,0.493,1
"481",6201,21,"male","right",6,31,"Tra.bmp","NormalSelf.bmp","Matching","Self","Self","Self",857,0.857,1
"482",6201,21,"male","right",6,32,"C.bmp","GoodSelf.bmp","Matching","Self","Self","Self",365,0.365,1
"483",6201,21,"male","right",6,33,"S.bmp","NormalOther.bmp","Matching","Stranger","Stranger","Stranger",833,0.833,1
"484",6201,21,"male","right",6,34,"D.bmp","NormalOther.bmp","Nonmatching","Stranger","Stranger","Stranger",851,0.851,1
"485",6201,21,"male","right",6,35,"D.bmp","BadSelf.bmp","Matching","Self","Self","Self",443,0.443,1
"486",6201,21,"male","right",6,36,"C.bmp","GoodSelf.bmp","Matching","Self","Self","Self",328,0.328,1
"487",6201,21,"male","right",6,37,"C.bmp","GoodSelf.bmp","Matching","Self","Self","Self",396,0.396,1
"488",6201,21,"male","right",6,38,"D.bmp","BadSelf.bmp","Matching","Self","Self","Self",640,0.64,1
"489",6201,21,"male","right",6,39,"P.bmp","GoodOther.bmp","Matching","Stranger","Stranger","Stranger",532,0.532,1
"490",6201,21,"male","right",6,40,"Tra.bmp","NormalSelf.bmp","Matching","Self","Self","Self",744,0.744,1
"491",6201,21,"male","right",6,41,"S.bmp","NormalOther.bmp","Matching","Stranger","Stranger","Stranger",540,0.54,1
"492",6201,21,"male","right",6,42,"T.bmp","BadOther.bmp","Matching","Stranger","Stranger","Stranger",711,0.711,1
"493",6201,21,"male","right",6,43,"P.bmp","BadOther.bmp","Nonmatching","Stranger","Stranger","Stranger",523,0.523,1
"494",6201,21,"male","right",6,44,"C.bmp","BadSelf.bmp","Nonmatching","Self","Self","Self",903,0.903,1
"495",6201,21,"male","right",6,45,"C.bmp","GoodSelf.bmp","Matching","Self","Self","Self",339,0.339,1
"496",6201,21,"male","right",6,46,"T.bmp","BadOther.bmp","Matching","Stranger","Stranger","Stranger",475,0.475,1
"497",6201,21,"male","right",6,47,"Tra.bmp","GoodSelf.bmp","Nonmatching","Self","Self","Self",568,0.568,0
"498",6201,21,"male","right",6,48,"T.bmp","GoodOther.bmp","Nonmatching","Stranger","Stranger","Stranger",0,0,0
"499",6201,21,"male","right",6,49,"P.bmp","GoodOther.bmp","Matching","Stranger","Stranger","Stranger",656,0.656,1
"500",6201,21,"male","right",6,50,"D.bmp","BadSelf.bmp","Matching","Self","Self","Self",756,0.756,1
"501",6201,21,"male","right",6,51,"S.bmp","NormalSelf.bmp","Nonmatching","Self","Self","Self",560,0.56,1
"502",6201,21,"male","right",6,52,"Tra.bmp","GoodOther.bmp","Nonmatching","Stranger","Stranger","Stranger",516,0.516,1
"503",6201,21,"male","right",6,53,"T.bmp","BadOther.bmp","Matching","Stranger","Stranger","Stranger",0,0,0
"504",6201,21,"male","right",6,54,"T.bmp","NormalSelf.bmp","Nonmatching","Self","Self","Self",660,0.66,1
"505",6201,21,"male","right",6,55,"P.bmp","NormalSelf.bmp","Nonmatching","Self","Self","Self",1071,1.071,1
"506",6201,21,"male","right",6,56,"Tra.bmp","NormalSelf.bmp","Matching","Self","Self","Self",569,0.569,1
"507",6201,21,"male","right",6,57,"D.bmp","BadSelf.bmp","Matching","Self","Self","Self",593,0.593,1
"508",6201,21,"male","right",6,58,"T.bmp","BadOther.bmp","Matching","Stranger","Stranger","Stranger",670,0.67,1
"509",6201,21,"male","right",6,59,"P.bmp","BadSelf.bmp","Nonmatching","Self","Self","Self",634,0.634,1
"510",6201,21,"male","right",6,60,"C.bmp","GoodSelf.bmp","Matching","Self","Self","Self",0,0,0
"511",6201,21,"male","right",6,61,"S.bmp","GoodOther.bmp","Nonmatching","Stranger","Stranger","Stranger",754,0.754,1
"512",6201,21,"male","right",6,62,"S.bmp","NormalOther.bmp","Matching","Stranger","Stranger","Stranger",366,0.366,1
"513",6201,21,"male","right",6,63,"C.bmp","GoodOther.bmp","Nonmatching","Stranger","Stranger","Stranger",922,0.922,1
"514",6201,21,"male","right",6,64,"Tra.bmp","BadOther.bmp","Nonmatching","Stranger","Stranger","Stranger",990,0.99,0
"515",6201,21,"male","right",6,65,"T.bmp","BadOther.bmp","Matching","Stranger","Stranger","Stranger",882,0.882,1
"516",6201,21,"male","right",6,66,"D.bmp","BadSelf.bmp","Matching","Self","Self","Self",838,0.838,1
"517",6201,21,"male","right",6,67,"D.bmp","BadSelf.bmp","Matching","Self","Self","Self",591,0.591,1
"518",6201,21,"male","right",6,68,"D.bmp","BadSelf.bmp","Matching","Self","Self","Self",399,0.399,1
"519",6201,21,"male","right",6,69,"T.bmp","NormalOther.bmp","Nonmatching","Stranger","Stranger","Stranger",876,0.876,1
"520",6201,21,"male","right",6,70,"S.bmp","NormalOther.bmp","Matching","Stranger","Stranger","Stranger",352,0.352,1
"521",6201,21,"male","right",6,71,"D.bmp","NormalSelf.bmp","Nonmatching","Self","Self","Self",0,0,0
"522",6201,21,"male","right",6,72,"P.bmp","GoodOther.bmp","Matching","Stranger","Stranger","Stranger",768,0.768,1
"523",6201,21,"male","right",6,73,"C.bmp","GoodSelf.bmp","Matching","Self","Self","Self",284,0.284,1
"524",6201,21,"male","right",6,74,"C.bmp","BadOther.bmp","Nonmatching","Stranger","Stranger","Stranger",544,0.544,1
"525",6201,21,"male","right",6,75,"S.bmp","NormalOther.bmp","Matching","Stranger","Stranger","Stranger",396,0.396,1
"526",6201,21,"male","right",6,76,"D.bmp","BadOther.bmp","Nonmatching","Stranger","Stranger","Stranger",736,0.736,0
"527",6201,21,"male","right",6,77,"C.bmp","GoodSelf.bmp","Matching","Self","Self","Self",0,0,0
"528",6201,21,"male","right",6,78,"T.bmp","BadOther.bmp","Matching","Stranger","Stranger","Stranger",960,0.96,1
"529",6201,21,"male","right",6,79,"Tra.bmp","NormalSelf.bmp","Matching","Self","Self","Self",616,0.616,1
"530",6201,21,"male","right",6,80,"P.bmp","GoodOther.bmp","Matching","Stranger","Stranger","Stranger",1004,1.004,1
"531",6201,21,"male","right",6,81,"T.bmp","BadOther.bmp","Matching","Stranger","Stranger","Stranger",0,0,0
"532",6201,21,"male","right",6,82,"P.bmp","GoodOther.bmp","Matching","Stranger","Stranger","Stranger",524,0.524,1
"533",6201,21,"male","right",6,83,"C.bmp","NormalOther.bmp","Nonmatching","Stranger","Stranger","Stranger",736,0.736,0
"534",6201,21,"male","right",6,84,"C.bmp","GoodSelf.bmp","Matching","Self","Self","Self",452,0.452,1
"535",6201,21,"male","right",6,85,"T.bmp","BadSelf.bmp","Nonmatching","Self","Self","Self",0,0,0
"536",6201,21,"male","right",6,86,"Tra.bmp","NormalSelf.bmp","Matching","Self","Self","Self",428,0.428,1
"537",6201,21,"male","right",6,87,"S.bmp","NormalOther.bmp","Matching","Stranger","Stranger","Stranger",304,0.304,1
"538",6201,21,"male","right",6,88,"P.bmp","GoodSelf.bmp","Nonmatching","Self","Self","Self",0,0,0
"539",6201,21,"male","right",6,89,"D.bmp","BadSelf.bmp","Matching","Self","Self","Self",0,0,0
"540",6201,21,"male","right",6,90,"S.bmp","BadSelf.bmp","Nonmatching","Self","Self","Self",918,0.918,1
"541",6201,21,"male","right",7,1,"T.bmp","NormalSelf.bmp","Nonmatching","Self","Self","Self",711,0.711,1
"542",6201,21,"male","right",7,2,"P.bmp","GoodOther.bmp","Matching","Stranger","Stranger","Stranger",411,0.411,1
"543",6201,21,"male","right",7,3,"C.bmp","GoodSelf.bmp","Matching","Self","Self","Self",431,0.431,1
"544",6201,21,"male","right",7,4,"S.bmp","NormalOther.bmp","Matching","Stranger","Stranger","Stranger",715,0.715,1
"545",6201,21,"male","right",7,5,"Tra.bmp","NormalSelf.bmp","Matching","Self","Self","Self",0,0,0
"546",6201,21,"male","right",7,6,"T.bmp","BadOther.bmp","Matching","Stranger","Stranger","Stranger",891,0.891,1
"547",6201,21,"male","right",7,7,"Tra.bmp","NormalSelf.bmp","Matching","Self","Self","Self",447,0.447,1
"548",6201,21,"male","right",7,8,"S.bmp","NormalOther.bmp","Matching","Stranger","Stranger","Stranger",1011,1.011,1
"549",6201,21,"male","right",7,9,"S.bmp","NormalOther.bmp","Matching","Stranger","Stranger","Stranger",399,0.399,1
"550",6201,21,"male","right",7,10,"P.bmp","GoodOther.bmp","Matching","Stranger","Stranger","Stranger",743,0.743,1
"551",6201,21,"male","right",7,11,"C.bmp","GoodSelf.bmp","Matching","Self","Self","Self",636,0.636,1
"552",6201,21,"male","right",7,12,"C.bmp","GoodSelf.bmp","Matching","Self","Self","Self",456,0.456,1
"553",6201,21,"male","right",7,13,"C.bmp","NormalSelf.bmp","Nonmatching","Self","Self","Self",699,0.699,1
"554",6201,21,"male","right",7,14,"P.bmp","GoodSelf.bmp","Nonmatching","Self","Self","Self",935,0.935,1
"555",6201,21,"male","right",7,15,"Tra.bmp","NormalOther.bmp","Nonmatching","Stranger","Stranger","Stranger",675,0.675,1
"556",6201,21,"male","right",7,16,"C.bmp","GoodSelf.bmp","Matching","Self","Self","Self",535,0.535,1
"557",6201,21,"male","right",7,17,"T.bmp","BadOther.bmp","Matching","Stranger","Stranger","Stranger",411,0.411,1
"558",6201,21,"male","right",7,18,"S.bmp","NormalOther.bmp","Matching","Stranger","Stranger","Stranger",871,0.871,1
"559",6201,21,"male","right",7,19,"P.bmp","GoodOther.bmp","Matching","Stranger","Stranger","Stranger",587,0.587,1
"560",6201,21,"male","right",7,20,"P.bmp","NormalSelf.bmp","Nonmatching","Self","Self","Self",477,0.477,0
"561",6201,21,"male","right",7,21,"Tra.bmp","NormalSelf.bmp","Matching","Self","Self","Self",485,0.485,1
"562",6201,21,"male","right",7,22,"P.bmp","GoodOther.bmp","Matching","Stranger","Stranger","Stranger",506,0.506,1
"563",6201,21,"male","right",7,23,"C.bmp","GoodSelf.bmp","Matching","Self","Self","Self",262,0.262,1
"564",6201,21,"male","right",7,24,"T.bmp","BadOther.bmp","Matching","Stranger","Stranger","Stranger",802,0.802,0
"565",6201,21,"male","right",7,25,"S.bmp","BadOther.bmp","Nonmatching","Stranger","Stranger","Stranger",0,0,0
"566",6201,21,"male","right",7,26,"C.bmp","GoodSelf.bmp","Matching","Self","Self","Self",0,0,0
"567",6201,21,"male","right",7,27,"Tra.bmp","BadOther.bmp","Nonmatching","Stranger","Stranger","Stranger",0,0,0
"568",6201,21,"male","right",7,28,"Tra.bmp","NormalSelf.bmp","Matching","Self","Self","Self",929,0.929,1
"569",6201,21,"male","right",7,29,"P.bmp","GoodOther.bmp","Matching","Stranger","Stranger","Stranger",381,0.381,1
"570",6201,21,"male","right",7,30,"S.bmp","NormalOther.bmp","Matching","Stranger","Stranger","Stranger",729,0.729,1
"571",6201,21,"male","right",7,31,"Tra.bmp","NormalSelf.bmp","Matching","Self","Self","Self",539,0.539,1
"572",6201,21,"male","right",7,32,"C.bmp","GoodSelf.bmp","Matching","Self","Self","Self",571,0.571,1
"573",6201,21,"male","right",7,33,"T.bmp","BadOther.bmp","Matching","Stranger","Stranger","Stranger",1024,1.024,1
"574",6201,21,"male","right",7,34,"T.bmp","BadOther.bmp","Matching","Stranger","Stranger","Stranger",500,0.5,1
"575",6201,21,"male","right",7,35,"D.bmp","BadSelf.bmp","Matching","Self","Self","Self",360,0.36,1
"576",6201,21,"male","right",7,36,"D.bmp","BadSelf.bmp","Matching","Self","Self","Self",0,0,0
"577",6201,21,"male","right",7,37,"C.bmp","NormalOther.bmp","Nonmatching","Stranger","Stranger","Stranger",832,0.832,1
"578",6201,21,"male","right",7,38,"C.bmp","GoodSelf.bmp","Matching","Self","Self","Self",403,0.403,1
"579",6201,21,"male","right",7,39,"C.bmp","BadOther.bmp","Nonmatching","Stranger","Stranger","Stranger",727,0.727,1
"580",6201,21,"male","right",7,40,"D.bmp","BadSelf.bmp","Matching","Self","Self","Self",955,0.955,1
"581",6201,21,"male","right",7,41,"T.bmp","BadOther.bmp","Matching","Stranger","Stranger","Stranger",703,0.703,1
"582",6201,21,"male","right",7,42,"S.bmp","NormalOther.bmp","Matching","Stranger","Stranger","Stranger",729,0.729,1
"583",6201,21,"male","right",7,43,"D.bmp","GoodSelf.bmp","Nonmatching","Self","Self","Self",530,0.53,0
"584",6201,21,"male","right",7,44,"D.bmp","BadSelf.bmp","Matching","Self","Self","Self",958,0.958,1
"585",6201,21,"male","right",7,45,"Tra.bmp","NormalSelf.bmp","Matching","Self","Self","Self",610,0.61,1
"586",6201,21,"male","right",7,46,"P.bmp","GoodOther.bmp","Matching","Stranger","Stranger","Stranger",566,0.566,1
"587",6201,21,"male","right",7,47,"P.bmp","GoodOther.bmp","Matching","Stranger","Stranger","Stranger",354,0.354,1
"588",6201,21,"male","right",7,48,"C.bmp","GoodSelf.bmp","Matching","Self","Self","Self",582,0.582,1
"589",6201,21,"male","right",7,49,"Tra.bmp","GoodOther.bmp","Nonmatching","Stranger","Stranger","Stranger",706,0.706,0
"590",6201,21,"male","right",7,50,"T.bmp","BadOther.bmp","Matching","Stranger","Stranger","Stranger",0,0,0
"591",6201,21,"male","right",7,51,"D.bmp","BadSelf.bmp","Matching","Self","Self","Self",921,0.921,1
"592",6201,21,"male","right",7,52,"P.bmp","GoodOther.bmp","Matching","Stranger","Stranger","Stranger",0,0,0
"593",6201,21,"male","right",7,53,"P.bmp","BadOther.bmp","Nonmatching","Stranger","Stranger","Stranger",457,0.457,0
"594",6201,21,"male","right",7,54,"D.bmp","BadSelf.bmp","Matching","Self","Self","Self",418,0.418,1
"595",6201,21,"male","right",7,55,"T.bmp","NormalOther.bmp","Nonmatching","Stranger","Stranger","Stranger",1094,1.094,0
"596",6201,21,"male","right",7,56,"Tra.bmp","BadSelf.bmp","Nonmatching","Self","Self","Self",0,0,0
"597",6201,21,"male","right",7,57,"C.bmp","GoodSelf.bmp","Matching","Self","Self","Self",462,0.462,1
"598",6201,21,"male","right",7,58,"T.bmp","BadOther.bmp","Matching","Stranger","Stranger","Stranger",618,0.618,1
"599",6201,21,"male","right",7,59,"D.bmp","NormalOther.bmp","Nonmatching","Stranger","Stranger","Stranger",982,0.982,1
"600",6201,21,"male","right",7,60,"D.bmp","NormalSelf.bmp","Nonmatching","Self","Self","Self",0,0,0
"601",6201,21,"male","right",7,61,"S.bmp","NormalOther.bmp","Matching","Stranger","Stranger","Stranger",534,0.534,1
"602",6201,21,"male","right",7,62,"T.bmp","BadSelf.bmp","Nonmatching","Self","Self","Self",618,0.618,1
"603",6201,21,"male","right",7,63,"S.bmp","GoodSelf.bmp","Nonmatching","Self","Self","Self",685,0.685,1
"604",6201,21,"male","right",7,64,"P.bmp","NormalOther.bmp","Nonmatching","Stranger","Stranger","Stranger",0,0,0
"605",6201,21,"male","right",7,65,"S.bmp","NormalOther.bmp","Matching","Stranger","Stranger","Stranger",896,0.896,1
"606",6201,21,"male","right",7,66,"T.bmp","GoodSelf.bmp","Nonmatching","Self","Self","Self",764,0.764,1
"607",6201,21,"male","right",7,67,"P.bmp","GoodOther.bmp","Matching","Stranger","Stranger","Stranger",632,0.632,1
"608",6201,21,"male","right",7,68,"S.bmp","BadSelf.bmp","Nonmatching","Self","Self","Self",1020,1.02,1
"609",6201,21,"male","right",7,69,"D.bmp","BadOther.bmp","Nonmatching","Stranger","Stranger","Stranger",952,0.952,1
"610",6201,21,"male","right",7,70,"D.bmp","BadSelf.bmp","Matching","Self","Self","Self",404,0.404,1
"611",6201,21,"male","right",7,71,"T.bmp","BadOther.bmp","Matching","Stranger","Stranger","Stranger",696,0.696,1
"612",6201,21,"male","right",7,72,"D.bmp","GoodOther.bmp","Nonmatching","Stranger","Stranger","Stranger",732,0.732,1
"613",6201,21,"male","right",7,73,"T.bmp","GoodOther.bmp","Nonmatching","Stranger","Stranger","Stranger",536,0.536,1
"614",6201,21,"male","right",7,74,"D.bmp","BadSelf.bmp","Matching","Self","Self","Self",1004,1.004,1
"615",6201,21,"male","right",7,75,"P.bmp","GoodOther.bmp","Matching","Stranger","Stranger","Stranger",718,0.718,1
"616",6201,21,"male","right",7,76,"S.bmp","GoodOther.bmp","Nonmatching","Stranger","Stranger","Stranger",974,0.974,0
"617",6201,21,"male","right",7,77,"D.bmp","BadSelf.bmp","Matching","Self","Self","Self",858,0.858,1
"618",6201,21,"male","right",7,78,"C.bmp","BadSelf.bmp","Nonmatching","Self","Self","Self",718,0.718,0
"619",6201,21,"male","right",7,79,"Tra.bmp","NormalSelf.bmp","Matching","Self","Self","Self",0,0,0
"620",6201,21,"male","right",7,80,"D.bmp","BadSelf.bmp","Matching","Self","Self","Self",0,0,0
"621",6201,21,"male","right",7,81,"Tra.bmp","NormalSelf.bmp","Matching","Self","Self","Self",442,0.442,1
"622",6201,21,"male","right",7,82,"S.bmp","NormalOther.bmp","Matching","Stranger","Stranger","Stranger",622,0.622,1
"623",6201,21,"male","right",7,83,"Tra.bmp","GoodSelf.bmp","Nonmatching","Self","Self","Self",898,0.898,1
"624",6201,21,"male","right",7,84,"Tra.bmp","NormalSelf.bmp","Matching","Self","Self","Self",766,0.766,1
"625",6201,21,"male","right",7,85,"S.bmp","NormalSelf.bmp","Nonmatching","Self","Self","Self",522,0.522,1
"626",6201,21,"male","right",7,86,"P.bmp","BadSelf.bmp","Nonmatching","Self","Self","Self",1012,1.012,1
"627",6201,21,"male","right",7,87,"Tra.bmp","NormalSelf.bmp","Matching","Self","Self","Self",829,0.829,1
"628",6201,21,"male","right",7,88,"T.bmp","BadOther.bmp","Matching","Stranger","Stranger","Stranger",744,0.744,1
"629",6201,21,"male","right",7,89,"S.bmp","NormalOther.bmp","Matching","Stranger","Stranger","Stranger",700,0.7,1
"630",6201,21,"male","right",7,90,"C.bmp","GoodOther.bmp","Nonmatching","Stranger","Stranger","Stranger",648,0.648,1
"631",6201,21,"male","right",8,1,"Tra.bmp","NormalSelf.bmp","Matching","Self","Self","Self",462,0.462,1
"632",6201,21,"male","right",8,2,"S.bmp","NormalOther.bmp","Matching","Stranger","Stranger","Stranger",450,0.45,1
"633",6201,21,"male","right",8,3,"P.bmp","GoodSelf.bmp","Nonmatching","Self","Self","Self",478,0.478,1
"634",6201,21,"male","right",8,4,"Tra.bmp","BadOther.bmp","Nonmatching","Stranger","Stranger","Stranger",722,0.722,1
"635",6201,21,"male","right",8,5,"D.bmp","BadSelf.bmp","Matching","Self","Self","Self",870,0.87,1
"636",6201,21,"male","right",8,6,"C.bmp","GoodSelf.bmp","Matching","Self","Self","Self",338,0.338,1
"637",6201,21,"male","right",8,7,"Tra.bmp","NormalOther.bmp","Nonmatching","Stranger","Stranger","Stranger",596,0.596,0
"638",6201,21,"male","right",8,8,"C.bmp","GoodSelf.bmp","Matching","Self","Self","Self",529,0.529,1
"639",6201,21,"male","right",8,9,"D.bmp","BadSelf.bmp","Matching","Self","Self","Self",421,0.421,1
"640",6201,21,"male","right",8,10,"C.bmp","GoodSelf.bmp","Matching","Self","Self","Self",305,0.305,1
"641",6201,21,"male","right",8,11,"C.bmp","GoodSelf.bmp","Matching","Self","Self","Self",381,0.381,1
"642",6201,21,"male","right",8,12,"T.bmp","BadSelf.bmp","Nonmatching","Self","Self","Self",0,0,0
"643",6201,21,"male","right",8,13,"P.bmp","NormalSelf.bmp","Nonmatching","Self","Self","Self",804,0.804,1
"644",6201,21,"male","right",8,14,"S.bmp","NormalOther.bmp","Matching","Stranger","Stranger","Stranger",320,0.32,1
"645",6201,21,"male","right",8,15,"D.bmp","BadSelf.bmp","Matching","Self","Self","Self",876,0.876,1
"646",6201,21,"male","right",8,16,"D.bmp","BadSelf.bmp","Matching","Self","Self","Self",536,0.536,1
"647",6201,21,"male","right",8,17,"S.bmp","GoodSelf.bmp","Nonmatching","Self","Self","Self",692,0.692,1
"648",6201,21,"male","right",8,18,"D.bmp","BadOther.bmp","Nonmatching","Stranger","Stranger","Stranger",0,0,0
"649",6201,21,"male","right",8,19,"T.bmp","BadOther.bmp","Matching","Stranger","Stranger","Stranger",601,0.601,1
"650",6201,21,"male","right",8,20,"P.bmp","GoodOther.bmp","Matching","Stranger","Stranger","Stranger",765,0.765,1
"651",6201,21,"male","right",8,21,"Tra.bmp","NormalSelf.bmp","Matching","Self","Self","Self",849,0.849,1
"652",6201,21,"male","right",8,22,"D.bmp","BadSelf.bmp","Matching","Self","Self","Self",373,0.373,1
"653",6201,21,"male","right",8,23,"Tra.bmp","GoodSelf.bmp","Nonmatching","Self","Self","Self",617,0.617,1
"654",6201,21,"male","right",8,24,"S.bmp","NormalOther.bmp","Matching","Stranger","Stranger","Stranger",917,0.917,1
"655",6201,21,"male","right",8,25,"C.bmp","GoodSelf.bmp","Matching","Self","Self","Self",288,0.288,1
"656",6201,21,"male","right",8,26,"P.bmp","GoodOther.bmp","Matching","Stranger","Stranger","Stranger",684,0.684,0
"657",6201,21,"male","right",8,27,"T.bmp","NormalOther.bmp","Nonmatching","Stranger","Stranger","Stranger",992,0.992,1
"658",6201,21,"male","right",8,28,"S.bmp","BadOther.bmp","Nonmatching","Stranger","Stranger","Stranger",540,0.54,1
"659",6201,21,"male","right",8,29,"C.bmp","GoodSelf.bmp","Matching","Self","Self","Self",708,0.708,1
"660",6201,21,"male","right",8,30,"T.bmp","NormalSelf.bmp","Nonmatching","Self","Self","Self",969,0.969,1
"661",6201,21,"male","right",8,31,"D.bmp","NormalOther.bmp","Nonmatching","Stranger","Stranger","Stranger",669,0.669,1
"662",6201,21,"male","right",8,32,"S.bmp","NormalSelf.bmp","Nonmatching","Self","Self","Self",857,0.857,1
"663",6201,21,"male","right",8,33,"P.bmp","BadOther.bmp","Nonmatching","Stranger","Stranger","Stranger",685,0.685,1
"664",6201,21,"male","right",8,34,"Tra.bmp","NormalSelf.bmp","Matching","Self","Self","Self",433,0.433,1
"665",6201,21,"male","right",8,35,"C.bmp","GoodSelf.bmp","Matching","Self","Self","Self",317,0.317,1
"666",6201,21,"male","right",8,36,"P.bmp","GoodOther.bmp","Matching","Stranger","Stranger","Stranger",377,0.377,1
"667",6201,21,"male","right",8,37,"P.bmp","GoodOther.bmp","Matching","Stranger","Stranger","Stranger",492,0.492,1
"668",6201,21,"male","right",8,38,"T.bmp","GoodSelf.bmp","Nonmatching","Self","Self","Self",448,0.448,1
"669",6201,21,"male","right",8,39,"T.bmp","BadOther.bmp","Matching","Stranger","Stranger","Stranger",866,0.866,1
"670",6201,21,"male","right",8,40,"P.bmp","BadSelf.bmp","Nonmatching","Self","Self","Self",922,0.922,1
"671",6201,21,"male","right",8,41,"T.bmp","BadOther.bmp","Matching","Stranger","Stranger","Stranger",671,0.671,1
"672",6201,21,"male","right",8,42,"D.bmp","BadSelf.bmp","Matching","Self","Self","Self",403,0.403,1
"673",6201,21,"male","right",8,43,"Tra.bmp","NormalSelf.bmp","Matching","Self","Self","Self",671,0.671,1
"674",6201,21,"male","right",8,44,"S.bmp","NormalOther.bmp","Matching","Stranger","Stranger","Stranger",619,0.619,1
"675",6201,21,"male","right",8,45,"P.bmp","NormalOther.bmp","Nonmatching","Stranger","Stranger","Stranger",655,0.655,1
"676",6201,21,"male","right",8,46,"P.bmp","GoodOther.bmp","Matching","Stranger","Stranger","Stranger",811,0.811,1
"677",6201,21,"male","right",8,47,"C.bmp","GoodOther.bmp","Nonmatching","Stranger","Stranger","Stranger",455,0.455,1
"678",6201,21,"male","right",8,48,"S.bmp","NormalOther.bmp","Matching","Stranger","Stranger","Stranger",723,0.723,1
"679",6201,21,"male","right",8,49,"T.bmp","BadOther.bmp","Matching","Stranger","Stranger","Stranger",0,0,0
"680",6201,21,"male","right",8,50,"C.bmp","GoodSelf.bmp","Matching","Self","Self","Self",600,0.6,1
"681",6201,21,"male","right",8,51,"S.bmp","NormalOther.bmp","Matching","Stranger","Stranger","Stranger",681,0.681,1
"682",6201,21,"male","right",8,52,"C.bmp","GoodSelf.bmp","Matching","Self","Self","Self",629,0.629,1
"683",6201,21,"male","right",8,53,"D.bmp","BadSelf.bmp","Matching","Self","Self","Self",385,0.385,1
"684",6201,21,"male","right",8,54,"D.bmp","GoodOther.bmp","Nonmatching","Stranger","Stranger","Stranger",725,0.725,1
"685",6201,21,"male","right",8,55,"T.bmp","BadOther.bmp","Matching","Stranger","Stranger","Stranger",0,0,0
"686",6201,21,"male","right",8,56,"D.bmp","BadSelf.bmp","Matching","Self","Self","Self",805,0.805,1
"687",6201,21,"male","right",8,57,"S.bmp","NormalOther.bmp","Matching","Stranger","Stranger","Stranger",417,0.417,1
"688",6201,21,"male","right",8,58,"C.bmp","NormalOther.bmp","Nonmatching","Stranger","Stranger","Stranger",717,0.717,1
"689",6201,21,"male","right",8,59,"T.bmp","GoodOther.bmp","Nonmatching","Stranger","Stranger","Stranger",625,0.625,1
"690",6201,21,"male","right",8,60,"S.bmp","NormalOther.bmp","Matching","Stranger","Stranger","Stranger",949,0.949,1
"691",6201,21,"male","right",8,61,"C.bmp","BadOther.bmp","Nonmatching","Stranger","Stranger","Stranger",711,0.711,0
"692",6201,21,"male","right",8,62,"T.bmp","BadOther.bmp","Matching","Stranger","Stranger","Stranger",703,0.703,1
"693",6201,21,"male","right",8,63,"P.bmp","GoodOther.bmp","Matching","Stranger","Stranger","Stranger",467,0.467,1
"694",6201,21,"male","right",8,64,"P.bmp","GoodOther.bmp","Matching","Stranger","Stranger","Stranger",887,0.887,1
"695",6201,21,"male","right",8,65,"Tra.bmp","NormalSelf.bmp","Matching","Self","Self","Self",411,0.411,1
"696",6201,21,"male","right",8,66,"P.bmp","GoodOther.bmp","Matching","Stranger","Stranger","Stranger",631,0.631,1
"697",6201,21,"male","right",8,67,"Tra.bmp","NormalSelf.bmp","Matching","Self","Self","Self",0,0,0
"698",6201,21,"male","right",8,68,"S.bmp","BadSelf.bmp","Nonmatching","Self","Self","Self",735,0.735,1
"699",6201,21,"male","right",8,69,"Tra.bmp","NormalSelf.bmp","Matching","Self","Self","Self",411,0.411,1
"700",6201,21,"male","right",8,70,"P.bmp","GoodOther.bmp","Matching","Stranger","Stranger","Stranger",503,0.503,1
"701",6201,21,"male","right",8,71,"D.bmp","BadSelf.bmp","Matching","Self","Self","Self",0,0,0
"702",6201,21,"male","right",8,72,"T.bmp","BadOther.bmp","Matching","Stranger","Stranger","Stranger",693,0.693,1
"703",6201,21,"male","right",8,73,"P.bmp","GoodOther.bmp","Matching","Stranger","Stranger","Stranger",0,0,0
"704",6201,21,"male","right",8,74,"D.bmp","GoodSelf.bmp","Nonmatching","Self","Self","Self",0,0,0
"705",6201,21,"male","right",8,75,"T.bmp","BadOther.bmp","Matching","Stranger","Stranger","Stranger",0,0,0
"706",6201,21,"male","right",8,76,"S.bmp","NormalOther.bmp","Matching","Stranger","Stranger","Stranger",0,0,0
"707",6201,21,"male","right",8,77,"T.bmp","BadOther.bmp","Matching","Stranger","Stranger","Stranger",437,0.437,1
"708",6201,21,"male","right",8,78,"D.bmp","NormalSelf.bmp","Nonmatching","Self","Self","Self",673,0.673,1
"709",6201,21,"male","right",8,79,"S.bmp","NormalOther.bmp","Matching","Stranger","Stranger","Stranger",0,0,0
"710",6201,21,"male","right",8,80,"Tra.bmp","NormalSelf.bmp","Matching","Self","Self","Self",553,0.553,1
"711",6201,21,"male","right",8,81,"T.bmp","BadOther.bmp","Matching","Stranger","Stranger","Stranger",421,0.421,1
"712",6201,21,"male","right",8,82,"C.bmp","GoodSelf.bmp","Matching","Self","Self","Self",809,0.809,1
"713",6201,21,"male","right",8,83,"C.bmp","NormalSelf.bmp","Nonmatching","Self","Self","Self",0,0,0
"714",6201,21,"male","right",8,84,"Tra.bmp","BadSelf.bmp","Nonmatching","Self","Self","Self",702,0.702,1
"715",6201,21,"male","right",8,85,"S.bmp","GoodOther.bmp","Nonmatching","Stranger","Stranger","Stranger",650,0.65,0
"716",6201,21,"male","right",8,86,"Tra.bmp","NormalSelf.bmp","Matching","Self","Self","Self",766,0.766,1
"717",6201,21,"male","right",8,87,"Tra.bmp","GoodOther.bmp","Nonmatching","Stranger","Stranger","Stranger",969,0.969,1
"718",6201,21,"male","right",8,88,"C.bmp","BadSelf.bmp","Nonmatching","Self","Self","Self",517,0.517,1
"719",6201,21,"male","right",8,89,"D.bmp","BadSelf.bmp","Matching","Self","Self","Self",561,0.561,1
"720",6201,21,"male","right",8,90,"Tra.bmp","NormalSelf.bmp","Matching","Self","Self","Self",797,0.797,1
"721",6201,21,"male","right",9,1,"T.bmp","BadOther.bmp","Matching","Stranger","Stranger","Stranger",516,0.516,1
"722",6201,21,"male","right",9,2,"C.bmp","GoodSelf.bmp","Matching","Self","Self","Self",552,0.552,1
"723",6201,21,"male","right",9,3,"P.bmp","GoodOther.bmp","Matching","Stranger","Stranger","Stranger",692,0.692,1
"724",6201,21,"male","right",9,4,"Tra.bmp","NormalSelf.bmp","Matching","Self","Self","Self",936,0.936,1
"725",6201,21,"male","right",9,5,"D.bmp","BadSelf.bmp","Matching","Self","Self","Self",396,0.396,1
"726",6201,21,"male","right",9,6,"Tra.bmp","GoodOther.bmp","Nonmatching","Stranger","Stranger","Stranger",592,0.592,1
"727",6201,21,"male","right",9,7,"P.bmp","GoodOther.bmp","Matching","Stranger","Stranger","Stranger",412,0.412,1
"728",6201,21,"male","right",9,8,"T.bmp","GoodSelf.bmp","Nonmatching","Self","Self","Self",440,0.44,1
"729",6201,21,"male","right",9,9,"T.bmp","BadOther.bmp","Matching","Stranger","Stranger","Stranger",652,0.652,1
"730",6201,21,"male","right",9,10,"P.bmp","GoodSelf.bmp","Nonmatching","Self","Self","Self",683,0.683,1
"731",6201,21,"male","right",9,11,"Tra.bmp","NormalSelf.bmp","Matching","Self","Self","Self",496,0.496,1
"732",6201,21,"male","right",9,12,"C.bmp","BadSelf.bmp","Nonmatching","Self","Self","Self",972,0.972,1
"733",6201,21,"male","right",9,13,"D.bmp","BadSelf.bmp","Matching","Self","Self","Self",776,0.776,1
"734",6201,21,"male","right",9,14,"P.bmp","NormalSelf.bmp","Nonmatching","Self","Self","Self",996,0.996,1
"735",6201,21,"male","right",9,15,"P.bmp","GoodOther.bmp","Matching","Stranger","Stranger","Stranger",808,0.808,1
"736",6201,21,"male","right",9,16,"Tra.bmp","BadSelf.bmp","Nonmatching","Self","Self","Self",500,0.5,1
"737",6201,21,"male","right",9,17,"Tra.bmp","NormalSelf.bmp","Matching","Self","Self","Self",928,0.928,1
"738",6201,21,"male","right",9,18,"S.bmp","GoodSelf.bmp","Nonmatching","Self","Self","Self",492,0.492,1
"739",6201,21,"male","right",9,19,"T.bmp","BadOther.bmp","Matching","Stranger","Stranger","Stranger",928,0.928,1
"740",6201,21,"male","right",9,20,"D.bmp","BadSelf.bmp","Matching","Self","Self","Self",498,0.498,1
"741",6201,21,"male","right",9,21,"S.bmp","NormalOther.bmp","Matching","Stranger","Stranger","Stranger",706,0.706,1
"742",6201,21,"male","right",9,22,"Tra.bmp","NormalSelf.bmp","Matching","Self","Self","Self",446,0.446,1
"743",6201,21,"male","right",9,23,"P.bmp","GoodOther.bmp","Matching","Stranger","Stranger","Stranger",530,0.53,1
"744",6201,21,"male","right",9,24,"C.bmp","GoodSelf.bmp","Matching","Self","Self","Self",574,0.574,1
"745",6201,21,"male","right",9,25,"C.bmp","NormalOther.bmp","Nonmatching","Stranger","Stranger","Stranger",922,0.922,1
"746",6201,21,"male","right",9,26,"T.bmp","BadSelf.bmp","Nonmatching","Self","Self","Self",622,0.622,1
"747",6201,21,"male","right",9,27,"Tra.bmp","NormalSelf.bmp","Matching","Self","Self","Self",378,0.378,1
"748",6201,21,"male","right",9,28,"T.bmp","NormalOther.bmp","Nonmatching","Stranger","Stranger","Stranger",0,0,0
"749",6201,21,"male","right",9,29,"T.bmp","BadOther.bmp","Matching","Stranger","Stranger","Stranger",586,0.586,1
"750",6201,21,"male","right",9,30,"C.bmp","GoodSelf.bmp","Matching","Self","Self","Self",382,0.382,1
"751",6201,21,"male","right",9,31,"S.bmp","NormalSelf.bmp","Nonmatching","Self","Self","Self",480,0.48,1
"752",6201,21,"male","right",9,32,"P.bmp","GoodOther.bmp","Matching","Stranger","Stranger","Stranger",0,0,0
"753",6201,21,"male","right",9,33,"T.bmp","BadOther.bmp","Matching","Stranger","Stranger","Stranger",797,0.797,1
"754",6201,21,"male","right",9,34,"T.bmp","BadOther.bmp","Matching","Stranger","Stranger","Stranger",769,0.769,1
"755",6201,21,"male","right",9,35,"C.bmp","GoodSelf.bmp","Matching","Self","Self","Self",676,0.676,1
"756",6201,21,"male","right",9,36,"S.bmp","NormalOther.bmp","Matching","Stranger","Stranger","Stranger",712,0.712,1
"757",6201,21,"male","right",9,37,"D.bmp","BadSelf.bmp","Matching","Self","Self","Self",436,0.436,1
"758",6201,21,"male","right",9,38,"C.bmp","GoodSelf.bmp","Matching","Self","Self","Self",0,0,0
"759",6201,21,"male","right",9,39,"C.bmp","GoodSelf.bmp","Matching","Self","Self","Self",324,0.324,1
"760",6201,21,"male","right",9,40,"S.bmp","BadOther.bmp","Nonmatching","Stranger","Stranger","Stranger",0,0,0
"761",6201,21,"male","right",9,41,"S.bmp","BadSelf.bmp","Nonmatching","Self","Self","Self",668,0.668,1
"762",6201,21,"male","right",9,42,"P.bmp","GoodOther.bmp","Matching","Stranger","Stranger","Stranger",508,0.508,1
"763",6201,21,"male","right",9,43,"S.bmp","GoodOther.bmp","Nonmatching","Stranger","Stranger","Stranger",877,0.877,1
"764",6201,21,"male","right",9,44,"D.bmp","NormalOther.bmp","Nonmatching","Stranger","Stranger","Stranger",593,0.593,1
"765",6201,21,"male","right",9,45,"D.bmp","BadSelf.bmp","Matching","Self","Self","Self",0,0,0
"766",6201,21,"male","right",9,46,"S.bmp","NormalOther.bmp","Matching","Stranger","Stranger","Stranger",961,0.961,1
"767",6201,21,"male","right",9,47,"S.bmp","NormalOther.bmp","Matching","Stranger","Stranger","Stranger",381,0.381,1
"768",6201,21,"male","right",9,48,"S.bmp","NormalOther.bmp","Matching","Stranger","Stranger","Stranger",416,0.416,1
"769",6201,21,"male","right",9,49,"Tra.bmp","NormalSelf.bmp","Matching","Self","Self","Self",516,0.516,1
"770",6201,21,"male","right",9,50,"D.bmp","BadSelf.bmp","Matching","Self","Self","Self",728,0.728,1
"771",6201,21,"male","right",9,51,"C.bmp","BadOther.bmp","Nonmatching","Stranger","Stranger","Stranger",644,0.644,1
"772",6201,21,"male","right",9,52,"P.bmp","GoodOther.bmp","Matching","Stranger","Stranger","Stranger",0,0,0
"773",6201,21,"male","right",9,53,"P.bmp","NormalOther.bmp","Nonmatching","Stranger","Stranger","Stranger",834,0.834,1
"774",6201,21,"male","right",9,54,"D.bmp","GoodSelf.bmp","Nonmatching","Self","Self","Self",771,0.771,1
"775",6201,21,"male","right",9,55,"Tra.bmp","BadOther.bmp","Nonmatching","Stranger","Stranger","Stranger",847,0.847,1
"776",6201,21,"male","right",9,56,"C.bmp","NormalSelf.bmp","Nonmatching","Self","Self","Self",899,0.899,1
"777",6201,21,"male","right",9,57,"T.bmp","GoodOther.bmp","Nonmatching","Stranger","Stranger","Stranger",927,0.927,1
"778",6201,21,"male","right",9,58,"T.bmp","BadOther.bmp","Matching","Stranger","Stranger","Stranger",547,0.547,1
"779",6201,21,"male","right",9,59,"C.bmp","GoodOther.bmp","Nonmatching","Stranger","Stranger","Stranger",855,0.855,1
"780",6201,21,"male","right",9,60,"S.bmp","NormalOther.bmp","Matching","Stranger","Stranger","Stranger",986,0.986,1
"781",6201,21,"male","right",9,61,"P.bmp","GoodOther.bmp","Matching","Stranger","Stranger","Stranger",598,0.598,1
"782",6201,21,"male","right",9,62,"T.bmp","NormalSelf.bmp","Nonmatching","Self","Self","Self",642,0.642,0
"783",6201,21,"male","right",9,63,"T.bmp","BadOther.bmp","Matching","Stranger","Stranger","Stranger",494,0.494,1
"784",6201,21,"male","right",9,64,"Tra.bmp","NormalSelf.bmp","Matching","Self","Self","Self",0,0,0
"785",6201,21,"male","right",9,65,"P.bmp","BadOther.bmp","Nonmatching","Stranger","Stranger","Stranger",1001,1.001,1
"786",6201,21,"male","right",9,66,"C.bmp","GoodSelf.bmp","Matching","Self","Self","Self",661,0.661,1
"787",6201,21,"male","right",9,67,"C.bmp","GoodSelf.bmp","Matching","Self","Self","Self",705,0.705,1
"788",6201,21,"male","right",9,68,"D.bmp","BadSelf.bmp","Matching","Self","Self","Self",437,0.437,1
"789",6201,21,"male","right",9,69,"D.bmp","BadSelf.bmp","Matching","Self","Self","Self",721,0.721,1
"790",6201,21,"male","right",9,70,"P.bmp","BadSelf.bmp","Nonmatching","Self","Self","Self",573,0.573,1
"791",6201,21,"male","right",9,71,"P.bmp","GoodOther.bmp","Matching","Stranger","Stranger","Stranger",745,0.745,1
"792",6201,21,"male","right",9,72,"C.bmp","GoodSelf.bmp","Matching","Self","Self","Self",749,0.749,1
"793",6201,21,"male","right",9,73,"D.bmp","BadOther.bmp","Nonmatching","Stranger","Stranger","Stranger",0,0,0
"794",6201,21,"male","right",9,74,"T.bmp","BadOther.bmp","Matching","Stranger","Stranger","Stranger",468,0.468,1
"795",6201,21,"male","right",9,75,"P.bmp","GoodOther.bmp","Matching","Stranger","Stranger","Stranger",724,0.724,1
"796",6201,21,"male","right",9,76,"D.bmp","BadSelf.bmp","Matching","Self","Self","Self",405,0.405,1
"797",6201,21,"male","right",9,77,"Tra.bmp","NormalSelf.bmp","Matching","Self","Self","Self",929,0.929,1
"798",6201,21,"male","right",9,78,"S.bmp","NormalOther.bmp","Matching","Stranger","Stranger","Stranger",0,0,0
"799",6201,21,"male","right",9,79,"D.bmp","BadSelf.bmp","Matching","Self","Self","Self",593,0.593,1
"800",6201,21,"male","right",9,80,"Tra.bmp","NormalSelf.bmp","Matching","Self","Self","Self",645,0.645,1
"801",6201,21,"male","right",9,81,"T.bmp","BadOther.bmp","Matching","Stranger","Stranger","Stranger",0,0,0
"802",6201,21,"male","right",9,82,"S.bmp","NormalOther.bmp","Matching","Stranger","Stranger","Stranger",1013,1.013,1
"803",6201,21,"male","right",9,83,"C.bmp","GoodSelf.bmp","Matching","Self","Self","Self",721,0.721,1
"804",6201,21,"male","right",9,84,"D.bmp","GoodOther.bmp","Nonmatching","Stranger","Stranger","Stranger",0,0,0
"805",6201,21,"male","right",9,85,"Tra.bmp","NormalOther.bmp","Nonmatching","Stranger","Stranger","Stranger",793,0.793,1
"806",6201,21,"male","right",9,86,"Tra.bmp","GoodSelf.bmp","Nonmatching","Self","Self","Self",874,0.874,1
"807",6201,21,"male","right",9,87,"S.bmp","NormalOther.bmp","Matching","Stranger","Stranger","Stranger",803,0.803,1
"808",6201,21,"male","right",9,88,"Tra.bmp","NormalSelf.bmp","Matching","Self","Self","Self",503,0.503,1
"809",6201,21,"male","right",9,89,"D.bmp","NormalSelf.bmp","Nonmatching","Self","Self","Self",515,0.515,1
"810",6201,21,"male","right",9,90,"S.bmp","NormalOther.bmp","Matching","Stranger","Stranger","Stranger",591,0.591,1
"811",6201,21,"male","right",10,1,"T.bmp","BadOther.bmp","Matching","Stranger","Stranger","Stranger",583,0.583,1
"812",6201,21,"male","right",10,2,"Tra.bmp","GoodOther.bmp","Nonmatching","Stranger","Stranger","Stranger",819,0.819,1
"813",6201,21,"male","right",10,3,"T.bmp","NormalSelf.bmp","Nonmatching","Self","Self","Self",607,0.607,1
"814",6201,21,"male","right",10,4,"C.bmp","GoodOther.bmp","Nonmatching","Stranger","Stranger","Stranger",483,0.483,1
"815",6201,21,"male","right",10,5,"C.bmp","GoodSelf.bmp","Matching","Self","Self","Self",423,0.423,1
"816",6201,21,"male","right",10,6,"T.bmp","BadOther.bmp","Matching","Stranger","Stranger","Stranger",707,0.707,1
"817",6201,21,"male","right",10,7,"D.bmp","BadSelf.bmp","Matching","Self","Self","Self",727,0.727,0
"818",6201,21,"male","right",10,8,"S.bmp","NormalOther.bmp","Matching","Stranger","Stranger","Stranger",0,0,0
"819",6201,21,"male","right",10,9,"T.bmp","BadOther.bmp","Matching","Stranger","Stranger","Stranger",671,0.671,1
"820",6201,21,"male","right",10,10,"C.bmp","GoodSelf.bmp","Matching","Self","Self","Self",575,0.575,1
"821",6201,21,"male","right",10,11,"T.bmp","BadOther.bmp","Matching","Stranger","Stranger","Stranger",788,0.788,1
"822",6201,21,"male","right",10,12,"Tra.bmp","NormalOther.bmp","Nonmatching","Stranger","Stranger","Stranger",0,0,0
"823",6201,21,"male","right",10,13,"D.bmp","BadSelf.bmp","Matching","Self","Self","Self",532,0.532,1
"824",6201,21,"male","right",10,14,"Tra.bmp","NormalSelf.bmp","Matching","Self","Self","Self",359,0.359,1
"825",6201,21,"male","right",10,15,"D.bmp","BadOther.bmp","Nonmatching","Stranger","Stranger","Stranger",715,0.715,1
"826",6201,21,"male","right",10,16,"C.bmp","GoodSelf.bmp","Matching","Self","Self","Self",1031,1.031,1
"827",6201,21,"male","right",10,17,"D.bmp","BadSelf.bmp","Matching","Self","Self","Self",0,0,0
"828",6201,21,"male","right",10,18,"P.bmp","GoodOther.bmp","Matching","Stranger","Stranger","Stranger",0,0,0
"829",6201,21,"male","right",10,19,"C.bmp","GoodSelf.bmp","Matching","Self","Self","Self",475,0.475,1
"830",6201,21,"male","right",10,20,"S.bmp","NormalOther.bmp","Matching","Stranger","Stranger","Stranger",823,0.823,1
"831",6201,21,"male","right",10,21,"T.bmp","GoodOther.bmp","Nonmatching","Stranger","Stranger","Stranger",0,0,0
"832",6201,21,"male","right",10,22,"T.bmp","BadOther.bmp","Matching","Stranger","Stranger","Stranger",460,0.46,1
"833",6201,21,"male","right",10,23,"T.bmp","BadOther.bmp","Matching","Stranger","Stranger","Stranger",440,0.44,1
"834",6201,21,"male","right",10,24,"D.bmp","BadSelf.bmp","Matching","Self","Self","Self",452,0.452,1
"835",6201,21,"male","right",10,25,"Tra.bmp","NormalSelf.bmp","Matching","Self","Self","Self",648,0.648,1
"836",6201,21,"male","right",10,26,"S.bmp","NormalOther.bmp","Matching","Stranger","Stranger","Stranger",363,0.363,1
"837",6201,21,"male","right",10,27,"S.bmp","NormalOther.bmp","Matching","Stranger","Stranger","Stranger",1087,1.087,1
"838",6201,21,"male","right",10,28,"P.bmp","GoodOther.bmp","Matching","Stranger","Stranger","Stranger",795,0.795,1
"839",6201,21,"male","right",10,29,"S.bmp","NormalOther.bmp","Matching","Stranger","Stranger","Stranger",639,0.639,1
"840",6201,21,"male","right",10,30,"P.bmp","GoodOther.bmp","Matching","Stranger","Stranger","Stranger",619,0.619,1
"841",6201,21,"male","right",10,31,"S.bmp","NormalOther.bmp","Matching","Stranger","Stranger","Stranger",597,0.597,1
"842",6201,21,"male","right",10,32,"Tra.bmp","BadSelf.bmp","Nonmatching","Self","Self","Self",0,0,0
"843",6201,21,"male","right",10,33,"C.bmp","BadOther.bmp","Nonmatching","Stranger","Stranger","Stranger",626,0.626,0
"844",6201,21,"male","right",10,34,"P.bmp","BadSelf.bmp","Nonmatching","Self","Self","Self",662,0.662,1
"845",6201,21,"male","right",10,35,"Tra.bmp","BadOther.bmp","Nonmatching","Stranger","Stranger","Stranger",834,0.834,1
"846",6201,21,"male","right",10,36,"S.bmp","NormalOther.bmp","Matching","Stranger","Stranger","Stranger",910,0.91,1
"847",6201,21,"male","right",10,37,"C.bmp","GoodSelf.bmp","Matching","Self","Self","Self",378,0.378,1
"848",6201,21,"male","right",10,38,"Tra.bmp","NormalSelf.bmp","Matching","Self","Self","Self",462,0.462,1
"849",6201,21,"male","right",10,39,"S.bmp","BadOther.bmp","Nonmatching","Stranger","Stranger","Stranger",0,0,0
"850",6201,21,"male","right",10,40,"T.bmp","BadOther.bmp","Matching","Stranger","Stranger","Stranger",0,0,0
"851",6201,21,"male","right",10,41,"Tra.bmp","NormalSelf.bmp","Matching","Self","Self","Self",689,0.689,1
"852",6201,21,"male","right",10,42,"T.bmp","NormalOther.bmp","Nonmatching","Stranger","Stranger","Stranger",0,0,0
"853",6201,21,"male","right",10,43,"C.bmp","GoodSelf.bmp","Matching","Self","Self","Self",0,0,0
"854",6201,21,"male","right",10,44,"S.bmp","GoodOther.bmp","Nonmatching","Stranger","Stranger","Stranger",0,0,0
"855",6201,21,"male","right",10,45,"P.bmp","GoodOther.bmp","Matching","Stranger","Stranger","Stranger",0,0,0
"856",6201,21,"male","right",10,46,"S.bmp","BadSelf.bmp","Nonmatching","Self","Self","Self",472,0.472,1
"857",6201,21,"male","right",10,47,"Tra.bmp","NormalSelf.bmp","Matching","Self","Self","Self",540,0.54,1
"858",6201,21,"male","right",10,48,"C.bmp","GoodSelf.bmp","Matching","Self","Self","Self",392,0.392,1
"859",6201,21,"male","right",10,49,"D.bmp","BadSelf.bmp","Matching","Self","Self","Self",0,0,0
"860",6201,21,"male","right",10,50,"P.bmp","BadOther.bmp","Nonmatching","Stranger","Stranger","Stranger",1088,1.088,1
"861",6201,21,"male","right",10,51,"P.bmp","NormalSelf.bmp","Nonmatching","Self","Self","Self",1075,1.075,1
"862",6201,21,"male","right",10,52,"Tra.bmp","NormalSelf.bmp","Matching","Self","Self","Self",543,0.543,1
"863",6201,21,"male","right",10,53,"P.bmp","GoodOther.bmp","Matching","Stranger","Stranger","Stranger",425,0.425,1
"864",6201,21,"male","right",10,54,"P.bmp","GoodOther.bmp","Matching","Stranger","Stranger","Stranger",0,0,0
"865",6201,21,"male","right",10,55,"C.bmp","NormalOther.bmp","Nonmatching","Stranger","Stranger","Stranger",646,0.646,0
"866",6201,21,"male","right",10,56,"S.bmp","GoodSelf.bmp","Nonmatching","Self","Self","Self",0,0,0
"867",6201,21,"male","right",10,57,"C.bmp","NormalSelf.bmp","Nonmatching","Self","Self","Self",1094,1.094,1
"868",6201,21,"male","right",10,58,"T.bmp","BadOther.bmp","Matching","Stranger","Stranger","Stranger",610,0.61,1
"869",6201,21,"male","right",10,59,"Tra.bmp","NormalSelf.bmp","Matching","Self","Self","Self",502,0.502,1
"870",6201,21,"male","right",10,60,"S.bmp","NormalOther.bmp","Matching","Stranger","Stranger","Stranger",426,0.426,1
"871",6201,21,"male","right",10,61,"C.bmp","GoodSelf.bmp","Matching","Self","Self","Self",334,0.334,1
"872",6201,21,"male","right",10,62,"S.bmp","NormalOther.bmp","Matching","Stranger","Stranger","Stranger",730,0.73,1
"873",6201,21,"male","right",10,63,"Tra.bmp","NormalSelf.bmp","Matching","Self","Self","Self",0,0,0
"874",6201,21,"male","right",10,64,"D.bmp","NormalOther.bmp","Nonmatching","Stranger","Stranger","Stranger",847,0.847,1
"875",6201,21,"male","right",10,65,"T.bmp","BadOther.bmp","Matching","Stranger","Stranger","Stranger",0,0,0
"876",6201,21,"male","right",10,66,"Tra.bmp","GoodSelf.bmp","Nonmatching","Self","Self","Self",0,0,0
"877",6201,21,"male","right",10,67,"D.bmp","BadSelf.bmp","Matching","Self","Self","Self",508,0.508,1
"878",6201,21,"male","right",10,68,"D.bmp","GoodOther.bmp","Nonmatching","Stranger","Stranger","Stranger",984,0.984,1
"879",6201,21,"male","right",10,69,"S.bmp","NormalSelf.bmp","Nonmatching","Self","Self","Self",0,0,0
"880",6201,21,"male","right",10,70,"D.bmp","BadSelf.bmp","Matching","Self","Self","Self",752,0.752,1
"881",6201,21,"male","right",10,71,"T.bmp","BadSelf.bmp","Nonmatching","Self","Self","Self",644,0.644,1
"882",6201,21,"male","right",10,72,"P.bmp","GoodOther.bmp","Matching","Stranger","Stranger","Stranger",544,0.544,1
"883",6201,21,"male","right",10,73,"D.bmp","BadSelf.bmp","Matching","Self","Self","Self",0,0,0
"884",6201,21,"male","right",10,74,"D.bmp","BadSelf.bmp","Matching","Self","Self","Self",432,0.432,1
"885",6201,21,"male","right",10,75,"Tra.bmp","NormalSelf.bmp","Matching","Self","Self","Self",864,0.864,1
"886",6201,21,"male","right",10,76,"P.bmp","GoodOther.bmp","Matching","Stranger","Stranger","Stranger",572,0.572,1
"887",6201,21,"male","right",10,77,"C.bmp","GoodSelf.bmp","Matching","Self","Self","Self",456,0.456,1
"888",6201,21,"male","right",10,78,"D.bmp","GoodSelf.bmp","Nonmatching","Self","Self","Self",420,0.42,1
"889",6201,21,"male","right",10,79,"Tra.bmp","NormalSelf.bmp","Matching","Self","Self","Self",0,0,0
"890",6201,21,"male","right",10,80,"C.bmp","BadSelf.bmp","Nonmatching","Self","Self","Self",668,0.668,1
"891",6201,21,"male","right",10,81,"P.bmp","GoodSelf.bmp","Nonmatching","Self","Self","Self",0,0,0
"892",6201,21,"male","right",10,82,"D.bmp","BadSelf.bmp","Matching","Self","Self","Self",1076,1.076,1
"893",6201,21,"male","right",10,83,"P.bmp","GoodOther.bmp","Matching","Stranger","Stranger","Stranger",0,0,0
"894",6201,21,"male","right",10,84,"T.bmp","GoodSelf.bmp","Nonmatching","Self","Self","Self",908,0.908,1
"895",6201,21,"male","right",10,85,"P.bmp","NormalOther.bmp","Nonmatching","Stranger","Stranger","Stranger",792,0.792,1
"896",6201,21,"male","right",10,86,"T.bmp","BadOther.bmp","Matching","Stranger","Stranger","Stranger",1025,1.025,1
"897",6201,21,"male","right",10,87,"C.bmp","GoodSelf.bmp","Matching","Self","Self","Self",0,0,0
"898",6201,21,"male","right",10,88,"D.bmp","NormalSelf.bmp","Nonmatching","Self","Self","Self",665,0.665,1
"899",6201,21,"male","right",10,89,"S.bmp","NormalOther.bmp","Matching","Stranger","Stranger","Stranger",812,0.812,1
"900",6201,21,"male","right",10,90,"P.bmp","GoodOther.bmp","Matching","Stranger","Stranger","Stranger",736,0.736,1
"901",6201,21,"male","right",11,1,"D.bmp","BadSelf.bmp","Matching","Self","Self","Self",470,0.47,1
"902",6201,21,"male","right",11,2,"S.bmp","BadSelf.bmp","Nonmatching","Self","Self","Self",505,0.505,1
"903",6201,21,"male","right",11,3,"D.bmp","BadSelf.bmp","Matching","Self","Self","Self",509,0.509,1
"904",6201,21,"male","right",11,4,"P.bmp","GoodSelf.bmp","Nonmatching","Self","Self","Self",0,0,0
"905",6201,21,"male","right",11,5,"P.bmp","GoodOther.bmp","Matching","Stranger","Stranger","Stranger",893,0.893,1
"906",6201,21,"male","right",11,6,"C.bmp","GoodSelf.bmp","Matching","Self","Self","Self",473,0.473,1
"907",6201,21,"male","right",11,7,"S.bmp","NormalOther.bmp","Matching","Stranger","Stranger","Stranger",805,0.805,1
"908",6201,21,"male","right",11,8,"C.bmp","BadSelf.bmp","Nonmatching","Self","Self","Self",697,0.697,1
"909",6201,21,"male","right",11,9,"Tra.bmp","NormalSelf.bmp","Matching","Self","Self","Self",669,0.669,1
"910",6201,21,"male","right",11,10,"C.bmp","GoodSelf.bmp","Matching","Self","Self","Self",445,0.445,1
"911",6201,21,"male","right",11,11,"S.bmp","NormalOther.bmp","Matching","Stranger","Stranger","Stranger",802,0.802,1
"912",6201,21,"male","right",11,12,"T.bmp","NormalOther.bmp","Nonmatching","Stranger","Stranger","Stranger",934,0.934,1
"913",6201,21,"male","right",11,13,"P.bmp","GoodOther.bmp","Matching","Stranger","Stranger","Stranger",762,0.762,1
"914",6201,21,"male","right",11,14,"P.bmp","GoodOther.bmp","Matching","Stranger","Stranger","Stranger",621,0.621,1
"915",6201,21,"male","right",11,15,"Tra.bmp","BadSelf.bmp","Nonmatching","Self","Self","Self",569,0.569,0
"916",6201,21,"male","right",11,16,"Tra.bmp","NormalSelf.bmp","Matching","Self","Self","Self",397,0.397,1
"917",6201,21,"male","right",11,17,"Tra.bmp","NormalSelf.bmp","Matching","Self","Self","Self",0,0,0
"918",6201,21,"male","right",11,18,"P.bmp","GoodOther.bmp","Matching","Stranger","Stranger","Stranger",0,0,0
"919",6201,21,"male","right",11,19,"T.bmp","BadOther.bmp","Matching","Stranger","Stranger","Stranger",569,0.569,1
"920",6201,21,"male","right",11,20,"Tra.bmp","GoodOther.bmp","Nonmatching","Stranger","Stranger","Stranger",693,0.693,1
"921",6201,21,"male","right",11,21,"D.bmp","GoodSelf.bmp","Nonmatching","Self","Self","Self",757,0.757,1
