"","Subject","Block","Trial","Matching","Origin_Identity","English_Identity","Standarlize_Identity","RT_ms","RT_sec","ACC"
"1",1,1,1,"Nonmatching","mother","Mother","Close",487,0.487,1
"2",1,1,2,"Nonmatching","stranger","Stranger","Stranger",614,0.614,1
"3",1,1,3,"Nonmatching","self","Self","Self",481,0.481,1
"4",1,1,4,"Nonmatching","self","Self","Self",425,0.425,1
"5",1,1,5,"Matching","mother","Mother","Close",473,0.473,1
"6",1,1,6,"Matching","self","Self","Self",382,0.382,1
"7",1,1,7,"Matching","stranger","Stranger","Stranger",492,0.492,0
"8",1,1,8,"Matching","mother","Mother","Close",475,0.475,1
"9",1,1,9,"Matching","self","Self","Self",398,0.398,1
"10",1,1,10,"Nonmatching","mother","Mother","Close",403,0.403,1
"11",1,1,11,"Matching","mother","Mother","Close",563,0.563,1
"12",1,1,12,"Nonmatching","stranger","Stranger","Stranger",733,0.733,1
"13",1,1,13,"Matching","mother","Mother","Close",775,0.775,1
"14",1,1,14,"Nonmatching","self","Self","Self",458,0.458,1
"15",1,1,15,"Matching","mother","Mother","Close",422,0.422,1
"16",1,1,16,"Nonmatching","mother","Mother","Close",471,0.471,1
"17",1,1,17,"Nonmatching","self","Self","Self",441,0.441,1
"18",1,1,18,"Nonmatching","mother","Mother","Close",491,0.491,1
"19",1,1,19,"Nonmatching","self","Self","Self",619,0.619,1
"20",1,1,20,"Matching","mother","Mother","Close",563,0.563,1
"21",1,1,21,"Nonmatching","mother","Mother","Close",376,0.376,1
"22",1,1,22,"Matching","mother","Mother","Close",401,0.401,1
"23",1,1,23,"Matching","stranger","Stranger","Stranger",681,0.681,1
"24",1,1,24,"Matching","self","Self","Self",455,0.455,1
"25",1,1,25,"Nonmatching","self","Self","Self",737,0.737,1
"26",1,1,26,"Matching","stranger","Stranger","Stranger",873,0.873,1
"27",1,1,27,"Nonmatching","mother","Mother","Close",654,0.654,1
"28",1,1,28,"Matching","mother","Mother","Close",614,0.614,1
"29",1,1,29,"Nonmatching","stranger","Stranger","Stranger",597,0.597,1
"30",1,1,30,"Nonmatching","mother","Mother","Close",537,0.537,1
"31",1,1,31,"Nonmatching","self","Self","Self",550,0.55,1
"32",1,1,32,"Nonmatching","stranger","Stranger","Stranger",661,0.661,1
"33",1,1,33,"Nonmatching","stranger","Stranger","Stranger",555,0.555,1
"34",1,1,34,"Nonmatching","stranger","Stranger","Stranger",681,0.681,1
"35",1,1,35,"Matching","self","Self","Self",500,0.5,1
"36",1,1,36,"Matching","self","Self","Self",383,0.383,1
"37",1,1,37,"Nonmatching","stranger","Stranger","Stranger",425,0.425,1
"38",1,1,38,"Nonmatching","self","Self","Self",479,0.479,1
"39",1,1,39,"Matching","stranger","Stranger","Stranger",668,0.668,0
"40",1,1,40,"Matching","stranger","Stranger","Stranger",522,0.522,1
"41",1,1,41,"Matching","stranger","Stranger","Stranger",399,0.399,1
"42",1,1,42,"Matching","self","Self","Self",686,0.686,1
"43",1,1,43,"Matching","stranger","Stranger","Stranger",651,0.651,1
"44",1,1,44,"Nonmatching","self","Self","Self",619,0.619,1
"45",1,1,45,"Nonmatching","stranger","Stranger","Stranger",574,0.574,1
"46",1,1,46,"Matching","stranger","Stranger","Stranger",667,0.667,1
"47",1,1,47,"Nonmatching","mother","Mother","Close",571,0.571,1
"48",1,1,48,"Matching","self","Self","Self",393,0.393,1
"49",1,1,49,"Nonmatching","stranger","Stranger","Stranger",601,0.601,1
"50",1,1,50,"Nonmatching","stranger","Stranger","Stranger",565,0.565,1
"51",1,1,51,"Matching","mother","Mother","Close",604,0.604,1
"52",1,1,52,"Nonmatching","mother","Mother","Close",747,0.747,1
"53",1,1,53,"Matching","stranger","Stranger","Stranger",745,0.745,1
"54",1,1,54,"Matching","self","Self","Self",428,0.428,1
"55",1,1,55,"Matching","stranger","Stranger","Stranger",615,0.615,1
"56",1,1,56,"Matching","self","Self","Self",469,0.469,1
"57",1,1,57,"Nonmatching","mother","Mother","Close",635,0.635,1
"58",1,1,58,"Matching","mother","Mother","Close",730,0.73,1
"59",1,1,59,"Matching","self","Self","Self",504,0.504,1
"60",1,1,60,"Nonmatching","self","Self","Self",505,0.505,1
"61",1,2,61,"Nonmatching","stranger","Stranger","Stranger",819,0.819,1
"62",1,2,62,"Nonmatching","stranger","Stranger","Stranger",655,0.655,1
"63",1,2,63,"Matching","stranger","Stranger","Stranger",613,0.613,1
"64",1,2,64,"Matching","mother","Mother","Close",469,0.469,1
"65",1,2,65,"Matching","self","Self","Self",435,0.435,1
"66",1,2,66,"Nonmatching","mother","Mother","Close",545,0.545,1
"67",1,2,67,"Nonmatching","stranger","Stranger","Stranger",611,0.611,1
"68",1,2,68,"Nonmatching","stranger","Stranger","Stranger",669,0.669,1
"69",1,2,69,"Matching","mother","Mother","Close",573,0.573,1
"70",1,2,70,"Nonmatching","mother","Mother","Close",538,0.538,1
"71",1,2,71,"Matching","mother","Mother","Close",458,0.458,1
"72",1,2,72,"Nonmatching","stranger","Stranger","Stranger",472,0.472,1
"73",1,2,73,"Nonmatching","self","Self","Self",625,0.625,0
"74",1,2,74,"Matching","mother","Mother","Close",625,0.625,1
"75",1,2,75,"Nonmatching","mother","Mother","Close",414,0.414,1
"76",1,2,76,"Nonmatching","stranger","Stranger","Stranger",694,0.694,1
"77",1,2,77,"Matching","self","Self","Self",355,0.355,1
"78",1,2,78,"Matching","self","Self","Self",369,0.369,1
"79",1,2,79,"Nonmatching","stranger","Stranger","Stranger",692,0.692,1
"80",1,2,80,"Matching","self","Self","Self",395,0.395,1
"81",1,2,81,"Nonmatching","mother","Mother","Close",490,0.49,1
"82",1,2,82,"Nonmatching","self","Self","Self",750,0.75,1
"83",1,2,83,"Nonmatching","self","Self","Self",497,0.497,1
"84",1,2,84,"Nonmatching","mother","Mother","Close",487,0.487,0
"85",1,2,85,"Matching","stranger","Stranger","Stranger",627,0.627,0
"86",1,2,86,"Matching","stranger","Stranger","Stranger",459,0.459,1
"87",1,2,87,"Nonmatching","self","Self","Self",585,0.585,1
"88",1,2,88,"Matching","stranger","Stranger","Stranger",707,0.707,1
"89",1,2,89,"Matching","mother","Mother","Close",553,0.553,1
"90",1,2,90,"Matching","self","Self","Self",357,0.357,1
"91",1,2,91,"Nonmatching","stranger","Stranger","Stranger",558,0.558,1
"92",1,2,92,"Matching","stranger","Stranger","Stranger",563,0.563,1
"93",1,2,93,"Matching","stranger","Stranger","Stranger",475,0.475,1
"94",1,2,94,"Matching","stranger","Stranger","Stranger",512,0.512,1
"95",1,2,95,"Matching","mother","Mother","Close",538,0.538,1
"96",1,2,96,"Nonmatching","mother","Mother","Close",673,0.673,0
"97",1,2,97,"Nonmatching","self","Self","Self",451,0.451,1
"98",1,2,98,"Nonmatching","self","Self","Self",427,0.427,1
"99",1,2,99,"Matching","self","Self","Self",381,0.381,1
"100",1,2,100,"Nonmatching","mother","Mother","Close",349,0.349,1
"101",1,2,101,"Matching","mother","Mother","Close",675,0.675,1
"102",1,2,102,"Matching","self","Self","Self",422,0.422,1
"103",1,2,103,"Matching","self","Self","Self",421,0.421,1
"104",1,2,104,"Nonmatching","mother","Mother","Close",479,0.479,1
"105",1,2,105,"Matching","stranger","Stranger","Stranger",639,0.639,1
"106",1,2,106,"Nonmatching","self","Self","Self",458,0.458,1
"107",1,2,107,"Nonmatching","mother","Mother","Close",649,0.649,1
"108",1,2,108,"Nonmatching","mother","Mother","Close",493,0.493,1
"109",1,2,109,"Nonmatching","self","Self","Self",470,0.47,1
"110",1,2,110,"Matching","self","Self","Self",371,0.371,1
"111",1,2,111,"Matching","mother","Mother","Close",395,0.395,1
"112",1,2,112,"Nonmatching","stranger","Stranger","Stranger",581,0.581,1
"113",1,2,113,"Matching","self","Self","Self",534,0.534,1
"114",1,2,114,"Nonmatching","self","Self","Self",360,0.36,1
"115",1,2,115,"Matching","mother","Mother","Close",625,0.625,1
"116",1,2,116,"Nonmatching","stranger","Stranger","Stranger",594,0.594,1
"117",1,2,117,"Matching","stranger","Stranger","Stranger",611,0.611,1
"118",1,2,118,"Matching","mother","Mother","Close",373,0.373,1
"119",1,2,119,"Nonmatching","self","Self","Self",413,0.413,1
"120",1,2,120,"Matching","stranger","Stranger","Stranger",732,0.732,1
"121",1,3,121,"Matching","self","Self","Self",512,0.512,1
"122",1,3,122,"Nonmatching","mother","Mother","Close",733,0.733,1
"123",1,3,123,"Nonmatching","stranger","Stranger","Stranger",650,0.65,1
"124",1,3,124,"Matching","mother","Mother","Close",602,0.602,1
"125",1,3,125,"Nonmatching","mother","Mother","Close",558,0.558,1
"126",1,3,126,"Matching","self","Self","Self",356,0.356,1
"127",1,3,127,"Matching","stranger","Stranger","Stranger",587,0.587,1
"128",1,3,128,"Matching","stranger","Stranger","Stranger",452,0.452,1
"129",1,3,129,"Matching","stranger","Stranger","Stranger",531,0.531,1
"130",1,3,130,"Nonmatching","mother","Mother","Close",586,0.586,1
"131",1,3,131,"Matching","stranger","Stranger","Stranger",518,0.518,0
"132",1,3,132,"Nonmatching","self","Self","Self",676,0.676,1
"133",1,3,133,"Nonmatching","self","Self","Self",439,0.439,1
"134",1,3,134,"Nonmatching","mother","Mother","Close",413,0.413,0
"135",1,3,135,"Nonmatching","stranger","Stranger","Stranger",521,0.521,1
"136",1,3,136,"Nonmatching","mother","Mother","Close",483,0.483,1
"137",1,3,137,"Nonmatching","stranger","Stranger","Stranger",731,0.731,1
"138",1,3,138,"Nonmatching","self","Self","Self",537,0.537,1
"139",1,3,139,"Nonmatching","stranger","Stranger","Stranger",833,0.833,1
"140",1,3,140,"Nonmatching","stranger","Stranger","Stranger",651,0.651,1
"141",1,3,141,"Matching","stranger","Stranger","Stranger",645,0.645,1
"142",1,3,142,"Matching","stranger","Stranger","Stranger",517,0.517,1
"143",1,3,143,"Nonmatching","stranger","Stranger","Stranger",619,0.619,1
"144",1,3,144,"Nonmatching","self","Self","Self",659,0.659,1
"145",1,3,145,"Matching","self","Self","Self",553,0.553,1
"146",1,3,146,"Nonmatching","stranger","Stranger","Stranger",674,0.674,1
"147",1,3,147,"Nonmatching","self","Self","Self",464,0.464,1
"148",1,3,148,"Nonmatching","self","Self","Self",416,0.416,1
"149",1,3,149,"Nonmatching","mother","Mother","Close",524,0.524,1
"150",1,3,150,"Matching","mother","Mother","Close",371,0.371,1
"151",1,3,151,"Matching","mother","Mother","Close",368,0.368,1
"152",1,3,152,"Matching","mother","Mother","Close",479,0.479,1
"153",1,3,153,"Matching","mother","Mother","Close",490,0.49,1
"154",1,3,154,"Nonmatching","self","Self","Self",361,0.361,1
"155",1,3,155,"Nonmatching","self","Self","Self",649,0.649,1
"156",1,3,156,"Nonmatching","self","Self","Self",479,0.479,1
"157",1,3,157,"Matching","mother","Mother","Close",608,0.608,1
"158",1,3,158,"Matching","mother","Mother","Close",300,0.3,1
"159",1,3,159,"Matching","stranger","Stranger","Stranger",745,0.745,1
"160",1,3,160,"Matching","stranger","Stranger","Stranger",313,0.313,1
"161",1,3,161,"Nonmatching","mother","Mother","Close",600,0.6,1
"162",1,3,162,"Matching","self","Self","Self",550,0.55,1
"163",1,3,163,"Matching","mother","Mother","Close",502,0.502,1
"164",1,3,164,"Nonmatching","mother","Mother","Close",582,0.582,0
"165",1,3,165,"Nonmatching","stranger","Stranger","Stranger",500,0.5,1
"166",1,3,166,"Matching","self","Self","Self",740,0.74,1
"167",1,3,167,"Nonmatching","mother","Mother","Close",723,0.723,0
"168",1,3,168,"Matching","stranger","Stranger","Stranger",666,0.666,0
"169",1,3,169,"Nonmatching","self","Self","Self",824,0.824,1
"170",1,3,170,"Matching","self","Self","Self",337,0.337,1
"171",1,3,171,"Matching","mother","Mother","Close",586,0.586,1
"172",1,3,172,"Matching","stranger","Stranger","Stranger",690,0.69,0
"173",1,3,173,"Nonmatching","stranger","Stranger","Stranger",678,0.678,0
"174",1,3,174,"Matching","self","Self","Self",366,0.366,1
"175",1,3,175,"Matching","mother","Mother","Close",491,0.491,1
"176",1,3,176,"Matching","self","Self","Self",436,0.436,1
"177",1,3,177,"Nonmatching","mother","Mother","Close",464,0.464,1
"178",1,3,178,"Matching","self","Self","Self",373,0.373,1
"179",1,3,179,"Nonmatching","stranger","Stranger","Stranger",620,0.62,1
"180",1,3,180,"Matching","self","Self","Self",393,0.393,1
"181",1,4,181,"Matching","mother","Mother","Close",621,0.621,0
"182",1,4,182,"Nonmatching","stranger","Stranger","Stranger",604,0.604,1
"183",1,4,183,"Matching","self","Self","Self",471,0.471,1
"184",1,4,184,"Nonmatching","self","Self","Self",473,0.473,1
"185",1,4,185,"Nonmatching","self","Self","Self",452,0.452,0
"186",1,4,186,"Nonmatching","mother","Mother","Close",546,0.546,0
"187",1,4,187,"Nonmatching","self","Self","Self",553,0.553,1
"188",1,4,188,"Matching","stranger","Stranger","Stranger",537,0.537,1
"189",1,4,189,"Nonmatching","self","Self","Self",491,0.491,1
"190",1,4,190,"Matching","stranger","Stranger","Stranger",757,0.757,1
"191",1,4,191,"Matching","mother","Mother","Close",547,0.547,1
"192",1,4,192,"Nonmatching","stranger","Stranger","Stranger",651,0.651,1
"193",1,4,193,"Matching","self","Self","Self",392,0.392,1
"194",1,4,194,"Matching","self","Self","Self",394,0.394,1
"195",1,4,195,"Nonmatching","mother","Mother","Close",463,0.463,1
"196",1,4,196,"Nonmatching","mother","Mother","Close",432,0.432,1
"197",1,4,197,"Nonmatching","self","Self","Self",454,0.454,1
"198",1,4,198,"Nonmatching","self","Self","Self",563,0.563,1
"199",1,4,199,"Matching","mother","Mother","Close",386,0.386,1
"200",1,4,200,"Matching","stranger","Stranger","Stranger",560,0.56,1
"201",1,4,201,"Matching","mother","Mother","Close",440,0.44,1
"202",1,4,202,"Matching","stranger","Stranger","Stranger",666,0.666,1
"203",1,4,203,"Matching","self","Self","Self",465,0.465,1
"204",1,4,204,"Nonmatching","self","Self","Self",503,0.503,1
"205",1,4,205,"Matching","self","Self","Self",520,0.52,1
"206",1,4,206,"Matching","self","Self","Self",480,0.48,1
"207",1,4,207,"Matching","mother","Mother","Close",380,0.38,1
"208",1,4,208,"Matching","mother","Mother","Close",313,0.313,1
"209",1,4,209,"Matching","mother","Mother","Close",399,0.399,1
"210",1,4,210,"Nonmatching","stranger","Stranger","Stranger",480,0.48,1
"211",1,4,211,"Nonmatching","self","Self","Self",631,0.631,1
"212",1,4,212,"Matching","stranger","Stranger","Stranger",580,0.58,1
"213",1,4,213,"Matching","stranger","Stranger","Stranger",402,0.402,1
"214",1,4,214,"Matching","stranger","Stranger","Stranger",336,0.336,1
"215",1,4,215,"Matching","self","Self","Self",415,0.415,1
"216",1,4,216,"Nonmatching","stranger","Stranger","Stranger",603,0.603,1
"217",1,4,217,"Matching","mother","Mother","Close",468,0.468,1
"218",1,4,218,"Matching","self","Self","Self",309,0.309,1
"219",1,4,219,"Nonmatching","mother","Mother","Close",296,0.296,0
"220",1,4,220,"Matching","mother","Mother","Close",447,0.447,1
"221",1,4,221,"Matching","mother","Mother","Close",602,0.602,1
"222",1,4,222,"Nonmatching","self","Self","Self",462,0.462,1
"223",1,4,223,"Nonmatching","stranger","Stranger","Stranger",813,0.813,1
"224",1,4,224,"Matching","self","Self","Self",547,0.547,1
"225",1,4,225,"Nonmatching","self","Self","Self",764,0.764,0
"226",1,4,226,"Matching","stranger","Stranger","Stranger",461,0.461,0
"227",1,4,227,"Nonmatching","mother","Mother","Close",506,0.506,1
"228",1,4,228,"Nonmatching","stranger","Stranger","Stranger",442,0.442,1
"229",1,4,229,"Matching","self","Self","Self",352,0.352,1
"230",1,4,230,"Nonmatching","mother","Mother","Close",663,0.663,1
"231",1,4,231,"Nonmatching","stranger","Stranger","Stranger",610,0.61,1
"232",1,4,232,"Nonmatching","mother","Mother","Close",635,0.635,1
"233",1,4,233,"Nonmatching","stranger","Stranger","Stranger",664,0.664,1
"234",1,4,234,"Nonmatching","mother","Mother","Close",640,0.64,0
"235",1,4,235,"Nonmatching","mother","Mother","Close",465,0.465,1
"236",1,4,236,"Matching","stranger","Stranger","Stranger",623,0.623,1
"237",1,4,237,"Nonmatching","stranger","Stranger","Stranger",576,0.576,1
"238",1,4,238,"Nonmatching","stranger","Stranger","Stranger",678,0.678,0
"239",1,4,239,"Matching","stranger","Stranger","Stranger",522,0.522,1
"240",1,4,240,"Nonmatching","mother","Mother","Close",570,0.57,1
"241",1,5,241,"Matching","stranger","Stranger","Stranger",588,0.588,0
"242",1,5,242,"Nonmatching","stranger","Stranger","Stranger",473,0.473,1
"243",1,5,243,"Matching","stranger","Stranger","Stranger",509,0.509,1
"244",1,5,244,"Nonmatching","stranger","Stranger","Stranger",515,0.515,1
"245",1,5,245,"Matching","self","Self","Self",463,0.463,1
"246",1,5,246,"Matching","mother","Mother","Close",330,0.33,1
"247",1,5,247,"Nonmatching","self","Self","Self",444,0.444,1
"248",1,5,248,"Nonmatching","self","Self","Self",420,0.42,1
"249",1,5,249,"Nonmatching","mother","Mother","Close",470,0.47,0
"250",1,5,250,"Matching","stranger","Stranger","Stranger",477,0.477,1
"251",1,5,251,"Matching","self","Self","Self",478,0.478,1
"252",1,5,252,"Nonmatching","self","Self","Self",443,0.443,1
"253",1,5,253,"Nonmatching","mother","Mother","Close",516,0.516,1
"254",1,5,254,"Nonmatching","stranger","Stranger","Stranger",603,0.603,1
"255",1,5,255,"Nonmatching","mother","Mother","Close",561,0.561,0
"256",1,5,256,"Nonmatching","stranger","Stranger","Stranger",500,0.5,0
"257",1,5,257,"Matching","stranger","Stranger","Stranger",530,0.53,0
"258",1,5,258,"Nonmatching","self","Self","Self",390,0.39,0
"259",1,5,259,"Matching","self","Self","Self",490,0.49,0
"260",1,5,260,"Nonmatching","self","Self","Self",695,0.695,1
"261",1,5,261,"Nonmatching","stranger","Stranger","Stranger",721,0.721,1
"262",1,5,262,"Nonmatching","mother","Mother","Close",524,0.524,1
"263",1,5,263,"Matching","mother","Mother","Close",779,0.779,1
"264",1,5,264,"Nonmatching","self","Self","Self",418,0.418,1
"265",1,5,265,"Nonmatching","mother","Mother","Close",598,0.598,0
"266",1,5,266,"Nonmatching","mother","Mother","Close",694,0.694,1
"267",1,5,267,"Matching","mother","Mother","Close",613,0.613,1
"268",1,5,268,"Matching","stranger","Stranger","Stranger",490,0.49,1
"269",1,5,269,"Nonmatching","mother","Mother","Close",750,0.75,1
"270",1,5,270,"Matching","self","Self","Self",334,0.334,1
"271",1,5,271,"Matching","self","Self","Self",348,0.348,1
"272",1,5,272,"Matching","self","Self","Self",444,0.444,1
"273",1,5,273,"Nonmatching","self","Self","Self",460,0.46,0
"274",1,5,274,"Nonmatching","stranger","Stranger","Stranger",382,0.382,1
"275",1,5,275,"Matching","stranger","Stranger","Stranger",527,0.527,1
"276",1,5,276,"Matching","stranger","Stranger","Stranger",668,0.668,0
"277",1,5,277,"Matching","mother","Mother","Close",509,0.509,1
"278",1,5,278,"Matching","mother","Mother","Close",425,0.425,1
"279",1,5,279,"Nonmatching","stranger","Stranger","Stranger",444,0.444,1
"280",1,5,280,"Nonmatching","self","Self","Self",367,0.367,1
"281",1,5,281,"Matching","mother","Mother","Close",287,0.287,1
"282",1,5,282,"Nonmatching","mother","Mother","Close",429,0.429,1
"283",1,5,283,"Matching","mother","Mother","Close",418,0.418,0
"284",1,5,284,"Matching","mother","Mother","Close",418,0.418,0
"285",1,5,285,"Matching","stranger","Stranger","Stranger",439,0.439,1
"286",1,5,286,"Nonmatching","stranger","Stranger","Stranger",406,0.406,1
"287",1,5,287,"Matching","self","Self","Self",298,0.298,1
"288",1,5,288,"Matching","stranger","Stranger","Stranger",520,0.52,1
"289",1,5,289,"Matching","mother","Mother","Close",487,0.487,1
"290",1,5,290,"Matching","self","Self","Self",345,0.345,1
"291",1,5,291,"Nonmatching","stranger","Stranger","Stranger",442,0.442,1
"292",1,5,292,"Matching","self","Self","Self",304,0.304,1
"293",1,5,293,"Nonmatching","mother","Mother","Close",540,0.54,1
"294",1,5,294,"Matching","mother","Mother","Close",813,0.813,1
"295",1,5,295,"Nonmatching","stranger","Stranger","Stranger",535,0.535,1
"296",1,5,296,"Nonmatching","self","Self","Self",471,0.471,1
"297",1,5,297,"Matching","stranger","Stranger","Stranger",770,0.77,1
"298",1,5,298,"Matching","self","Self","Self",408,0.408,1
"299",1,5,299,"Nonmatching","self","Self","Self",747,0.747,0
"300",1,5,300,"Nonmatching","mother","Mother","Close",742,0.742,1
"301",1,6,301,"Matching","self","Self","Self",348,0.348,1
"302",1,6,302,"Nonmatching","mother","Mother","Close",489,0.489,1
"303",1,6,303,"Matching","stranger","Stranger","Stranger",530,0.53,1
"304",1,6,304,"Nonmatching","self","Self","Self",443,0.443,1
"305",1,6,305,"Matching","mother","Mother","Close",555,0.555,1
"306",1,6,306,"Matching","mother","Mother","Close",325,0.325,1
"307",1,6,307,"Nonmatching","mother","Mother","Close",330,0.33,0
"308",1,6,308,"Matching","self","Self","Self",345,0.345,1
"309",1,6,309,"Nonmatching","stranger","Stranger","Stranger",597,0.597,1
"310",1,6,310,"Matching","stranger","Stranger","Stranger",613,0.613,1
"311",1,6,311,"Nonmatching","mother","Mother","Close",519,0.519,1
"312",1,6,312,"Matching","stranger","Stranger","Stranger",404,0.404,1
"313",1,6,313,"Nonmatching","self","Self","Self",441,0.441,1
"314",1,6,314,"Nonmatching","self","Self","Self",392,0.392,1
"315",1,6,315,"Matching","self","Self","Self",406,0.406,1
"316",1,6,316,"Nonmatching","stranger","Stranger","Stranger",562,0.562,1
"317",1,6,317,"Nonmatching","mother","Mother","Close",860,0.86,1
"318",1,6,318,"Matching","self","Self","Self",486,0.486,1
"319",1,6,319,"Nonmatching","mother","Mother","Close",652,0.652,1
"320",1,6,320,"Matching","self","Self","Self",452,0.452,1
"321",1,6,321,"Matching","mother","Mother","Close",571,0.571,0
"322",1,6,322,"Matching","mother","Mother","Close",554,0.554,1
"323",1,6,323,"Matching","self","Self","Self",346,0.346,1
"324",1,6,324,"Nonmatching","stranger","Stranger","Stranger",383,0.383,1
"325",1,6,325,"Nonmatching","stranger","Stranger","Stranger",662,0.662,1
"326",1,6,326,"Matching","self","Self","Self",421,0.421,1
"327",1,6,327,"Nonmatching","self","Self","Self",596,0.596,1
"328",1,6,328,"Nonmatching","self","Self","Self",493,0.493,1
"329",1,6,329,"Nonmatching","stranger","Stranger","Stranger",717,0.717,1
"330",1,6,330,"Nonmatching","self","Self","Self",411,0.411,0
"331",1,6,331,"Matching","stranger","Stranger","Stranger",633,0.633,1
"332",1,6,332,"Matching","mother","Mother","Close",328,0.328,1
"333",1,6,333,"Nonmatching","mother","Mother","Close",433,0.433,1
"334",1,6,334,"Matching","stranger","Stranger","Stranger",690,0.69,1
"335",1,6,335,"Matching","self","Self","Self",666,0.666,1
"336",1,6,336,"Nonmatching","stranger","Stranger","Stranger",553,0.553,1
"337",1,6,337,"Matching","stranger","Stranger","Stranger",615,0.615,0
"338",1,6,338,"Matching","stranger","Stranger","Stranger",559,0.559,1
"339",1,6,339,"Nonmatching","stranger","Stranger","Stranger",422,0.422,0
"340",1,6,340,"Nonmatching","stranger","Stranger","Stranger",595,0.595,1
"341",1,6,341,"Nonmatching","self","Self","Self",597,0.597,0
"342",1,6,342,"Matching","self","Self","Self",620,0.62,1
"343",1,6,343,"Nonmatching","stranger","Stranger","Stranger",478,0.478,1
"344",1,6,344,"Matching","mother","Mother","Close",558,0.558,1
"345",1,6,345,"Nonmatching","self","Self","Self",677,0.677,1
"346",1,6,346,"Matching","mother","Mother","Close",724,0.724,1
"347",1,6,347,"Matching","mother","Mother","Close",554,0.554,1
"348",1,6,348,"Nonmatching","mother","Mother","Close",610,0.61,1
"349",1,6,349,"Nonmatching","self","Self","Self",569,0.569,1
"350",1,6,350,"Matching","mother","Mother","Close",423,0.423,1
"351",1,6,351,"Matching","mother","Mother","Close",319,0.319,1
"352",1,6,352,"Matching","stranger","Stranger","Stranger",625,0.625,1
"353",1,6,353,"Matching","self","Self","Self",522,0.522,1
"354",1,6,354,"Nonmatching","stranger","Stranger","Stranger",745,0.745,1
"355",1,6,355,"Nonmatching","self","Self","Self",535,0.535,1
"356",1,6,356,"Nonmatching","mother","Mother","Close",359,0.359,0
"357",1,6,357,"Matching","stranger","Stranger","Stranger",709,0.709,0
"358",1,6,358,"Nonmatching","mother","Mother","Close",414,0.414,1
"359",1,6,359,"Nonmatching","mother","Mother","Close",429,0.429,0
"360",1,6,360,"Matching","stranger","Stranger","Stranger",645,0.645,1
"361",2,1,1,"Matching","self","Self","Self",635,0.635,1
"362",2,1,2,"Matching","self","Self","Self",471,0.471,1
"363",2,1,3,"Nonmatching","stranger","Stranger","Stranger",760,0.76,1
"364",2,1,4,"Nonmatching","mother","Mother","Close",810,0.81,1
"365",2,1,5,"Nonmatching","mother","Mother","Close",572,0.572,1
"366",2,1,6,"Matching","stranger","Stranger","Stranger",942,0.942,1
"367",2,1,7,"Matching","stranger","Stranger","Stranger",708,0.708,1
"368",2,1,8,"Nonmatching","self","Self","Self",676,0.676,1
"369",2,1,9,"Nonmatching","stranger","Stranger","Stranger",731,0.731,1
"370",2,1,10,"Nonmatching","self","Self","Self",819,0.819,1
"371",2,1,11,"Nonmatching","stranger","Stranger","Stranger",807,0.807,1
"372",2,1,12,"Matching","stranger","Stranger","Stranger",565,0.565,0
"373",2,1,13,"Nonmatching","self","Self","Self",679,0.679,1
"374",2,1,14,"Matching","stranger","Stranger","Stranger",676,0.676,1
"375",2,1,15,"Matching","self","Self","Self",526,0.526,1
"376",2,1,16,"Matching","mother","Mother","Close",682,0.682,1
"377",2,1,17,"Matching","self","Self","Self",478,0.478,1
"378",2,1,18,"Nonmatching","stranger","Stranger","Stranger",777,0.777,1
"379",2,1,19,"Matching","mother","Mother","Close",545,0.545,1
"380",2,1,20,"Matching","self","Self","Self",553,0.553,1
"381",2,1,21,"Matching","mother","Mother","Close",489,0.489,1
"382",2,1,22,"Matching","mother","Mother","Close",417,0.417,1
"383",2,1,23,"Matching","self","Self","Self",425,0.425,1
"384",2,1,24,"Matching","mother","Mother","Close",653,0.653,1
"385",2,1,25,"Nonmatching","self","Self","Self",818,0.818,1
"386",2,1,26,"Matching","self","Self","Self",720,0.72,1
"387",2,1,27,"Nonmatching","mother","Mother","Close",620,0.62,1
"388",2,1,28,"Matching","mother","Mother","Close",1018,1.018,1
"389",2,1,29,"Matching","self","Self","Self",416,0.416,1
"390",2,1,30,"Nonmatching","stranger","Stranger","Stranger",852,0.852,1
"391",2,1,31,"Nonmatching","self","Self","Self",680,0.68,1
"392",2,1,32,"Nonmatching","stranger","Stranger","Stranger",1024,1.024,1
"393",2,1,33,"Nonmatching","self","Self","Self",659,0.659,1
"394",2,1,34,"Matching","stranger","Stranger","Stranger",831,0.831,1
"395",2,1,35,"Matching","self","Self","Self",453,0.453,1
"396",2,1,36,"Nonmatching","stranger","Stranger","Stranger",799,0.799,1
"397",2,1,37,"Nonmatching","self","Self","Self",725,0.725,1
"398",2,1,38,"Matching","mother","Mother","Close",553,0.553,1
"399",2,1,39,"Nonmatching","mother","Mother","Close",448,0.448,1
"400",2,1,40,"Nonmatching","mother","Mother","Close",624,0.624,1
"401",2,1,41,"Matching","mother","Mother","Close",572,0.572,1
"402",2,1,42,"Nonmatching","self","Self","Self",650,0.65,1
"403",2,1,43,"Nonmatching","mother","Mother","Close",636,0.636,1
"404",2,1,44,"Matching","stranger","Stranger","Stranger",831,0.831,1
"405",2,1,45,"Nonmatching","mother","Mother","Close",831,0.831,1
"406",2,1,46,"Nonmatching","stranger","Stranger","Stranger",751,0.751,1
"407",2,1,47,"Matching","self","Self","Self",537,0.537,1
"408",2,1,48,"Matching","mother","Mother","Close",1218,1.218,1
"409",2,1,49,"Nonmatching","mother","Mother","Close",718,0.718,1
"410",2,1,50,"Nonmatching","stranger","Stranger","Stranger",608,0.608,1
"411",2,1,51,"Matching","stranger","Stranger","Stranger",598,0.598,0
"412",2,1,52,"Matching","stranger","Stranger","Stranger",618,0.618,1
"413",2,1,53,"Nonmatching","mother","Mother","Close",906,0.906,1
"414",2,1,55,"Nonmatching","stranger","Stranger","Stranger",867,0.867,1
"415",2,1,56,"Nonmatching","self","Self","Self",779,0.779,1
"416",2,1,57,"Nonmatching","self","Self","Self",577,0.577,1
"417",2,1,58,"Nonmatching","mother","Mother","Close",783,0.783,1
"418",2,1,59,"Matching","mother","Mother","Close",874,0.874,1
"419",2,1,60,"Matching","stranger","Stranger","Stranger",742,0.742,1
"420",2,2,61,"Nonmatching","stranger","Stranger","Stranger",791,0.791,1
"421",2,2,62,"Matching","self","Self","Self",519,0.519,1
"422",2,2,63,"Matching","self","Self","Self",448,0.448,1
"423",2,2,64,"Matching","self","Self","Self",418,0.418,1
"424",2,2,65,"Matching","self","Self","Self",466,0.466,1
"425",2,2,66,"Matching","stranger","Stranger","Stranger",566,0.566,0
"426",2,2,67,"Matching","mother","Mother","Close",534,0.534,1
"427",2,2,68,"Matching","mother","Mother","Close",405,0.405,1
"428",2,2,69,"Nonmatching","self","Self","Self",603,0.603,1
"429",2,2,70,"Matching","stranger","Stranger","Stranger",851,0.851,1
"430",2,2,71,"Nonmatching","stranger","Stranger","Stranger",1179,1.179,1
"431",2,2,72,"Matching","self","Self","Self",543,0.543,1
"432",2,2,73,"Matching","self","Self","Self",502,0.502,1
"433",2,2,74,"Matching","mother","Mother","Close",442,0.442,1
"434",2,2,75,"Nonmatching","mother","Mother","Close",677,0.677,1
"435",2,2,76,"Matching","mother","Mother","Close",415,0.415,1
"436",2,2,77,"Nonmatching","stranger","Stranger","Stranger",630,0.63,0
"437",2,2,78,"Matching","mother","Mother","Close",572,0.572,1
"438",2,2,79,"Nonmatching","stranger","Stranger","Stranger",654,0.654,1
"439",2,2,80,"Matching","stranger","Stranger","Stranger",816,0.816,1
"440",2,2,81,"Nonmatching","stranger","Stranger","Stranger",644,0.644,1
"441",2,2,82,"Matching","stranger","Stranger","Stranger",869,0.869,1
"442",2,2,83,"Nonmatching","self","Self","Self",1001,1.001,1
"443",2,2,84,"Nonmatching","mother","Mother","Close",627,0.627,1
"444",2,2,85,"Nonmatching","mother","Mother","Close",709,0.709,1
"445",2,2,86,"Matching","self","Self","Self",525,0.525,1
"446",2,2,87,"Nonmatching","self","Self","Self",676,0.676,1
"447",2,2,88,"Matching","stranger","Stranger","Stranger",756,0.756,1
"448",2,2,89,"Nonmatching","mother","Mother","Close",854,0.854,1
"449",2,2,90,"Matching","self","Self","Self",722,0.722,1
"450",2,2,91,"Nonmatching","stranger","Stranger","Stranger",686,0.686,1
"451",2,2,92,"Nonmatching","self","Self","Self",686,0.686,1
"452",2,2,93,"Nonmatching","self","Self","Self",689,0.689,1
"453",2,2,94,"Nonmatching","self","Self","Self",607,0.607,1
"454",2,2,95,"Nonmatching","mother","Mother","Close",761,0.761,1
"455",2,2,96,"Matching","stranger","Stranger","Stranger",933,0.933,1
"456",2,2,97,"Nonmatching","stranger","Stranger","Stranger",936,0.936,1
"457",2,2,98,"Matching","stranger","Stranger","Stranger",892,0.892,1
"458",2,2,99,"Matching","stranger","Stranger","Stranger",720,0.72,1
"459",2,2,100,"Matching","self","Self","Self",494,0.494,1
"460",2,2,101,"Nonmatching","mother","Mother","Close",804,0.804,1
"461",2,2,102,"Matching","mother","Mother","Close",549,0.549,1
"462",2,2,103,"Matching","mother","Mother","Close",473,0.473,1
"463",2,2,104,"Nonmatching","stranger","Stranger","Stranger",547,0.547,1
"464",2,2,105,"Nonmatching","self","Self","Self",581,0.581,1
"465",2,2,106,"Matching","stranger","Stranger","Stranger",664,0.664,0
"466",2,2,107,"Matching","stranger","Stranger","Stranger",592,0.592,1
"467",2,2,108,"Matching","self","Self","Self",552,0.552,1
"468",2,2,109,"Nonmatching","mother","Mother","Close",684,0.684,1
"469",2,2,110,"Nonmatching","self","Self","Self",615,0.615,1
"470",2,2,111,"Matching","mother","Mother","Close",557,0.557,1
"471",2,2,112,"Nonmatching","mother","Mother","Close",871,0.871,1
"472",2,2,113,"Matching","mother","Mother","Close",957,0.957,1
"473",2,2,114,"Nonmatching","stranger","Stranger","Stranger",700,0.7,1
"474",2,2,115,"Nonmatching","stranger","Stranger","Stranger",804,0.804,1
"475",2,2,116,"Matching","mother","Mother","Close",528,0.528,1
"476",2,2,117,"Nonmatching","mother","Mother","Close",468,0.468,1
"477",2,2,118,"Nonmatching","mother","Mother","Close",893,0.893,1
"478",2,2,119,"Nonmatching","self","Self","Self",525,0.525,1
"479",2,2,120,"Nonmatching","self","Self","Self",520,0.52,1
"480",2,3,121,"Matching","self","Self","Self",616,0.616,1
"481",2,3,122,"Matching","mother","Mother","Close",648,0.648,1
"482",2,3,123,"Nonmatching","stranger","Stranger","Stranger",841,0.841,1
"483",2,3,124,"Matching","stranger","Stranger","Stranger",935,0.935,0
"484",2,3,125,"Matching","stranger","Stranger","Stranger",625,0.625,1
"485",2,3,126,"Nonmatching","mother","Mother","Close",683,0.683,1
"486",2,3,127,"Nonmatching","self","Self","Self",607,0.607,1
"487",2,3,128,"Nonmatching","self","Self","Self",545,0.545,1
"488",2,3,129,"Matching","stranger","Stranger","Stranger",564,0.564,1
"489",2,3,130,"Nonmatching","self","Self","Self",630,0.63,1
"490",2,3,131,"Nonmatching","self","Self","Self",672,0.672,1
"491",2,3,132,"Matching","stranger","Stranger","Stranger",640,0.64,1
"492",2,3,133,"Matching","stranger","Stranger","Stranger",755,0.755,0
"493",2,3,134,"Nonmatching","self","Self","Self",575,0.575,1
"494",2,3,135,"Matching","mother","Mother","Close",503,0.503,1
"495",2,3,136,"Nonmatching","self","Self","Self",611,0.611,1
"496",2,3,137,"Nonmatching","stranger","Stranger","Stranger",764,0.764,1
"497",2,3,138,"Matching","mother","Mother","Close",552,0.552,1
"498",2,3,139,"Matching","stranger","Stranger","Stranger",802,0.802,1
"499",2,3,140,"Nonmatching","mother","Mother","Close",630,0.63,1
"500",2,3,141,"Matching","mother","Mother","Close",557,0.557,1
"501",2,3,142,"Matching","stranger","Stranger","Stranger",875,0.875,1
"502",2,3,143,"Nonmatching","stranger","Stranger","Stranger",901,0.901,1
"503",2,3,144,"Matching","stranger","Stranger","Stranger",701,0.701,1
"504",2,3,145,"Nonmatching","stranger","Stranger","Stranger",697,0.697,1
"505",2,3,146,"Matching","self","Self","Self",594,0.594,1
"506",2,3,147,"Nonmatching","mother","Mother","Close",766,0.766,1
"507",2,3,148,"Matching","self","Self","Self",442,0.442,1
"508",2,3,149,"Matching","mother","Mother","Close",652,0.652,1
"509",2,3,150,"Nonmatching","stranger","Stranger","Stranger",586,0.586,1
"510",2,3,151,"Matching","mother","Mother","Close",440,0.44,1
"511",2,3,152,"Nonmatching","stranger","Stranger","Stranger",865,0.865,1
"512",2,3,153,"Matching","self","Self","Self",653,0.653,1
"513",2,3,154,"Matching","self","Self","Self",633,0.633,1
"514",2,3,155,"Nonmatching","mother","Mother","Close",743,0.743,1
"515",2,3,156,"Nonmatching","stranger","Stranger","Stranger",677,0.677,1
"516",2,3,157,"Nonmatching","stranger","Stranger","Stranger",1078,1.078,1
"517",2,3,158,"Nonmatching","mother","Mother","Close",750,0.75,1
"518",2,3,159,"Nonmatching","mother","Mother","Close",634,0.634,1
"519",2,3,160,"Nonmatching","self","Self","Self",689,0.689,1
"520",2,3,161,"Nonmatching","self","Self","Self",644,0.644,1
"521",2,3,162,"Matching","mother","Mother","Close",542,0.542,1
"522",2,3,163,"Nonmatching","self","Self","Self",1026,1.026,1
"523",2,3,164,"Matching","self","Self","Self",630,0.63,1
"524",2,3,165,"Nonmatching","mother","Mother","Close",482,0.482,1
"525",2,3,166,"Matching","self","Self","Self",795,0.795,1
"526",2,3,167,"Matching","self","Self","Self",497,0.497,1
"527",2,3,168,"Matching","self","Self","Self",431,0.431,1
"528",2,3,169,"Matching","mother","Mother","Close",497,0.497,1
"529",2,3,170,"Matching","self","Self","Self",443,0.443,1
"530",2,3,171,"Matching","mother","Mother","Close",490,0.49,1
"531",2,3,172,"Matching","mother","Mother","Close",368,0.368,1
"532",2,3,173,"Nonmatching","mother","Mother","Close",716,0.716,1
"533",2,3,174,"Nonmatching","mother","Mother","Close",584,0.584,1
"534",2,3,175,"Matching","stranger","Stranger","Stranger",543,0.543,0
"535",2,3,176,"Matching","stranger","Stranger","Stranger",447,0.447,1
"536",2,3,177,"Nonmatching","self","Self","Self",779,0.779,1
"537",2,3,178,"Nonmatching","stranger","Stranger","Stranger",751,0.751,0
"538",2,3,179,"Nonmatching","stranger","Stranger","Stranger",896,0.896,1
"539",2,3,180,"Nonmatching","mother","Mother","Close",678,0.678,1
"540",2,4,181,"Nonmatching","self","Self","Self",601,0.601,1
"541",2,4,185,"Nonmatching","mother","Mother","Close",716,0.716,1
"542",2,4,186,"Nonmatching","stranger","Stranger","Stranger",734,0.734,1
"543",2,4,188,"Nonmatching","mother","Mother","Close",576,0.576,1
"544",2,4,189,"Nonmatching","self","Self","Self",646,0.646,1
"545",2,4,190,"Nonmatching","stranger","Stranger","Stranger",523,0.523,1
"546",2,4,191,"Matching","self","Self","Self",465,0.465,1
"547",2,4,192,"Nonmatching","mother","Mother","Close",699,0.699,1
"548",2,4,193,"Matching","mother","Mother","Close",543,0.543,1
"549",2,4,194,"Matching","mother","Mother","Close",488,0.488,1
"550",2,4,195,"Nonmatching","self","Self","Self",532,0.532,1
"551",2,4,196,"Nonmatching","stranger","Stranger","Stranger",592,0.592,1
"552",2,4,197,"Matching","self","Self","Self",506,0.506,1
"553",2,4,198,"Matching","stranger","Stranger","Stranger",468,0.468,0
"554",2,4,199,"Nonmatching","stranger","Stranger","Stranger",625,0.625,1
"555",2,4,200,"Nonmatching","stranger","Stranger","Stranger",577,0.577,1
"556",2,4,201,"Nonmatching","self","Self","Self",507,0.507,1
"557",2,4,202,"Matching","mother","Mother","Close",557,0.557,1
"558",2,4,203,"Matching","self","Self","Self",524,0.524,1
"559",2,4,204,"Matching","mother","Mother","Close",485,0.485,1
"560",2,4,205,"Nonmatching","stranger","Stranger","Stranger",649,0.649,0
"561",2,4,206,"Nonmatching","stranger","Stranger","Stranger",631,0.631,1
"562",2,4,207,"Matching","stranger","Stranger","Stranger",779,0.779,1
"563",2,4,208,"Matching","self","Self","Self",454,0.454,1
"564",2,4,209,"Matching","mother","Mother","Close",588,0.588,1
"565",2,4,210,"Matching","stranger","Stranger","Stranger",552,0.552,0
"566",2,4,211,"Nonmatching","mother","Mother","Close",758,0.758,1
"567",2,4,212,"Matching","self","Self","Self",600,0.6,1
"568",2,4,213,"Matching","mother","Mother","Close",671,0.671,1
"569",2,4,214,"Matching","stranger","Stranger","Stranger",891,0.891,0
"570",2,4,215,"Matching","stranger","Stranger","Stranger",631,0.631,1
"571",2,4,216,"Nonmatching","mother","Mother","Close",963,0.963,1
"572",2,4,217,"Matching","mother","Mother","Close",491,0.491,1
"573",2,4,218,"Nonmatching","stranger","Stranger","Stranger",762,0.762,1
"574",2,4,219,"Nonmatching","mother","Mother","Close",950,0.95,1
"575",2,4,220,"Nonmatching","mother","Mother","Close",1222,1.222,1
"576",2,4,221,"Matching","self","Self","Self",424,0.424,1
"577",2,4,222,"Matching","self","Self","Self",426,0.426,1
"578",2,4,223,"Matching","self","Self","Self",429,0.429,1
"579",2,4,224,"Matching","stranger","Stranger","Stranger",811,0.811,1
"580",2,4,225,"Matching","stranger","Stranger","Stranger",429,0.429,1
"581",2,4,226,"Nonmatching","mother","Mother","Close",535,0.535,1
"582",2,4,227,"Nonmatching","stranger","Stranger","Stranger",607,0.607,0
"583",2,4,228,"Nonmatching","self","Self","Self",692,0.692,1
"584",2,4,229,"Nonmatching","mother","Mother","Close",642,0.642,1
"585",2,4,230,"Matching","mother","Mother","Close",462,0.462,1
"586",2,4,231,"Matching","stranger","Stranger","Stranger",774,0.774,1
"587",2,4,232,"Matching","stranger","Stranger","Stranger",463,0.463,1
"588",2,4,233,"Nonmatching","self","Self","Self",569,0.569,1
"589",2,4,234,"Matching","self","Self","Self",683,0.683,1
"590",2,4,235,"Nonmatching","self","Self","Self",591,0.591,1
"591",2,4,236,"Matching","stranger","Stranger","Stranger",607,0.607,0
"592",2,4,237,"Nonmatching","self","Self","Self",662,0.662,1
"593",2,4,238,"Matching","mother","Mother","Close",446,0.446,1
"594",2,4,239,"Matching","mother","Mother","Close",590,0.59,1
"595",2,4,240,"Nonmatching","self","Self","Self",730,0.73,1
"596",2,5,241,"Nonmatching","self","Self","Self",644,0.644,1
"597",2,5,242,"Nonmatching","stranger","Stranger","Stranger",876,0.876,1
"598",2,5,243,"Matching","stranger","Stranger","Stranger",640,0.64,1
"599",2,5,244,"Matching","mother","Mother","Close",594,0.594,1
"600",2,5,245,"Matching","stranger","Stranger","Stranger",529,0.529,0
"601",2,5,246,"Matching","mother","Mother","Close",456,0.456,1
"602",2,5,247,"Matching","stranger","Stranger","Stranger",476,0.476,1
"603",2,5,248,"Nonmatching","stranger","Stranger","Stranger",850,0.85,1
"604",2,5,249,"Matching","self","Self","Self",654,0.654,1
"605",2,5,250,"Matching","stranger","Stranger","Stranger",777,0.777,1
"606",2,5,251,"Nonmatching","self","Self","Self",741,0.741,1
"607",2,5,252,"Nonmatching","mother","Mother","Close",763,0.763,1
"608",2,5,253,"Matching","stranger","Stranger","Stranger",815,0.815,1
"609",2,5,254,"Nonmatching","mother","Mother","Close",754,0.754,1
"610",2,5,255,"Nonmatching","mother","Mother","Close",684,0.684,1
"611",2,5,256,"Matching","stranger","Stranger","Stranger",958,0.958,1
"612",2,5,257,"Nonmatching","self","Self","Self",674,0.674,1
"613",2,5,258,"Nonmatching","mother","Mother","Close",697,0.697,1
"614",2,5,259,"Nonmatching","self","Self","Self",505,0.505,1
"615",2,5,260,"Nonmatching","stranger","Stranger","Stranger",619,0.619,1
"616",2,5,261,"Matching","mother","Mother","Close",679,0.679,1
"617",2,5,262,"Matching","stranger","Stranger","Stranger",727,0.727,1
"618",2,5,263,"Nonmatching","stranger","Stranger","Stranger",740,0.74,1
"619",2,5,264,"Nonmatching","self","Self","Self",712,0.712,1
"620",2,5,265,"Nonmatching","self","Self","Self",722,0.722,1
"621",2,5,266,"Nonmatching","self","Self","Self",786,0.786,1
"622",2,5,267,"Nonmatching","mother","Mother","Close",604,0.604,1
"623",2,5,268,"Matching","mother","Mother","Close",809,0.809,1
"624",2,5,269,"Matching","mother","Mother","Close",573,0.573,1
"625",2,5,270,"Matching","self","Self","Self",613,0.613,1
"626",2,5,271,"Nonmatching","mother","Mother","Close",565,0.565,1
"627",2,5,272,"Matching","self","Self","Self",643,0.643,1
"628",2,5,273,"Nonmatching","mother","Mother","Close",506,0.506,1
"629",2,5,274,"Nonmatching","self","Self","Self",672,0.672,1
"630",2,5,275,"Matching","self","Self","Self",524,0.524,1
"631",2,5,276,"Matching","mother","Mother","Close",512,0.512,1
"632",2,5,277,"Nonmatching","self","Self","Self",863,0.863,1
"633",2,5,278,"Nonmatching","stranger","Stranger","Stranger",649,0.649,1
"634",2,5,279,"Matching","self","Self","Self",479,0.479,1
"635",2,5,280,"Nonmatching","mother","Mother","Close",675,0.675,1
"636",2,5,281,"Matching","self","Self","Self",431,0.431,1
"637",2,5,282,"Matching","self","Self","Self",509,0.509,1
"638",2,5,284,"Nonmatching","stranger","Stranger","Stranger",724,0.724,1
"639",2,5,285,"Nonmatching","stranger","Stranger","Stranger",682,0.682,1
"640",2,5,286,"Matching","mother","Mother","Close",438,0.438,1
"641",2,5,287,"Matching","self","Self","Self",504,0.504,1
"642",2,5,288,"Nonmatching","stranger","Stranger","Stranger",556,0.556,1
"643",2,5,289,"Matching","mother","Mother","Close",499,0.499,1
"644",2,5,290,"Matching","stranger","Stranger","Stranger",763,0.763,1
"645",2,5,291,"Nonmatching","stranger","Stranger","Stranger",702,0.702,1
"646",2,5,293,"Matching","mother","Mother","Close",532,0.532,1
"647",2,5,294,"Nonmatching","stranger","Stranger","Stranger",877,0.877,1
"648",2,5,295,"Nonmatching","mother","Mother","Close",995,0.995,1
"649",2,5,296,"Matching","mother","Mother","Close",491,0.491,1
"650",2,5,297,"Matching","stranger","Stranger","Stranger",696,0.696,1
"651",2,5,298,"Matching","self","Self","Self",608,0.608,1
"652",2,5,299,"Matching","self","Self","Self",444,0.444,1
"653",2,5,300,"Matching","stranger","Stranger","Stranger",616,0.616,1
"654",2,6,301,"Nonmatching","stranger","Stranger","Stranger",662,0.662,1
"655",2,6,302,"Nonmatching","self","Self","Self",554,0.554,1
"656",2,6,303,"Matching","stranger","Stranger","Stranger",771,0.771,1
"657",2,6,304,"Matching","stranger","Stranger","Stranger",607,0.607,1
"658",2,6,305,"Matching","self","Self","Self",483,0.483,1
"659",2,6,306,"Matching","self","Self","Self",345,0.345,1
"660",2,6,307,"Nonmatching","self","Self","Self",529,0.529,1
"661",2,6,308,"Nonmatching","stranger","Stranger","Stranger",743,0.743,1
"662",2,6,309,"Nonmatching","mother","Mother","Close",922,0.922,1
"663",2,6,310,"Nonmatching","stranger","Stranger","Stranger",686,0.686,1
"664",2,6,311,"Matching","mother","Mother","Close",498,0.498,1
"665",2,6,312,"Nonmatching","stranger","Stranger","Stranger",538,0.538,1
"666",2,6,313,"Nonmatching","mother","Mother","Close",539,0.539,1
"667",2,6,314,"Nonmatching","mother","Mother","Close",749,0.749,1
"668",2,6,315,"Matching","stranger","Stranger","Stranger",621,0.621,1
"669",2,6,316,"Matching","mother","Mother","Close",579,0.579,1
"670",2,6,317,"Matching","self","Self","Self",415,0.415,1
"671",2,6,318,"Matching","mother","Mother","Close",644,0.644,1
"672",2,6,319,"Matching","mother","Mother","Close",574,0.574,1
"673",2,6,320,"Nonmatching","stranger","Stranger","Stranger",778,0.778,1
"674",2,6,321,"Matching","self","Self","Self",410,0.41,1
"675",2,6,322,"Matching","self","Self","Self",417,0.417,1
"676",2,6,323,"Matching","stranger","Stranger","Stranger",739,0.739,1
"677",2,6,324,"Matching","mother","Mother","Close",503,0.503,1
"678",2,6,325,"Nonmatching","mother","Mother","Close",577,0.577,1
"679",2,6,326,"Nonmatching","self","Self","Self",1000,1,1
"680",2,6,327,"Matching","stranger","Stranger","Stranger",618,0.618,1
"681",2,6,328,"Nonmatching","stranger","Stranger","Stranger",756,0.756,1
"682",2,6,329,"Nonmatching","mother","Mother","Close",896,0.896,1
"683",2,6,330,"Matching","stranger","Stranger","Stranger",627,0.627,1
"684",2,6,331,"Matching","mother","Mother","Close",578,0.578,1
"685",2,6,332,"Nonmatching","self","Self","Self",738,0.738,1
"686",2,6,333,"Matching","stranger","Stranger","Stranger",816,0.816,1
"687",2,6,334,"Nonmatching","mother","Mother","Close",615,0.615,1
"688",2,6,335,"Matching","mother","Mother","Close",701,0.701,1
"689",2,6,336,"Nonmatching","stranger","Stranger","Stranger",795,0.795,0
"690",2,6,337,"Nonmatching","self","Self","Self",727,0.727,1
"691",2,6,338,"Matching","stranger","Stranger","Stranger",531,0.531,1
"692",2,6,339,"Matching","mother","Mother","Close",422,0.422,1
"693",2,6,340,"Nonmatching","stranger","Stranger","Stranger",692,0.692,1
"694",2,6,341,"Nonmatching","self","Self","Self",564,0.564,1
"695",2,6,342,"Nonmatching","mother","Mother","Close",664,0.664,1
"696",2,6,343,"Nonmatching","mother","Mother","Close",862,0.862,1
"697",2,6,344,"Matching","self","Self","Self",527,0.527,1
"698",2,6,345,"Nonmatching","self","Self","Self",463,0.463,1
"699",2,6,346,"Nonmatching","mother","Mother","Close",517,0.517,1
"700",2,6,347,"Nonmatching","stranger","Stranger","Stranger",589,0.589,1
"701",2,6,348,"Matching","mother","Mother","Close",910,0.91,1
"702",2,6,349,"Matching","mother","Mother","Close",420,0.42,1
"703",2,6,350,"Nonmatching","stranger","Stranger","Stranger",666,0.666,1
"704",2,6,351,"Nonmatching","self","Self","Self",552,0.552,1
"705",2,6,352,"Matching","stranger","Stranger","Stranger",922,0.922,1
"706",2,6,353,"Nonmatching","self","Self","Self",868,0.868,1
"707",2,6,354,"Nonmatching","mother","Mother","Close",609,0.609,1
"708",2,6,355,"Matching","self","Self","Self",467,0.467,1
"709",2,6,356,"Nonmatching","self","Self","Self",475,0.475,1
"710",2,6,357,"Matching","self","Self","Self",483,0.483,1
"711",2,6,358,"Matching","self","Self","Self",434,0.434,1
"712",2,6,359,"Matching","self","Self","Self",460,0.46,1
"713",2,6,360,"Matching","stranger","Stranger","Stranger",574,0.574,1
"714",3,1,1,"Nonmatching","self","Self","Self",514,0.514,1
"715",3,1,2,"Matching","self","Self","Self",750,0.75,1
"716",3,1,3,"Matching","mother","Mother","Close",548,0.548,1
"717",3,1,4,"Matching","mother","Mother","Close",653,0.653,1
"718",3,1,5,"Nonmatching","mother","Mother","Close",407,0.407,1
"719",3,1,6,"Matching","stranger","Stranger","Stranger",603,0.603,1
"720",3,1,7,"Nonmatching","mother","Mother","Close",592,0.592,1
"721",3,1,8,"Matching","self","Self","Self",938,0.938,1
"722",3,1,9,"Matching","mother","Mother","Close",626,0.626,1
"723",3,1,10,"Nonmatching","self","Self","Self",504,0.504,1
"724",3,1,11,"Matching","stranger","Stranger","Stranger",573,0.573,1
"725",3,1,12,"Nonmatching","mother","Mother","Close",695,0.695,1
"726",3,1,13,"Matching","self","Self","Self",595,0.595,0
"727",3,1,14,"Matching","stranger","Stranger","Stranger",490,0.49,1
"728",3,1,15,"Matching","mother","Mother","Close",592,0.592,1
"729",3,1,16,"Nonmatching","self","Self","Self",562,0.562,1
"730",3,1,17,"Nonmatching","stranger","Stranger","Stranger",706,0.706,1
"731",3,1,18,"Nonmatching","self","Self","Self",916,0.916,0
"732",3,1,19,"Matching","stranger","Stranger","Stranger",524,0.524,1
"733",3,1,20,"Matching","self","Self","Self",836,0.836,0
"734",3,1,21,"Nonmatching","mother","Mother","Close",800,0.8,1
"735",3,1,22,"Nonmatching","stranger","Stranger","Stranger",577,0.577,1
"736",3,1,23,"Nonmatching","self","Self","Self",491,0.491,0
"737",3,1,24,"Matching","self","Self","Self",605,0.605,0
"738",3,1,25,"Matching","mother","Mother","Close",598,0.598,1
"739",3,1,26,"Nonmatching","self","Self","Self",564,0.564,1
"740",3,1,27,"Matching","mother","Mother","Close",556,0.556,0
"741",3,1,28,"Matching","stranger","Stranger","Stranger",644,0.644,1
"742",3,1,29,"Nonmatching","stranger","Stranger","Stranger",547,0.547,1
"743",3,1,30,"Matching","self","Self","Self",641,0.641,0
"744",3,1,31,"Nonmatching","stranger","Stranger","Stranger",451,0.451,1
"745",3,1,32,"Matching","self","Self","Self",538,0.538,0
"746",3,1,33,"Matching","mother","Mother","Close",568,0.568,1
"747",3,1,34,"Matching","self","Self","Self",454,0.454,1
"748",3,1,35,"Nonmatching","stranger","Stranger","Stranger",446,0.446,0
"749",3,1,36,"Nonmatching","mother","Mother","Close",615,0.615,1
"750",3,1,37,"Nonmatching","stranger","Stranger","Stranger",767,0.767,0
"751",3,1,38,"Nonmatching","stranger","Stranger","Stranger",729,0.729,1
"752",3,1,39,"Matching","stranger","Stranger","Stranger",629,0.629,1
"753",3,1,40,"Matching","self","Self","Self",598,0.598,0
"754",3,1,41,"Nonmatching","stranger","Stranger","Stranger",576,0.576,1
"755",3,1,42,"Nonmatching","mother","Mother","Close",540,0.54,1
"756",3,1,43,"Matching","stranger","Stranger","Stranger",490,0.49,1
"757",3,1,44,"Nonmatching","self","Self","Self",587,0.587,1
"758",3,1,45,"Nonmatching","mother","Mother","Close",601,0.601,1
"759",3,1,46,"Nonmatching","stranger","Stranger","Stranger",401,0.401,1
"760",3,1,47,"Matching","mother","Mother","Close",570,0.57,1
"761",3,1,48,"Nonmatching","mother","Mother","Close",363,0.363,1
"762",3,1,49,"Nonmatching","stranger","Stranger","Stranger",515,0.515,1
"763",3,1,50,"Matching","mother","Mother","Close",549,0.549,1
"764",3,1,51,"Nonmatching","self","Self","Self",867,0.867,1
"765",3,1,52,"Nonmatching","self","Self","Self",684,0.684,1
"766",3,1,53,"Matching","stranger","Stranger","Stranger",598,0.598,1
"767",3,1,54,"Nonmatching","self","Self","Self",506,0.506,1
"768",3,1,55,"Nonmatching","mother","Mother","Close",547,0.547,1
"769",3,1,56,"Matching","mother","Mother","Close",445,0.445,0
"770",3,1,57,"Matching","stranger","Stranger","Stranger",489,0.489,1
"771",3,1,58,"Matching","self","Self","Self",492,0.492,1
"772",3,1,59,"Matching","stranger","Stranger","Stranger",490,0.49,0
"773",3,1,60,"Nonmatching","mother","Mother","Close",496,0.496,1
"774",3,2,61,"Matching","stranger","Stranger","Stranger",616,0.616,1
"775",3,2,62,"Matching","stranger","Stranger","Stranger",698,0.698,1
"776",3,2,63,"Nonmatching","stranger","Stranger","Stranger",389,0.389,1
"777",3,2,64,"Matching","self","Self","Self",583,0.583,1
"778",3,2,65,"Matching","self","Self","Self",503,0.503,1
"779",3,2,66,"Nonmatching","mother","Mother","Close",537,0.537,1
"780",3,2,67,"Nonmatching","mother","Mother","Close",492,0.492,1
"781",3,2,68,"Nonmatching","stranger","Stranger","Stranger",598,0.598,1
"782",3,2,69,"Nonmatching","mother","Mother","Close",550,0.55,1
"783",3,2,70,"Nonmatching","stranger","Stranger","Stranger",438,0.438,0
"784",3,2,71,"Matching","mother","Mother","Close",525,0.525,1
"785",3,2,72,"Matching","mother","Mother","Close",539,0.539,1
"786",3,2,73,"Nonmatching","self","Self","Self",543,0.543,1
"787",3,2,74,"Nonmatching","stranger","Stranger","Stranger",612,0.612,1
"788",3,2,75,"Matching","self","Self","Self",425,0.425,0
"789",3,2,76,"Matching","self","Self","Self",747,0.747,1
"790",3,2,77,"Matching","mother","Mother","Close",485,0.485,1
"791",3,2,78,"Matching","self","Self","Self",636,0.636,0
"792",3,2,79,"Matching","mother","Mother","Close",592,0.592,1
"793",3,2,80,"Nonmatching","self","Self","Self",476,0.476,1
"794",3,2,81,"Nonmatching","mother","Mother","Close",461,0.461,1
"795",3,2,82,"Matching","self","Self","Self",597,0.597,1
"796",3,2,83,"Matching","self","Self","Self",471,0.471,1
"797",3,2,84,"Matching","stranger","Stranger","Stranger",426,0.426,0
"798",3,2,85,"Nonmatching","mother","Mother","Close",524,0.524,1
"799",3,2,86,"Nonmatching","stranger","Stranger","Stranger",468,0.468,0
"800",3,2,87,"Nonmatching","self","Self","Self",796,0.796,1
"801",3,2,88,"Nonmatching","self","Self","Self",569,0.569,1
"802",3,2,89,"Nonmatching","self","Self","Self",789,0.789,1
"803",3,2,90,"Matching","stranger","Stranger","Stranger",477,0.477,1
"804",3,2,91,"Matching","stranger","Stranger","Stranger",495,0.495,0
"805",3,2,92,"Nonmatching","self","Self","Self",686,0.686,1
"806",3,2,93,"Nonmatching","self","Self","Self",570,0.57,1
"807",3,2,94,"Nonmatching","mother","Mother","Close",514,0.514,1
"808",3,2,95,"Nonmatching","mother","Mother","Close",609,0.609,1
"809",3,2,96,"Matching","stranger","Stranger","Stranger",493,0.493,1
"810",3,2,97,"Nonmatching","self","Self","Self",503,0.503,1
"811",3,2,98,"Matching","self","Self","Self",631,0.631,1
"812",3,2,99,"Nonmatching","stranger","Stranger","Stranger",554,0.554,1
"813",3,2,100,"Matching","stranger","Stranger","Stranger",466,0.466,0
"814",3,2,101,"Matching","mother","Mother","Close",756,0.756,1
"815",3,2,102,"Nonmatching","stranger","Stranger","Stranger",594,0.594,1
"816",3,2,103,"Matching","self","Self","Self",793,0.793,1
"817",3,2,104,"Matching","mother","Mother","Close",622,0.622,1
"818",3,2,105,"Matching","stranger","Stranger","Stranger",640,0.64,1
"819",3,2,106,"Matching","self","Self","Self",810,0.81,1
"820",3,2,107,"Matching","mother","Mother","Close",374,0.374,1
"821",3,2,108,"Nonmatching","self","Self","Self",791,0.791,1
"822",3,2,109,"Matching","stranger","Stranger","Stranger",799,0.799,1
"823",3,2,110,"Matching","mother","Mother","Close",937,0.937,1
"824",3,2,111,"Matching","mother","Mother","Close",409,0.409,1
"825",3,2,112,"Nonmatching","stranger","Stranger","Stranger",612,0.612,1
"826",3,2,113,"Nonmatching","mother","Mother","Close",596,0.596,1
"827",3,2,114,"Matching","mother","Mother","Close",792,0.792,1
"828",3,2,115,"Nonmatching","mother","Mother","Close",618,0.618,1
"829",3,2,116,"Matching","stranger","Stranger","Stranger",487,0.487,0
"830",3,2,117,"Nonmatching","mother","Mother","Close",613,0.613,1
"831",3,2,118,"Nonmatching","stranger","Stranger","Stranger",665,0.665,1
"832",3,2,119,"Nonmatching","stranger","Stranger","Stranger",516,0.516,1
"833",3,2,120,"Nonmatching","self","Self","Self",840,0.84,1
"834",3,3,121,"Matching","stranger","Stranger","Stranger",457,0.457,0
"835",3,3,122,"Nonmatching","self","Self","Self",713,0.713,1
"836",3,3,123,"Matching","self","Self","Self",868,0.868,1
"837",3,3,124,"Nonmatching","mother","Mother","Close",638,0.638,1
"838",3,3,125,"Nonmatching","mother","Mother","Close",488,0.488,1
"839",3,3,126,"Nonmatching","self","Self","Self",678,0.678,1
"840",3,3,127,"Nonmatching","self","Self","Self",749,0.749,0
"841",3,3,128,"Nonmatching","self","Self","Self",521,0.521,1
"842",3,3,129,"Matching","mother","Mother","Close",554,0.554,0
"843",3,3,130,"Nonmatching","stranger","Stranger","Stranger",599,0.599,1
"844",3,3,131,"Matching","self","Self","Self",607,0.607,0
"845",3,3,132,"Matching","mother","Mother","Close",627,0.627,1
"846",3,3,133,"Matching","mother","Mother","Close",605,0.605,0
"847",3,3,134,"Matching","mother","Mother","Close",414,0.414,0
"848",3,3,135,"Nonmatching","stranger","Stranger","Stranger",540,0.54,1
"849",3,3,136,"Nonmatching","stranger","Stranger","Stranger",554,0.554,1
"850",3,3,137,"Nonmatching","mother","Mother","Close",609,0.609,1
"851",3,3,138,"Nonmatching","self","Self","Self",541,0.541,1
"852",3,3,139,"Matching","self","Self","Self",691,0.691,1
"853",3,3,140,"Matching","stranger","Stranger","Stranger",403,0.403,0
"854",3,3,141,"Nonmatching","mother","Mother","Close",534,0.534,1
"855",3,3,142,"Nonmatching","stranger","Stranger","Stranger",656,0.656,1
"856",3,3,143,"Nonmatching","stranger","Stranger","Stranger",570,0.57,1
"857",3,3,144,"Nonmatching","mother","Mother","Close",622,0.622,1
"858",3,3,145,"Matching","mother","Mother","Close",619,0.619,1
"859",3,3,146,"Matching","mother","Mother","Close",457,0.457,0
"860",3,3,147,"Matching","self","Self","Self",751,0.751,0
"861",3,3,148,"Nonmatching","mother","Mother","Close",979,0.979,1
"862",3,3,149,"Matching","self","Self","Self",520,0.52,1
"863",3,3,150,"Nonmatching","stranger","Stranger","Stranger",444,0.444,0
"864",3,3,151,"Matching","self","Self","Self",760,0.76,0
"865",3,3,152,"Matching","stranger","Stranger","Stranger",706,0.706,1
"866",3,3,153,"Nonmatching","self","Self","Self",549,0.549,1
"867",3,3,154,"Nonmatching","mother","Mother","Close",919,0.919,1
"868",3,3,155,"Nonmatching","self","Self","Self",543,0.543,1
"869",3,3,156,"Matching","stranger","Stranger","Stranger",457,0.457,1
"870",3,3,157,"Matching","stranger","Stranger","Stranger",458,0.458,1
"871",3,3,158,"Matching","mother","Mother","Close",901,0.901,1
"872",3,3,159,"Nonmatching","self","Self","Self",543,0.543,1
"873",3,3,160,"Matching","self","Self","Self",626,0.626,0
"874",3,3,161,"Matching","stranger","Stranger","Stranger",574,0.574,1
"875",3,3,162,"Matching","mother","Mother","Close",1024,1.024,1
"876",3,3,163,"Matching","stranger","Stranger","Stranger",616,0.616,1
"877",3,3,164,"Nonmatching","stranger","Stranger","Stranger",735,0.735,1
"878",3,3,165,"Nonmatching","mother","Mother","Close",673,0.673,1
"879",3,3,166,"Matching","stranger","Stranger","Stranger",697,0.697,1
"880",3,3,167,"Matching","mother","Mother","Close",795,0.795,1
"881",3,3,168,"Nonmatching","mother","Mother","Close",542,0.542,1
"882",3,3,169,"Nonmatching","self","Self","Self",646,0.646,1
"883",3,3,170,"Matching","self","Self","Self",504,0.504,1
"884",3,3,171,"Nonmatching","mother","Mother","Close",738,0.738,1
"885",3,3,172,"Matching","self","Self","Self",589,0.589,0
"886",3,3,173,"Matching","stranger","Stranger","Stranger",431,0.431,1
"887",3,3,174,"Nonmatching","stranger","Stranger","Stranger",625,0.625,1
"888",3,3,175,"Matching","mother","Mother","Close",568,0.568,1
"889",3,3,176,"Nonmatching","self","Self","Self",598,0.598,1
"890",3,3,177,"Nonmatching","stranger","Stranger","Stranger",782,0.782,1
"891",3,3,178,"Matching","self","Self","Self",679,0.679,1
"892",3,3,179,"Nonmatching","stranger","Stranger","Stranger",565,0.565,1
"893",3,3,180,"Matching","stranger","Stranger","Stranger",679,0.679,1
"894",3,4,181,"Nonmatching","mother","Mother","Close",523,0.523,1
"895",3,4,182,"Matching","mother","Mother","Close",759,0.759,1
"896",3,4,183,"Matching","stranger","Stranger","Stranger",621,0.621,1
"897",3,4,184,"Nonmatching","stranger","Stranger","Stranger",479,0.479,1
"898",3,4,185,"Matching","stranger","Stranger","Stranger",456,0.456,1
"899",3,4,186,"Nonmatching","mother","Mother","Close",525,0.525,1
"900",3,4,187,"Nonmatching","self","Self","Self",677,0.677,1
"901",3,4,188,"Nonmatching","self","Self","Self",804,0.804,1
"902",3,4,189,"Nonmatching","stranger","Stranger","Stranger",736,0.736,1
"903",3,4,190,"Nonmatching","self","Self","Self",570,0.57,1
"904",3,4,191,"Nonmatching","stranger","Stranger","Stranger",587,0.587,1
"905",3,4,192,"Matching","mother","Mother","Close",555,0.555,1
"906",3,4,193,"Nonmatching","mother","Mother","Close",457,0.457,1
"907",3,4,194,"Nonmatching","stranger","Stranger","Stranger",642,0.642,1
"908",3,4,195,"Matching","mother","Mother","Close",716,0.716,1
"909",3,4,196,"Matching","self","Self","Self",640,0.64,1
"910",3,4,197,"Matching","stranger","Stranger","Stranger",454,0.454,1
"911",3,4,198,"Nonmatching","self","Self","Self",721,0.721,1
"912",3,4,199,"Matching","self","Self","Self",569,0.569,1
"913",3,4,200,"Nonmatching","mother","Mother","Close",523,0.523,1
"914",3,4,201,"Nonmatching","stranger","Stranger","Stranger",505,0.505,1
"915",3,4,202,"Nonmatching","stranger","Stranger","Stranger",482,0.482,1
"916",3,4,203,"Matching","stranger","Stranger","Stranger",598,0.598,1
"917",3,4,204,"Nonmatching","mother","Mother","Close",504,0.504,1
"918",3,4,205,"Matching","self","Self","Self",489,0.489,0
"919",3,4,206,"Matching","mother","Mother","Close",639,0.639,0
"920",3,4,207,"Nonmatching","stranger","Stranger","Stranger",553,0.553,1
"921",3,4,208,"Matching","stranger","Stranger","Stranger",348,0.348,1
"922",3,4,209,"Matching","mother","Mother","Close",538,0.538,1
"923",3,4,210,"Nonmatching","mother","Mother","Close",448,0.448,1
"924",3,4,211,"Nonmatching","mother","Mother","Close",595,0.595,1
"925",3,4,212,"Matching","mother","Mother","Close",451,0.451,1
"926",3,4,213,"Nonmatching","self","Self","Self",529,0.529,1
"927",3,4,214,"Matching","self","Self","Self",629,0.629,0
"928",3,4,215,"Matching","stranger","Stranger","Stranger",623,0.623,1
"929",3,4,216,"Matching","mother","Mother","Close",441,0.441,1
"930",3,4,217,"Matching","self","Self","Self",787,0.787,0
"931",3,4,218,"Matching","mother","Mother","Close",606,0.606,1
"932",3,4,219,"Matching","self","Self","Self",478,0.478,1
"933",3,4,220,"Matching","self","Self","Self",480,0.48,1
"934",3,4,221,"Nonmatching","self","Self","Self",516,0.516,0
"935",3,4,222,"Matching","stranger","Stranger","Stranger",968,0.968,1
"936",3,4,223,"Nonmatching","self","Self","Self",739,0.739,1
"937",3,4,224,"Matching","mother","Mother","Close",481,0.481,1
"938",3,4,225,"Nonmatching","stranger","Stranger","Stranger",587,0.587,1
"939",3,4,226,"Matching","mother","Mother","Close",601,0.601,1
"940",3,4,227,"Matching","stranger","Stranger","Stranger",513,0.513,1
"941",3,4,228,"Nonmatching","self","Self","Self",770,0.77,0
"942",3,4,229,"Nonmatching","mother","Mother","Close",538,0.538,1
"943",3,4,230,"Nonmatching","self","Self","Self",526,0.526,1
"944",3,4,231,"Matching","stranger","Stranger","Stranger",667,0.667,0
"945",3,4,232,"Nonmatching","mother","Mother","Close",531,0.531,1
"946",3,4,233,"Matching","self","Self","Self",1057,1.057,1
"947",3,4,234,"Nonmatching","mother","Mother","Close",639,0.639,1
"948",3,4,235,"Matching","stranger","Stranger","Stranger",657,0.657,0
"949",3,4,236,"Matching","self","Self","Self",624,0.624,0
"950",3,4,237,"Nonmatching","stranger","Stranger","Stranger",644,0.644,1
"951",3,4,238,"Nonmatching","stranger","Stranger","Stranger",566,0.566,1
"952",3,4,239,"Matching","self","Self","Self",875,0.875,1
"953",3,4,240,"Nonmatching","self","Self","Self",739,0.739,1
"954",3,5,241,"Matching","self","Self","Self",827,0.827,0
"955",3,5,242,"Nonmatching","mother","Mother","Close",818,0.818,1
"956",3,5,243,"Matching","stranger","Stranger","Stranger",666,0.666,1
"957",3,5,244,"Matching","stranger","Stranger","Stranger",504,0.504,1
"958",3,5,245,"Nonmatching","mother","Mother","Close",476,0.476,1
"959",3,5,246,"Matching","stranger","Stranger","Stranger",529,0.529,1
"960",3,5,247,"Matching","mother","Mother","Close",507,0.507,1
"961",3,5,248,"Matching","self","Self","Self",871,0.871,1
"962",3,5,249,"Nonmatching","mother","Mother","Close",476,0.476,0
"963",3,5,250,"Nonmatching","mother","Mother","Close",442,0.442,1
"964",3,5,251,"Matching","self","Self","Self",562,0.562,0
"965",3,5,252,"Matching","stranger","Stranger","Stranger",418,0.418,1
"966",3,5,253,"Nonmatching","stranger","Stranger","Stranger",499,0.499,1
"967",3,5,254,"Matching","stranger","Stranger","Stranger",951,0.951,1
"968",3,5,255,"Nonmatching","mother","Mother","Close",531,0.531,1
"969",3,5,256,"Nonmatching","mother","Mother","Close",569,0.569,1
"970",3,5,257,"Nonmatching","mother","Mother","Close",432,0.432,1
"971",3,5,258,"Nonmatching","mother","Mother","Close",496,0.496,1
"972",3,5,259,"Nonmatching","mother","Mother","Close",780,0.78,1
"973",3,5,260,"Nonmatching","self","Self","Self",616,0.616,1
"974",3,5,261,"Nonmatching","self","Self","Self",745,0.745,1
"975",3,5,262,"Matching","stranger","Stranger","Stranger",421,0.421,1
"976",3,5,263,"Matching","stranger","Stranger","Stranger",503,0.503,1
"977",3,5,264,"Matching","mother","Mother","Close",551,0.551,1
"978",3,5,265,"Matching","mother","Mother","Close",394,0.394,1
"979",3,5,266,"Nonmatching","stranger","Stranger","Stranger",620,0.62,1
"980",3,5,267,"Nonmatching","stranger","Stranger","Stranger",426,0.426,1
"981",3,5,268,"Nonmatching","stranger","Stranger","Stranger",414,0.414,1
"982",3,5,269,"Nonmatching","self","Self","Self",549,0.549,1
"983",3,5,270,"Matching","self","Self","Self",970,0.97,1
"984",3,5,271,"Matching","stranger","Stranger","Stranger",476,0.476,1
"985",3,5,272,"Nonmatching","stranger","Stranger","Stranger",527,0.527,1
"986",3,5,273,"Matching","self","Self","Self",481,0.481,0
"987",3,5,274,"Matching","mother","Mother","Close",957,0.957,0
"988",3,5,275,"Nonmatching","self","Self","Self",794,0.794,0
"989",3,5,276,"Matching","self","Self","Self",852,0.852,1
"990",3,5,277,"Nonmatching","self","Self","Self",802,0.802,1
"991",3,5,278,"Nonmatching","self","Self","Self",722,0.722,1
"992",3,5,279,"Matching","self","Self","Self",635,0.635,0
"993",3,5,280,"Nonmatching","stranger","Stranger","Stranger",695,0.695,1
"994",3,5,281,"Matching","mother","Mother","Close",835,0.835,1
"995",3,5,282,"Nonmatching","self","Self","Self",659,0.659,1
"996",3,5,283,"Matching","stranger","Stranger","Stranger",428,0.428,1
"997",3,5,284,"Matching","mother","Mother","Close",806,0.806,1
"998",3,5,285,"Matching","mother","Mother","Close",522,0.522,1
"999",3,5,286,"Matching","stranger","Stranger","Stranger",541,0.541,1
"1000",3,5,287,"Nonmatching","stranger","Stranger","Stranger",551,0.551,1
"1001",3,5,288,"Matching","mother","Mother","Close",525,0.525,1
"1002",3,5,289,"Nonmatching","mother","Mother","Close",371,0.371,0
"1003",3,5,290,"Nonmatching","stranger","Stranger","Stranger",568,0.568,1
"1004",3,5,291,"Matching","self","Self","Self",868,0.868,1
"1005",3,5,292,"Matching","self","Self","Self",488,0.488,1
"1006",3,5,293,"Nonmatching","self","Self","Self",457,0.457,1
"1007",3,5,294,"Nonmatching","stranger","Stranger","Stranger",541,0.541,1
"1008",3,5,295,"Nonmatching","stranger","Stranger","Stranger",481,0.481,1
"1009",3,5,296,"Matching","self","Self","Self",565,0.565,0
"1010",3,5,297,"Matching","mother","Mother","Close",581,0.581,1
"1011",3,5,298,"Nonmatching","self","Self","Self",574,0.574,1
"1012",3,5,299,"Matching","mother","Mother","Close",612,0.612,1
"1013",3,5,300,"Nonmatching","self","Self","Self",736,0.736,1
"1014",3,6,301,"Matching","stranger","Stranger","Stranger",587,0.587,1
"1015",3,6,302,"Nonmatching","stranger","Stranger","Stranger",529,0.529,1
"1016",3,6,303,"Matching","stranger","Stranger","Stranger",525,0.525,1
"1017",3,6,304,"Matching","mother","Mother","Close",505,0.505,1
"1018",3,6,305,"Matching","self","Self","Self",667,0.667,1
"1019",3,6,306,"Nonmatching","self","Self","Self",710,0.71,1
"1020",3,6,307,"Nonmatching","mother","Mother","Close",502,0.502,1
"1021",3,6,308,"Nonmatching","mother","Mother","Close",606,0.606,1
"1022",3,6,309,"Matching","self","Self","Self",696,0.696,1
"1023",3,6,310,"Nonmatching","mother","Mother","Close",565,0.565,1
"1024",3,6,311,"Nonmatching","stranger","Stranger","Stranger",568,0.568,1
"1025",3,6,312,"Nonmatching","self","Self","Self",945,0.945,1
"1026",3,6,313,"Matching","self","Self","Self",395,0.395,1
"1027",3,6,314,"Nonmatching","self","Self","Self",695,0.695,1
"1028",3,6,315,"Matching","self","Self","Self",524,0.524,1
"1029",3,6,316,"Matching","self","Self","Self",374,0.374,1
"1030",3,6,317,"Nonmatching","mother","Mother","Close",490,0.49,1
"1031",3,6,318,"Nonmatching","self","Self","Self",487,0.487,1
"1032",3,6,319,"Nonmatching","self","Self","Self",760,0.76,1
"1033",3,6,320,"Nonmatching","stranger","Stranger","Stranger",609,0.609,1
"1034",3,6,321,"Nonmatching","mother","Mother","Close",555,0.555,0
"1035",3,6,322,"Nonmatching","self","Self","Self",636,0.636,1
"1036",3,6,323,"Nonmatching","stranger","Stranger","Stranger",492,0.492,1
"1037",3,6,324,"Nonmatching","self","Self","Self",559,0.559,1
"1038",3,6,325,"Nonmatching","stranger","Stranger","Stranger",775,0.775,1
"1039",3,6,326,"Matching","stranger","Stranger","Stranger",707,0.707,1
"1040",3,6,327,"Matching","stranger","Stranger","Stranger",616,0.616,1
"1041",3,6,328,"Matching","stranger","Stranger","Stranger",619,0.619,0
"1042",3,6,329,"Nonmatching","mother","Mother","Close",506,0.506,1
"1043",3,6,330,"Matching","mother","Mother","Close",548,0.548,1
"1044",3,6,331,"Matching","stranger","Stranger","Stranger",824,0.824,1
"1045",3,6,332,"Nonmatching","stranger","Stranger","Stranger",504,0.504,1
"1046",3,6,333,"Matching","stranger","Stranger","Stranger",1049,1.049,0
"1047",3,6,334,"Nonmatching","stranger","Stranger","Stranger",531,0.531,1
"1048",3,6,335,"Nonmatching","mother","Mother","Close",498,0.498,1
"1049",3,6,336,"Nonmatching","self","Self","Self",506,0.506,1
"1050",3,6,337,"Nonmatching","self","Self","Self",752,0.752,1
"1051",3,6,338,"Matching","mother","Mother","Close",582,0.582,1
"1052",3,6,339,"Matching","self","Self","Self",635,0.635,0
"1053",3,6,340,"Nonmatching","stranger","Stranger","Stranger",535,0.535,1
"1054",3,6,341,"Matching","stranger","Stranger","Stranger",699,0.699,0
"1055",3,6,342,"Nonmatching","stranger","Stranger","Stranger",571,0.571,1
"1056",3,6,343,"Nonmatching","mother","Mother","Close",780,0.78,1
"1057",3,6,344,"Matching","mother","Mother","Close",582,0.582,1
"1058",3,6,345,"Matching","mother","Mother","Close",508,0.508,1
"1059",3,6,346,"Matching","self","Self","Self",342,0.342,1
"1060",3,6,347,"Nonmatching","mother","Mother","Close",588,0.588,1
"1061",3,6,348,"Matching","mother","Mother","Close",565,0.565,1
"1062",3,6,349,"Nonmatching","mother","Mother","Close",655,0.655,1
"1063",3,6,350,"Matching","mother","Mother","Close",823,0.823,1
"1064",3,6,351,"Matching","stranger","Stranger","Stranger",460,0.46,1
"1065",3,6,352,"Matching","self","Self","Self",896,0.896,0
"1066",3,6,353,"Nonmatching","self","Self","Self",563,0.563,1
"1067",3,6,354,"Matching","mother","Mother","Close",605,0.605,0
"1068",3,6,355,"Nonmatching","stranger","Stranger","Stranger",715,0.715,1
"1069",3,6,356,"Matching","self","Self","Self",500,0.5,1
"1070",3,6,357,"Matching","self","Self","Self",618,0.618,1
"1071",3,6,358,"Matching","mother","Mother","Close",462,0.462,1
"1072",3,6,359,"Matching","mother","Mother","Close",599,0.599,0
"1073",3,6,360,"Matching","stranger","Stranger","Stranger",691,0.691,1
"1074",4,1,1,"Matching","mother","Mother","Close",971,0.971,0
"1075",4,1,3,"Nonmatching","self","Self","Self",1158,1.158,1
"1076",4,1,4,"Nonmatching","self","Self","Self",824,0.824,1
"1077",4,1,5,"Nonmatching","self","Self","Self",627,0.627,1
"1078",4,1,6,"Matching","stranger","Stranger","Stranger",929,0.929,1
"1079",4,1,7,"Nonmatching","self","Self","Self",827,0.827,1
"1080",4,1,8,"Nonmatching","stranger","Stranger","Stranger",869,0.869,1
"1081",4,1,9,"Nonmatching","mother","Mother","Close",789,0.789,1
"1082",4,1,10,"Matching","stranger","Stranger","Stranger",708,0.708,1
"1083",4,1,11,"Nonmatching","mother","Mother","Close",1088,1.088,1
"1084",4,1,12,"Nonmatching","mother","Mother","Close",712,0.712,1
"1085",4,1,13,"Matching","stranger","Stranger","Stranger",632,0.632,1
"1086",4,1,14,"Matching","self","Self","Self",473,0.473,1
"1087",4,1,15,"Nonmatching","stranger","Stranger","Stranger",833,0.833,1
"1088",4,1,16,"Matching","self","Self","Self",513,0.513,1
"1089",4,1,17,"Matching","mother","Mother","Close",867,0.867,1
"1090",4,1,18,"Nonmatching","self","Self","Self",751,0.751,1
"1091",4,1,20,"Matching","self","Self","Self",672,0.672,1
"1092",4,1,21,"Matching","stranger","Stranger","Stranger",1008,1.008,1
"1093",4,1,22,"Matching","mother","Mother","Close",896,0.896,1
"1094",4,1,23,"Matching","self","Self","Self",464,0.464,1
"1095",4,1,24,"Nonmatching","stranger","Stranger","Stranger",525,0.525,0
"1096",4,1,25,"Nonmatching","self","Self","Self",931,0.931,1
"1097",4,1,27,"Matching","self","Self","Self",703,0.703,1
"1098",4,1,28,"Nonmatching","mother","Mother","Close",673,0.673,1
"1099",4,1,29,"Matching","self","Self","Self",473,0.473,1
"1100",4,1,30,"Matching","stranger","Stranger","Stranger",926,0.926,1
"1101",4,1,31,"Matching","stranger","Stranger","Stranger",510,0.51,1
"1102",4,1,32,"Matching","mother","Mother","Close",750,0.75,1
"1103",4,1,33,"Nonmatching","self","Self","Self",540,0.54,1
"1104",4,1,34,"Nonmatching","self","Self","Self",654,0.654,1
"1105",4,1,35,"Nonmatching","stranger","Stranger","Stranger",862,0.862,1
"1106",4,1,36,"Matching","mother","Mother","Close",657,0.657,1
"1107",4,1,37,"Matching","self","Self","Self",563,0.563,1
"1108",4,1,38,"Nonmatching","mother","Mother","Close",861,0.861,1
"1109",4,1,39,"Nonmatching","mother","Mother","Close",609,0.609,1
"1110",4,1,40,"Matching","mother","Mother","Close",655,0.655,1
"1111",4,1,41,"Matching","mother","Mother","Close",852,0.852,1
"1112",4,1,42,"Nonmatching","stranger","Stranger","Stranger",628,0.628,0
"1113",4,1,43,"Nonmatching","stranger","Stranger","Stranger",628,0.628,1
"1114",4,1,45,"Matching","self","Self","Self",552,0.552,1
"1115",4,1,46,"Matching","self","Self","Self",717,0.717,1
"1116",4,1,47,"Matching","stranger","Stranger","Stranger",783,0.783,1
"1117",4,1,48,"Nonmatching","stranger","Stranger","Stranger",624,0.624,1
"1118",4,1,49,"Nonmatching","mother","Mother","Close",948,0.948,0
"1119",4,1,50,"Matching","mother","Mother","Close",658,0.658,1
"1120",4,1,51,"Nonmatching","stranger","Stranger","Stranger",1213,1.213,1
"1121",4,1,52,"Nonmatching","mother","Mother","Close",1013,1.013,1
"1122",4,1,53,"Matching","stranger","Stranger","Stranger",555,0.555,0
"1123",4,1,54,"Matching","self","Self","Self",533,0.533,1
"1124",4,1,55,"Nonmatching","stranger","Stranger","Stranger",983,0.983,1
"1125",4,1,56,"Matching","mother","Mother","Close",628,0.628,1
"1126",4,1,57,"Matching","mother","Mother","Close",1066,1.066,1
"1127",4,1,58,"Nonmatching","mother","Mother","Close",578,0.578,1
"1128",4,1,60,"Matching","stranger","Stranger","Stranger",582,0.582,1
"1129",4,2,61,"Nonmatching","stranger","Stranger","Stranger",709,0.709,1
"1130",4,2,62,"Matching","self","Self","Self",437,0.437,1
"1131",4,2,63,"Matching","self","Self","Self",559,0.559,1
"1132",4,2,64,"Nonmatching","stranger","Stranger","Stranger",824,0.824,1
"1133",4,2,65,"Nonmatching","stranger","Stranger","Stranger",832,0.832,1
"1134",4,2,66,"Matching","mother","Mother","Close",646,0.646,1
"1135",4,2,67,"Nonmatching","self","Self","Self",658,0.658,1
"1136",4,2,68,"Matching","stranger","Stranger","Stranger",794,0.794,1
"1137",4,2,69,"Matching","self","Self","Self",450,0.45,1
"1138",4,2,70,"Matching","self","Self","Self",477,0.477,1
"1139",4,2,71,"Matching","stranger","Stranger","Stranger",837,0.837,1
"1140",4,2,72,"Matching","stranger","Stranger","Stranger",515,0.515,1
"1141",4,2,73,"Nonmatching","mother","Mother","Close",577,0.577,1
"1142",4,2,75,"Nonmatching","self","Self","Self",514,0.514,1
"1143",4,2,76,"Nonmatching","mother","Mother","Close",840,0.84,1
"1144",4,2,77,"Matching","mother","Mother","Close",520,0.52,1
"1145",4,2,78,"Nonmatching","stranger","Stranger","Stranger",719,0.719,1
"1146",4,2,79,"Nonmatching","mother","Mother","Close",853,0.853,1
"1147",4,2,80,"Nonmatching","stranger","Stranger","Stranger",675,0.675,1
"1148",4,2,81,"Nonmatching","self","Self","Self",625,0.625,1
"1149",4,2,82,"Matching","self","Self","Self",663,0.663,1
"1150",4,2,83,"Nonmatching","self","Self","Self",952,0.952,1
"1151",4,2,84,"Matching","mother","Mother","Close",730,0.73,1
"1152",4,2,85,"Matching","stranger","Stranger","Stranger",650,0.65,1
"1153",4,2,86,"Nonmatching","mother","Mother","Close",554,0.554,1
"1154",4,2,87,"Matching","self","Self","Self",507,0.507,1
"1155",4,2,88,"Nonmatching","self","Self","Self",1009,1.009,1
"1156",4,2,90,"Matching","stranger","Stranger","Stranger",544,0.544,1
"1157",4,2,91,"Matching","mother","Mother","Close",696,0.696,1
"1158",4,2,92,"Nonmatching","mother","Mother","Close",649,0.649,1
"1159",4,2,93,"Matching","self","Self","Self",443,0.443,1
"1160",4,2,94,"Matching","stranger","Stranger","Stranger",855,0.855,1
"1161",4,2,95,"Nonmatching","mother","Mother","Close",615,0.615,1
"1162",4,2,96,"Nonmatching","stranger","Stranger","Stranger",883,0.883,1
"1163",4,2,97,"Matching","stranger","Stranger","Stranger",668,0.668,1
"1164",4,2,98,"Matching","stranger","Stranger","Stranger",666,0.666,1
"1165",4,2,99,"Nonmatching","mother","Mother","Close",758,0.758,1
"1166",4,2,100,"Nonmatching","mother","Mother","Close",663,0.663,1
"1167",4,2,101,"Matching","mother","Mother","Close",645,0.645,1
"1168",4,2,102,"Nonmatching","self","Self","Self",527,0.527,1
"1169",4,2,103,"Matching","mother","Mother","Close",679,0.679,1
"1170",4,2,104,"Matching","self","Self","Self",549,0.549,1
"1171",4,2,105,"Nonmatching","self","Self","Self",581,0.581,1
"1172",4,2,106,"Nonmatching","stranger","Stranger","Stranger",726,0.726,1
"1173",4,2,107,"Nonmatching","self","Self","Self",630,0.63,1
"1174",4,2,108,"Nonmatching","self","Self","Self",644,0.644,1
"1175",4,2,109,"Matching","mother","Mother","Close",744,0.744,1
"1176",4,2,110,"Matching","self","Self","Self",512,0.512,1
"1177",4,2,111,"Matching","stranger","Stranger","Stranger",527,0.527,1
"1178",4,2,112,"Nonmatching","stranger","Stranger","Stranger",623,0.623,1
"1179",4,2,113,"Matching","mother","Mother","Close",671,0.671,1
"1180",4,2,114,"Nonmatching","mother","Mother","Close",574,0.574,1
"1181",4,2,115,"Nonmatching","stranger","Stranger","Stranger",978,0.978,1
"1182",4,2,116,"Nonmatching","mother","Mother","Close",584,0.584,1
"1183",4,2,117,"Matching","mother","Mother","Close",812,0.812,1
"1184",4,2,118,"Nonmatching","self","Self","Self",584,0.584,1
"1185",4,2,119,"Matching","mother","Mother","Close",925,0.925,1
"1186",4,2,120,"Nonmatching","stranger","Stranger","Stranger",733,0.733,1
"1187",4,3,121,"Matching","mother","Mother","Close",617,0.617,1
"1188",4,3,122,"Nonmatching","stranger","Stranger","Stranger",701,0.701,1
"1189",4,3,123,"Nonmatching","self","Self","Self",615,0.615,1
"1190",4,3,124,"Matching","self","Self","Self",465,0.465,1
"1191",4,3,125,"Nonmatching","mother","Mother","Close",812,0.812,1
"1192",4,3,126,"Nonmatching","stranger","Stranger","Stranger",660,0.66,1
"1193",4,3,127,"Nonmatching","mother","Mother","Close",778,0.778,1
"1194",4,3,128,"Matching","self","Self","Self",488,0.488,1
"1195",4,3,129,"Matching","mother","Mother","Close",702,0.702,1
"1196",4,3,130,"Nonmatching","mother","Mother","Close",511,0.511,1
"1197",4,3,131,"Nonmatching","mother","Mother","Close",678,0.678,1
"1198",4,3,132,"Matching","stranger","Stranger","Stranger",710,0.71,1
"1199",4,3,133,"Matching","stranger","Stranger","Stranger",680,0.68,1
"1200",4,3,134,"Matching","stranger","Stranger","Stranger",530,0.53,1
"1201",4,3,135,"Matching","self","Self","Self",390,0.39,1
"1202",4,3,136,"Nonmatching","stranger","Stranger","Stranger",546,0.546,1
"1203",4,3,137,"Nonmatching","stranger","Stranger","Stranger",697,0.697,1
"1204",4,3,138,"Matching","self","Self","Self",445,0.445,1
"1205",4,3,139,"Matching","self","Self","Self",407,0.407,1
"1206",4,3,140,"Matching","stranger","Stranger","Stranger",689,0.689,1
"1207",4,3,141,"Matching","mother","Mother","Close",716,0.716,1
"1208",4,3,142,"Nonmatching","mother","Mother","Close",618,0.618,1
"1209",4,3,143,"Nonmatching","stranger","Stranger","Stranger",746,0.746,1
"1210",4,3,144,"Nonmatching","self","Self","Self",640,0.64,1
"1211",4,3,145,"Matching","stranger","Stranger","Stranger",640,0.64,0
"1212",4,3,146,"Matching","stranger","Stranger","Stranger",785,0.785,1
"1213",4,3,147,"Matching","mother","Mother","Close",701,0.701,1
"1214",4,3,148,"Nonmatching","stranger","Stranger","Stranger",1003,1.003,1
"1215",4,3,149,"Matching","stranger","Stranger","Stranger",611,0.611,1
"1216",4,3,150,"Nonmatching","stranger","Stranger","Stranger",675,0.675,1
"1217",4,3,151,"Nonmatching","stranger","Stranger","Stranger",560,0.56,0
"1218",4,3,152,"Matching","mother","Mother","Close",466,0.466,1
"1219",4,3,153,"Matching","self","Self","Self",484,0.484,1
"1220",4,3,154,"Nonmatching","mother","Mother","Close",666,0.666,1
"1221",4,3,155,"Matching","mother","Mother","Close",742,0.742,1
"1222",4,3,156,"Nonmatching","self","Self","Self",705,0.705,1
"1223",4,3,157,"Nonmatching","mother","Mother","Close",1277,1.277,1
"1224",4,3,158,"Matching","stranger","Stranger","Stranger",689,0.689,1
"1225",4,3,159,"Nonmatching","mother","Mother","Close",671,0.671,1
"1226",4,3,160,"Matching","mother","Mother","Close",610,0.61,1
"1227",4,3,161,"Matching","self","Self","Self",554,0.554,1
"1228",4,3,162,"Nonmatching","stranger","Stranger","Stranger",954,0.954,1
"1229",4,3,163,"Matching","self","Self","Self",462,0.462,1
"1230",4,3,164,"Matching","mother","Mother","Close",557,0.557,1
"1231",4,3,165,"Matching","self","Self","Self",419,0.419,1
"1232",4,3,166,"Nonmatching","mother","Mother","Close",693,0.693,1
"1233",4,3,167,"Nonmatching","self","Self","Self",717,0.717,1
"1234",4,3,168,"Nonmatching","self","Self","Self",711,0.711,1
"1235",4,3,169,"Nonmatching","self","Self","Self",680,0.68,1
"1236",4,3,170,"Matching","mother","Mother","Close",646,0.646,1
"1237",4,3,171,"Nonmatching","self","Self","Self",526,0.526,1
"1238",4,3,172,"Nonmatching","self","Self","Self",588,0.588,1
"1239",4,3,173,"Nonmatching","self","Self","Self",653,0.653,1
"1240",4,3,174,"Nonmatching","self","Self","Self",557,0.557,1
"1241",4,3,175,"Matching","stranger","Stranger","Stranger",779,0.779,0
"1242",4,3,176,"Matching","self","Self","Self",679,0.679,1
"1243",4,3,177,"Nonmatching","stranger","Stranger","Stranger",554,0.554,1
"1244",4,3,178,"Matching","mother","Mother","Close",595,0.595,1
"1245",4,3,179,"Nonmatching","mother","Mother","Close",845,0.845,0
"1246",4,3,180,"Matching","stranger","Stranger","Stranger",543,0.543,0
"1247",4,4,181,"Matching","stranger","Stranger","Stranger",757,0.757,1
"1248",4,4,182,"Nonmatching","mother","Mother","Close",665,0.665,1
"1249",4,4,183,"Nonmatching","stranger","Stranger","Stranger",735,0.735,1
"1250",4,4,184,"Nonmatching","mother","Mother","Close",884,0.884,1
"1251",4,4,185,"Matching","self","Self","Self",366,0.366,1
"1252",4,4,186,"Matching","mother","Mother","Close",732,0.732,1
"1253",4,4,187,"Matching","self","Self","Self",990,0.99,1
"1254",4,4,188,"Nonmatching","mother","Mother","Close",630,0.63,1
"1255",4,4,189,"Nonmatching","stranger","Stranger","Stranger",689,0.689,1
"1256",4,4,190,"Nonmatching","mother","Mother","Close",569,0.569,1
"1257",4,4,191,"Nonmatching","stranger","Stranger","Stranger",675,0.675,1
"1258",4,4,192,"Matching","mother","Mother","Close",711,0.711,1
"1259",4,4,193,"Matching","self","Self","Self",399,0.399,1
"1260",4,4,194,"Nonmatching","stranger","Stranger","Stranger",669,0.669,1
"1261",4,4,195,"Nonmatching","self","Self","Self",542,0.542,1
"1262",4,4,196,"Nonmatching","self","Self","Self",482,0.482,1
"1263",4,4,197,"Matching","stranger","Stranger","Stranger",620,0.62,1
"1264",4,4,198,"Matching","stranger","Stranger","Stranger",610,0.61,1
"1265",4,4,199,"Matching","stranger","Stranger","Stranger",532,0.532,1
"1266",4,4,200,"Nonmatching","self","Self","Self",706,0.706,1
"1267",4,4,201,"Nonmatching","stranger","Stranger","Stranger",965,0.965,1
"1268",4,4,202,"Nonmatching","mother","Mother","Close",633,0.633,1
"1269",4,4,203,"Matching","stranger","Stranger","Stranger",593,0.593,1
"1270",4,4,204,"Matching","stranger","Stranger","Stranger",493,0.493,1
"1271",4,4,205,"Matching","mother","Mother","Close",670,0.67,1
"1272",4,4,206,"Matching","mother","Mother","Close",572,0.572,1
"1273",4,4,207,"Nonmatching","stranger","Stranger","Stranger",616,0.616,1
"1274",4,4,208,"Nonmatching","self","Self","Self",986,0.986,1
"1275",4,4,209,"Matching","self","Self","Self",568,0.568,1
"1276",4,4,210,"Matching","mother","Mother","Close",781,0.781,1
"1277",4,4,211,"Matching","mother","Mother","Close",591,0.591,1
"1278",4,4,212,"Nonmatching","mother","Mother","Close",637,0.637,1
"1279",4,4,213,"Matching","self","Self","Self",511,0.511,1
"1280",4,4,214,"Matching","stranger","Stranger","Stranger",636,0.636,1
"1281",4,4,215,"Nonmatching","mother","Mother","Close",546,0.546,1
"1282",4,4,216,"Matching","self","Self","Self",553,0.553,1
"1283",4,4,217,"Nonmatching","stranger","Stranger","Stranger",617,0.617,1
"1284",4,4,218,"Matching","self","Self","Self",536,0.536,1
"1285",4,4,219,"Nonmatching","self","Self","Self",698,0.698,1
"1286",4,4,220,"Nonmatching","stranger","Stranger","Stranger",720,0.72,1
"1287",4,4,221,"Matching","mother","Mother","Close",804,0.804,1
"1288",4,4,222,"Matching","stranger","Stranger","Stranger",1110,1.11,1
"1289",4,4,223,"Matching","self","Self","Self",398,0.398,1
"1290",4,4,224,"Nonmatching","self","Self","Self",485,0.485,1
"1291",4,4,225,"Nonmatching","self","Self","Self",633,0.633,1
"1292",4,4,226,"Nonmatching","stranger","Stranger","Stranger",725,0.725,1
"1293",4,4,227,"Nonmatching","self","Self","Self",639,0.639,1
"1294",4,4,228,"Nonmatching","self","Self","Self",663,0.663,1
"1295",4,4,229,"Matching","stranger","Stranger","Stranger",611,0.611,1
"1296",4,4,230,"Matching","self","Self","Self",446,0.446,1
"1297",4,4,231,"Matching","self","Self","Self",410,0.41,1
"1298",4,4,232,"Nonmatching","stranger","Stranger","Stranger",570,0.57,1
"1299",4,4,233,"Nonmatching","mother","Mother","Close",482,0.482,1
"1300",4,4,234,"Matching","stranger","Stranger","Stranger",650,0.65,1
"1301",4,4,235,"Nonmatching","mother","Mother","Close",581,0.581,1
"1302",4,4,236,"Nonmatching","self","Self","Self",529,0.529,1
"1303",4,4,237,"Matching","mother","Mother","Close",655,0.655,1
"1304",4,4,238,"Matching","mother","Mother","Close",629,0.629,1
"1305",4,4,239,"Nonmatching","mother","Mother","Close",588,0.588,1
"1306",4,4,240,"Matching","mother","Mother","Close",672,0.672,1
"1307",4,5,241,"Nonmatching","stranger","Stranger","Stranger",616,0.616,1
"1308",4,5,242,"Nonmatching","stranger","Stranger","Stranger",648,0.648,1
"1309",4,5,243,"Nonmatching","stranger","Stranger","Stranger",687,0.687,1
"1310",4,5,244,"Matching","mother","Mother","Close",645,0.645,1
"1311",4,5,245,"Matching","mother","Mother","Close",687,0.687,1
"1312",4,5,246,"Matching","stranger","Stranger","Stranger",625,0.625,1
"1313",4,5,247,"Nonmatching","mother","Mother","Close",419,0.419,0
"1314",4,5,248,"Matching","self","Self","Self",808,0.808,1
"1315",4,5,249,"Nonmatching","mother","Mother","Close",770,0.77,1
"1316",4,5,250,"Matching","mother","Mother","Close",600,0.6,1
"1317",4,5,251,"Nonmatching","stranger","Stranger","Stranger",952,0.952,1
"1318",4,5,252,"Nonmatching","self","Self","Self",516,0.516,1
"1319",4,5,253,"Matching","mother","Mother","Close",755,0.755,1
"1320",4,5,254,"Matching","self","Self","Self",621,0.621,1
"1321",4,5,255,"Matching","stranger","Stranger","Stranger",924,0.924,1
"1322",4,5,256,"Nonmatching","mother","Mother","Close",524,0.524,1
"1323",4,5,257,"Matching","mother","Mother","Close",718,0.718,1
"1324",4,5,258,"Matching","self","Self","Self",410,0.41,1
"1325",4,5,259,"Nonmatching","stranger","Stranger","Stranger",1103,1.103,1
"1326",4,5,260,"Nonmatching","self","Self","Self",545,0.545,1
"1327",4,5,261,"Nonmatching","stranger","Stranger","Stranger",571,0.571,1
"1328",4,5,262,"Matching","stranger","Stranger","Stranger",831,0.831,1
"1329",4,5,263,"Nonmatching","self","Self","Self",609,0.609,1
"1330",4,5,264,"Nonmatching","mother","Mother","Close",947,0.947,1
"1331",4,5,265,"Matching","self","Self","Self",460,0.46,1
"1332",4,5,266,"Matching","self","Self","Self",416,0.416,1
"1333",4,5,267,"Matching","mother","Mother","Close",1166,1.166,1
"1334",4,5,268,"Matching","self","Self","Self",368,0.368,1
"1335",4,5,269,"Nonmatching","self","Self","Self",556,0.556,1
"1336",4,5,270,"Matching","stranger","Stranger","Stranger",615,0.615,1
"1337",4,5,271,"Matching","mother","Mother","Close",553,0.553,1
"1338",4,5,272,"Nonmatching","mother","Mother","Close",695,0.695,1
"1339",4,5,273,"Matching","self","Self","Self",391,0.391,1
"1340",4,5,274,"Matching","self","Self","Self",404,0.404,1
"1341",4,5,275,"Nonmatching","self","Self","Self",484,0.484,1
"1342",4,5,276,"Nonmatching","stranger","Stranger","Stranger",632,0.632,1
"1343",4,5,277,"Matching","stranger","Stranger","Stranger",692,0.692,1
"1344",4,5,278,"Matching","stranger","Stranger","Stranger",489,0.489,1
"1345",4,5,279,"Nonmatching","stranger","Stranger","Stranger",773,0.773,1
"1346",4,5,280,"Nonmatching","mother","Mother","Close",963,0.963,1
"1347",4,5,281,"Matching","mother","Mother","Close",667,0.667,1
"1348",4,5,282,"Nonmatching","mother","Mother","Close",1066,1.066,1
"1349",4,5,283,"Matching","stranger","Stranger","Stranger",772,0.772,1
"1350",4,5,284,"Nonmatching","mother","Mother","Close",914,0.914,1
"1351",4,5,285,"Nonmatching","stranger","Stranger","Stranger",630,0.63,1
"1352",4,5,286,"Matching","stranger","Stranger","Stranger",650,0.65,1
"1353",4,5,287,"Nonmatching","self","Self","Self",549,0.549,1
"1354",4,5,288,"Matching","stranger","Stranger","Stranger",693,0.693,1
"1355",4,5,289,"Nonmatching","mother","Mother","Close",677,0.677,1
"1356",4,5,290,"Matching","self","Self","Self",381,0.381,1
"1357",4,5,291,"Matching","mother","Mother","Close",619,0.619,1
"1358",4,5,292,"Nonmatching","mother","Mother","Close",508,0.508,1
"1359",4,5,293,"Nonmatching","stranger","Stranger","Stranger",598,0.598,1
"1360",4,5,294,"Matching","stranger","Stranger","Stranger",508,0.508,1
"1361",4,5,295,"Nonmatching","self","Self","Self",630,0.63,1
"1362",4,5,296,"Matching","self","Self","Self",496,0.496,1
"1363",4,5,297,"Nonmatching","self","Self","Self",575,0.575,1
"1364",4,5,298,"Nonmatching","self","Self","Self",841,0.841,1
"1365",4,5,299,"Matching","mother","Mother","Close",1084,1.084,1
"1366",4,5,300,"Nonmatching","self","Self","Self",786,0.786,1
"1367",4,6,301,"Nonmatching","self","Self","Self",586,0.586,1
"1368",4,6,302,"Nonmatching","mother","Mother","Close",990,0.99,1
"1369",4,6,303,"Nonmatching","self","Self","Self",472,0.472,1
"1370",4,6,304,"Nonmatching","stranger","Stranger","Stranger",564,0.564,1
"1371",4,6,305,"Nonmatching","mother","Mother","Close",597,0.597,1
"1372",4,6,306,"Nonmatching","stranger","Stranger","Stranger",657,0.657,1
"1373",4,6,307,"Nonmatching","mother","Mother","Close",459,0.459,1
"1374",4,6,308,"Nonmatching","self","Self","Self",563,0.563,1
"1375",4,6,309,"Matching","mother","Mother","Close",543,0.543,0
"1376",4,6,310,"Matching","mother","Mother","Close",552,0.552,1
"1377",4,6,311,"Nonmatching","stranger","Stranger","Stranger",648,0.648,1
"1378",4,6,312,"Nonmatching","stranger","Stranger","Stranger",516,0.516,1
"1379",4,6,313,"Matching","mother","Mother","Close",626,0.626,1
"1380",4,6,314,"Matching","self","Self","Self",552,0.552,1
"1381",4,6,315,"Matching","mother","Mother","Close",622,0.622,1
"1382",4,6,316,"Matching","stranger","Stranger","Stranger",705,0.705,0
"1383",4,6,317,"Matching","mother","Mother","Close",517,0.517,1
"1384",4,6,318,"Matching","stranger","Stranger","Stranger",527,0.527,1
"1385",4,6,319,"Nonmatching","stranger","Stranger","Stranger",663,0.663,1
"1386",4,6,320,"Nonmatching","stranger","Stranger","Stranger",763,0.763,1
"1387",4,6,321,"Matching","self","Self","Self",428,0.428,1
"1388",4,6,322,"Nonmatching","self","Self","Self",894,0.894,1
"1389",4,6,323,"Matching","stranger","Stranger","Stranger",632,0.632,1
"1390",4,6,324,"Matching","mother","Mother","Close",548,0.548,1
"1391",4,6,325,"Matching","stranger","Stranger","Stranger",487,0.487,0
"1392",4,6,326,"Nonmatching","self","Self","Self",677,0.677,1
"1393",4,6,327,"Matching","stranger","Stranger","Stranger",565,0.565,1
"1394",4,6,328,"Matching","self","Self","Self",595,0.595,1
"1395",4,6,329,"Nonmatching","mother","Mother","Close",639,0.639,1
"1396",4,6,330,"Matching","self","Self","Self",585,0.585,1
"1397",4,6,331,"Nonmatching","self","Self","Self",758,0.758,1
"1398",4,6,332,"Nonmatching","mother","Mother","Close",840,0.84,1
"1399",4,6,333,"Matching","self","Self","Self",594,0.594,1
"1400",4,6,334,"Nonmatching","stranger","Stranger","Stranger",1100,1.1,1
"1401",4,6,335,"Nonmatching","mother","Mother","Close",1058,1.058,1
"1402",4,6,336,"Matching","stranger","Stranger","Stranger",558,0.558,1
"1403",4,6,337,"Matching","self","Self","Self",560,0.56,1
"1404",4,6,338,"Matching","self","Self","Self",514,0.514,1
"1405",4,6,339,"Nonmatching","stranger","Stranger","Stranger",750,0.75,1
"1406",4,6,340,"Matching","stranger","Stranger","Stranger",538,0.538,1
"1407",4,6,341,"Nonmatching","self","Self","Self",830,0.83,1
"1408",4,6,342,"Matching","mother","Mother","Close",672,0.672,1
"1409",4,6,343,"Nonmatching","stranger","Stranger","Stranger",604,0.604,1
"1410",4,6,344,"Matching","self","Self","Self",483,0.483,1
"1411",4,6,345,"Nonmatching","self","Self","Self",659,0.659,1
"1412",4,6,347,"Matching","stranger","Stranger","Stranger",605,0.605,1
"1413",4,6,348,"Matching","mother","Mother","Close",447,0.447,1
"1414",4,6,349,"Matching","stranger","Stranger","Stranger",658,0.658,1
"1415",4,6,350,"Matching","self","Self","Self",702,0.702,1
"1416",4,6,351,"Nonmatching","stranger","Stranger","Stranger",722,0.722,1
"1417",4,6,352,"Nonmatching","mother","Mother","Close",726,0.726,1
"1418",4,6,353,"Matching","mother","Mother","Close",553,0.553,1
"1419",4,6,354,"Nonmatching","self","Self","Self",691,0.691,1
"1420",4,6,355,"Nonmatching","mother","Mother","Close",657,0.657,1
"1421",4,6,356,"Nonmatching","mother","Mother","Close",569,0.569,1
"1422",4,6,357,"Matching","stranger","Stranger","Stranger",626,0.626,1
"1423",4,6,358,"Nonmatching","mother","Mother","Close",796,0.796,1
"1424",4,6,359,"Matching","mother","Mother","Close",734,0.734,1
"1425",4,6,360,"Nonmatching","self","Self","Self",684,0.684,1
"1426",5,1,1,"Matching","mother","Mother","Close",981,0.981,1
"1427",5,1,2,"Matching","self","Self","Self",499,0.499,1
"1428",5,1,3,"Matching","self","Self","Self",533,0.533,1
"1429",5,1,4,"Nonmatching","self","Self","Self",766,0.766,1
"1430",5,1,5,"Nonmatching","mother","Mother","Close",722,0.722,1
"1431",5,1,7,"Nonmatching","mother","Mother","Close",787,0.787,1
"1432",5,1,8,"Matching","self","Self","Self",581,0.581,1
"1433",5,1,9,"Nonmatching","self","Self","Self",531,0.531,1
"1434",5,1,10,"Nonmatching","self","Self","Self",687,0.687,1
"1435",5,1,11,"Matching","stranger","Stranger","Stranger",910,0.91,1
"1436",5,1,12,"Nonmatching","stranger","Stranger","Stranger",658,0.658,1
"1437",5,1,13,"Nonmatching","self","Self","Self",592,0.592,1
"1438",5,1,14,"Matching","stranger","Stranger","Stranger",1048,1.048,1
"1439",5,1,15,"Matching","stranger","Stranger","Stranger",858,0.858,1
"1440",5,1,16,"Nonmatching","mother","Mother","Close",674,0.674,1
"1441",5,1,17,"Matching","self","Self","Self",732,0.732,1
"1442",5,1,18,"Nonmatching","stranger","Stranger","Stranger",642,0.642,1
"1443",5,1,19,"Nonmatching","self","Self","Self",599,0.599,1
"1444",5,1,20,"Nonmatching","stranger","Stranger","Stranger",729,0.729,1
"1445",5,1,21,"Matching","mother","Mother","Close",648,0.648,1
"1446",5,1,22,"Nonmatching","mother","Mother","Close",552,0.552,1
"1447",5,1,23,"Matching","stranger","Stranger","Stranger",840,0.84,1
"1448",5,1,24,"Matching","self","Self","Self",736,0.736,1
"1449",5,1,25,"Nonmatching","mother","Mother","Close",815,0.815,1
"1450",5,1,26,"Nonmatching","self","Self","Self",557,0.557,1
"1451",5,1,27,"Nonmatching","mother","Mother","Close",697,0.697,1
"1452",5,1,28,"Matching","stranger","Stranger","Stranger",509,0.509,1
"1453",5,1,29,"Matching","mother","Mother","Close",1033,1.033,1
"1454",5,1,30,"Nonmatching","stranger","Stranger","Stranger",501,0.501,1
"1455",5,1,31,"Nonmatching","mother","Mother","Close",946,0.946,1
"1456",5,1,32,"Matching","mother","Mother","Close",916,0.916,1
"1457",5,1,33,"Matching","mother","Mother","Close",562,0.562,1
"1458",5,1,34,"Nonmatching","stranger","Stranger","Stranger",746,0.746,1
"1459",5,1,35,"Nonmatching","stranger","Stranger","Stranger",724,0.724,1
"1460",5,1,36,"Nonmatching","mother","Mother","Close",700,0.7,1
"1461",5,1,37,"Matching","stranger","Stranger","Stranger",1006,1.006,1
"1462",5,1,38,"Nonmatching","self","Self","Self",1011,1.011,1
"1463",5,1,39,"Matching","mother","Mother","Close",825,0.825,0
"1464",5,1,40,"Matching","mother","Mother","Close",539,0.539,1
"1465",5,1,41,"Matching","self","Self","Self",535,0.535,1
"1466",5,1,42,"Matching","self","Self","Self",527,0.527,1
"1467",5,1,43,"Matching","self","Self","Self",572,0.572,1
"1468",5,1,44,"Matching","self","Self","Self",546,0.546,1
"1469",5,1,45,"Nonmatching","self","Self","Self",718,0.718,0
"1470",5,1,46,"Nonmatching","self","Self","Self",518,0.518,1
"1471",5,1,47,"Matching","stranger","Stranger","Stranger",936,0.936,1
"1472",5,1,48,"Nonmatching","mother","Mother","Close",1007,1.007,1
"1473",5,1,49,"Matching","mother","Mother","Close",814,0.814,1
"1474",5,1,50,"Nonmatching","mother","Mother","Close",628,0.628,1
"1475",5,1,51,"Nonmatching","stranger","Stranger","Stranger",850,0.85,1
"1476",5,1,52,"Matching","mother","Mother","Close",792,0.792,1
"1477",5,1,53,"Matching","self","Self","Self",731,0.731,1
"1478",5,1,54,"Nonmatching","self","Self","Self",788,0.788,1
"1479",5,1,55,"Matching","stranger","Stranger","Stranger",902,0.902,1
"1480",5,1,56,"Nonmatching","stranger","Stranger","Stranger",607,0.607,1
"1481",5,1,57,"Nonmatching","stranger","Stranger","Stranger",739,0.739,1
"1482",5,1,58,"Matching","mother","Mother","Close",631,0.631,1
"1483",5,1,59,"Matching","stranger","Stranger","Stranger",948,0.948,1
"1484",5,1,60,"Nonmatching","stranger","Stranger","Stranger",651,0.651,1
"1485",5,2,61,"Nonmatching","mother","Mother","Close",726,0.726,1
"1486",5,2,62,"Matching","mother","Mother","Close",758,0.758,1
"1487",5,2,63,"Nonmatching","mother","Mother","Close",1240,1.24,1
"1488",5,2,64,"Nonmatching","mother","Mother","Close",708,0.708,1
"1489",5,2,65,"Nonmatching","stranger","Stranger","Stranger",679,0.679,1
"1490",5,2,66,"Matching","mother","Mother","Close",685,0.685,1
"1491",5,2,67,"Matching","mother","Mother","Close",711,0.711,1
"1492",5,2,68,"Nonmatching","stranger","Stranger","Stranger",792,0.792,1
"1493",5,2,69,"Nonmatching","stranger","Stranger","Stranger",642,0.642,1
"1494",5,2,70,"Nonmatching","stranger","Stranger","Stranger",688,0.688,1
"1495",5,2,71,"Nonmatching","mother","Mother","Close",803,0.803,0
"1496",5,2,72,"Nonmatching","stranger","Stranger","Stranger",698,0.698,1
"1497",5,2,73,"Nonmatching","mother","Mother","Close",978,0.978,1
"1498",5,2,74,"Nonmatching","mother","Mother","Close",646,0.646,1
"1499",5,2,75,"Nonmatching","self","Self","Self",577,0.577,1
"1500",5,2,76,"Matching","mother","Mother","Close",655,0.655,1
"1501",5,2,77,"Matching","stranger","Stranger","Stranger",821,0.821,1
"1502",5,2,78,"Matching","stranger","Stranger","Stranger",682,0.682,1
"1503",5,2,79,"Matching","stranger","Stranger","Stranger",636,0.636,1
"1504",5,2,80,"Matching","stranger","Stranger","Stranger",690,0.69,1
"1505",5,2,81,"Matching","mother","Mother","Close",812,0.812,1
"1506",5,2,82,"Matching","self","Self","Self",627,0.627,1
"1507",5,2,83,"Matching","mother","Mother","Close",851,0.851,1
"1508",5,2,84,"Matching","self","Self","Self",575,0.575,1
"1509",5,2,85,"Nonmatching","stranger","Stranger","Stranger",787,0.787,1
"1510",5,2,86,"Nonmatching","self","Self","Self",640,0.64,1
"1511",5,2,87,"Matching","mother","Mother","Close",714,0.714,1
"1512",5,2,88,"Matching","self","Self","Self",598,0.598,1
"1513",5,2,89,"Nonmatching","stranger","Stranger","Stranger",742,0.742,1
"1514",5,2,90,"Nonmatching","self","Self","Self",603,0.603,1
"1515",5,2,91,"Nonmatching","self","Self","Self",1163,1.163,1
"1516",5,2,92,"Nonmatching","mother","Mother","Close",1047,1.047,1
"1517",5,2,93,"Matching","stranger","Stranger","Stranger",845,0.845,1
"1518",5,2,94,"Matching","self","Self","Self",560,0.56,1
"1519",5,2,95,"Matching","stranger","Stranger","Stranger",1216,1.216,1
"1520",5,2,96,"Matching","stranger","Stranger","Stranger",526,0.526,1
"1521",5,2,97,"Nonmatching","stranger","Stranger","Stranger",1098,1.098,1
"1522",5,2,98,"Nonmatching","self","Self","Self",575,0.575,1
"1523",5,2,99,"Matching","stranger","Stranger","Stranger",823,0.823,1
"1524",5,2,100,"Nonmatching","mother","Mother","Close",607,0.607,1
"1525",5,2,101,"Matching","self","Self","Self",932,0.932,1
"1526",5,2,102,"Nonmatching","mother","Mother","Close",777,0.777,1
"1527",5,2,103,"Matching","self","Self","Self",431,0.431,1
"1528",5,2,104,"Matching","self","Self","Self",517,0.517,1
"1529",5,2,105,"Nonmatching","stranger","Stranger","Stranger",609,0.609,1
"1530",5,2,106,"Matching","mother","Mother","Close",604,0.604,1
"1531",5,2,107,"Nonmatching","self","Self","Self",532,0.532,1
"1532",5,2,108,"Nonmatching","self","Self","Self",708,0.708,1
"1533",5,2,109,"Matching","self","Self","Self",787,0.787,0
"1534",5,2,110,"Nonmatching","self","Self","Self",515,0.515,1
"1535",5,2,111,"Matching","self","Self","Self",571,0.571,1
"1536",5,2,112,"Matching","self","Self","Self",531,0.531,1
