"Subject","Block","Trial","Matching","Origin_Identity","English_Identity","Standarlize_Identity","RT_ms","RT_sec","ACC"
1,1,1,"Nonmatching","stranger","Stranger","Stranger",661,0.661,1
1,1,2,"Matching","self","Self","Self",609,0.609,1
1,1,3,"Nonmatching","mother","Mother","Close",597,0.597,1
1,1,4,"Matching","self","Self","Self",565,0.565,1
1,1,5,"Nonmatching","self","Self","Self",709,0.709,1
1,1,6,"Matching","self","Self","Self",501,0.501,1
1,1,7,"Nonmatching","self","Self","Self",529,0.529,1
1,1,8,"Nonmatching","self","Self","Self",575,0.575,1
1,1,9,"Nonmatching","stranger","Stranger","Stranger",739,0.739,1
1,1,10,"Nonmatching","mother","Mother","Close",541,0.541,1
1,1,11,"Nonmatching","stranger","Stranger","Stranger",563,0.563,1
1,1,12,"Matching","stranger","Stranger","Stranger",1035,1.035,1
1,1,13,"Matching","mother","Mother","Close",702,0.702,1
1,1,14,"Matching","self","Self","Self",606,0.606,1
1,1,15,"Nonmatching","self","Self","Self",620,0.62,1
1,1,16,"Matching","mother","Mother","Close",672,0.672,1
1,1,17,"Matching","mother","Mother","Close",862,0.862,1
1,1,18,"Matching","mother","Mother","Close",568,0.568,1
1,1,19,"Nonmatching","stranger","Stranger","Stranger",638,0.638,1
1,1,21,"Matching","mother","Mother","Close",794,0.794,1
1,1,22,"Matching","self","Self","Self",484,0.484,1
1,1,23,"Matching","self","Self","Self",492,0.492,1
1,1,24,"Matching","mother","Mother","Close",658,0.658,1
1,1,25,"Nonmatching","mother","Mother","Close",576,0.576,1
1,1,26,"Matching","mother","Mother","Close",604,0.604,1
1,1,27,"Nonmatching","self","Self","Self",568,0.568,1
1,1,28,"Nonmatching","self","Self","Self",613,0.613,1
1,1,29,"Nonmatching","mother","Mother","Close",591,0.591,1
1,1,30,"Nonmatching","self","Self","Self",963,0.963,1
1,1,31,"Matching","mother","Mother","Close",1031,1.031,1
1,1,32,"Nonmatching","stranger","Stranger","Stranger",771,0.771,1
1,1,33,"Matching","stranger","Stranger","Stranger",795,0.795,1
1,1,34,"Matching","self","Self","Self",625,0.625,1
1,1,35,"Nonmatching","mother","Mother","Close",588,0.588,1
1,1,36,"Matching","self","Self","Self",581,0.581,1
1,1,37,"Nonmatching","self","Self","Self",493,0.493,1
1,1,38,"Matching","self","Self","Self",501,0.501,1
1,1,39,"Matching","mother","Mother","Close",437,0.437,1
1,1,40,"Matching","mother","Mother","Close",501,0.501,1
1,1,41,"Nonmatching","mother","Mother","Close",733,0.733,1
1,1,42,"Nonmatching","stranger","Stranger","Stranger",697,0.697,1
1,1,43,"Nonmatching","self","Self","Self",636,0.636,1
1,1,44,"Nonmatching","stranger","Stranger","Stranger",748,0.748,1
1,1,45,"Nonmatching","mother","Mother","Close",568,0.568,1
1,1,46,"Matching","stranger","Stranger","Stranger",698,0.698,1
1,1,47,"Nonmatching","stranger","Stranger","Stranger",570,0.57,1
1,1,48,"Nonmatching","mother","Mother","Close",674,0.674,1
1,1,49,"Nonmatching","self","Self","Self",562,0.562,1
1,1,50,"Nonmatching","mother","Mother","Close",753,0.753,1
1,1,51,"Matching","stranger","Stranger","Stranger",690,0.69,1
1,1,52,"Matching","self","Self","Self",756,0.756,1
1,1,53,"Matching","self","Self","Self",814,0.814,1
1,1,54,"Matching","mother","Mother","Close",606,0.606,1
1,1,55,"Matching","self","Self","Self",482,0.482,1
1,1,56,"Nonmatching","stranger","Stranger","Stranger",554,0.554,1
1,1,57,"Nonmatching","mother","Mother","Close",1014,1.014,1
1,1,58,"Matching","mother","Mother","Close",669,0.669,1
1,1,59,"Matching","mother","Mother","Close",551,0.551,1
1,2,61,"Nonmatching","self","Self","Self",533,0.533,1
1,2,62,"Matching","self","Self","Self",552,0.552,1
1,2,63,"Nonmatching","self","Self","Self",593,0.593,1
1,2,64,"Nonmatching","stranger","Stranger","Stranger",549,0.549,1
1,2,65,"Matching","self","Self","Self",629,0.629,1
1,2,66,"Matching","self","Self","Self",479,0.479,1
1,2,69,"Matching","self","Self","Self",537,0.537,1
1,2,70,"Nonmatching","self","Self","Self",477,0.477,1
1,2,71,"Matching","self","Self","Self",544,0.544,1
1,2,72,"Nonmatching","mother","Mother","Close",578,0.578,1
1,2,73,"Nonmatching","stranger","Stranger","Stranger",786,0.786,1
1,2,74,"Nonmatching","self","Self","Self",874,0.874,1
1,2,75,"Nonmatching","stranger","Stranger","Stranger",824,0.824,1
1,2,76,"Matching","mother","Mother","Close",472,0.472,1
1,2,77,"Nonmatching","mother","Mother","Close",587,0.587,1
1,2,78,"Matching","mother","Mother","Close",484,0.484,1
1,2,79,"Nonmatching","mother","Mother","Close",596,0.596,1
1,2,80,"Matching","self","Self","Self",476,0.476,1
1,2,81,"Nonmatching","mother","Mother","Close",892,0.892,1
1,2,82,"Nonmatching","self","Self","Self",806,0.806,1
1,2,83,"Matching","mother","Mother","Close",480,0.48,1
1,2,84,"Matching","mother","Mother","Close",488,0.488,1
1,2,85,"Matching","self","Self","Self",654,0.654,1
1,2,86,"Nonmatching","self","Self","Self",557,0.557,1
1,2,87,"Matching","stranger","Stranger","Stranger",867,0.867,1
1,2,88,"Matching","mother","Mother","Close",631,0.631,1
1,2,89,"Nonmatching","stranger","Stranger","Stranger",643,0.643,1
1,2,90,"Nonmatching","mother","Mother","Close",817,0.817,1
1,2,91,"Nonmatching","mother","Mother","Close",696,0.696,1
1,2,92,"Matching","stranger","Stranger","Stranger",728,0.728,1
1,2,93,"Matching","self","Self","Self",599,0.599,1
1,2,94,"Nonmatching","mother","Mother","Close",627,0.627,1
1,2,95,"Matching","mother","Mother","Close",473,0.473,1
1,2,96,"Nonmatching","self","Self","Self",663,0.663,1
1,2,97,"Nonmatching","stranger","Stranger","Stranger",661,0.661,1
1,2,98,"Matching","mother","Mother","Close",1003,1.003,1
1,2,99,"Nonmatching","mother","Mother","Close",647,0.647,1
1,2,100,"Nonmatching","mother","Mother","Close",956,0.956,1
1,2,101,"Matching","stranger","Stranger","Stranger",592,0.592,1
1,2,102,"Matching","stranger","Stranger","Stranger",696,0.696,1
1,2,103,"Nonmatching","self","Self","Self",592,0.592,1
1,2,104,"Matching","self","Self","Self",570,0.57,1
1,2,105,"Matching","mother","Mother","Close",811,0.811,1
1,2,106,"Nonmatching","stranger","Stranger","Stranger",617,0.617,1
1,2,107,"Matching","mother","Mother","Close",549,0.549,1
1,2,108,"Matching","self","Self","Self",536,0.536,1
1,2,109,"Matching","self","Self","Self",502,0.502,1
1,2,110,"Nonmatching","self","Self","Self",534,0.534,1
1,2,111,"Nonmatching","stranger","Stranger","Stranger",724,0.724,1
1,2,112,"Matching","mother","Mother","Close",520,0.52,1
1,2,113,"Nonmatching","stranger","Stranger","Stranger",638,0.638,1
1,2,114,"Nonmatching","mother","Mother","Close",608,0.608,1
1,2,115,"Nonmatching","stranger","Stranger","Stranger",811,0.811,1
1,2,116,"Nonmatching","stranger","Stranger","Stranger",735,0.735,1
1,2,117,"Matching","mother","Mother","Close",523,0.523,1
1,2,118,"Matching","mother","Mother","Close",497,0.497,1
1,2,119,"Nonmatching","self","Self","Self",583,0.583,1
1,2,120,"Matching","self","Self","Self",526,0.526,1
1,3,121,"Nonmatching","stranger","Stranger","Stranger",491,0.491,1
1,3,122,"Matching","self","Self","Self",497,0.497,1
1,3,123,"Nonmatching","self","Self","Self",495,0.495,1
1,3,124,"Matching","self","Self","Self",627,0.627,1
1,3,125,"Nonmatching","self","Self","Self",853,0.853,1
1,3,126,"Matching","mother","Mother","Close",549,0.549,1
1,3,127,"Nonmatching","self","Self","Self",534,0.534,1
1,3,128,"Nonmatching","mother","Mother","Close",718,0.718,1
1,3,129,"Matching","self","Self","Self",464,0.464,1
1,3,130,"Matching","mother","Mother","Close",436,0.436,1
1,3,131,"Matching","self","Self","Self",496,0.496,1
1,3,132,"Matching","mother","Mother","Close",698,0.698,1
1,3,133,"Matching","self","Self","Self",501,0.501,1
1,3,134,"Matching","self","Self","Self",496,0.496,1
1,3,135,"Nonmatching","stranger","Stranger","Stranger",528,0.528,1
1,3,136,"Matching","mother","Mother","Close",508,0.508,1
1,3,137,"Nonmatching","self","Self","Self",560,0.56,1
1,3,138,"Nonmatching","mother","Mother","Close",872,0.872,1
1,3,139,"Nonmatching","mother","Mother","Close",624,0.624,1
1,3,140,"Matching","stranger","Stranger","Stranger",494,0.494,1
1,3,141,"Matching","mother","Mother","Close",542,0.542,1
1,3,142,"Matching","stranger","Stranger","Stranger",613,0.613,1
1,3,143,"Matching","self","Self","Self",561,0.561,1
1,3,144,"Nonmatching","stranger","Stranger","Stranger",681,0.681,1
1,3,145,"Matching","stranger","Stranger","Stranger",729,0.729,1
1,3,146,"Matching","mother","Mother","Close",473,0.473,1
1,3,147,"Nonmatching","self","Self","Self",526,0.526,1
1,3,148,"Matching","stranger","Stranger","Stranger",580,0.58,1
1,3,149,"Nonmatching","stranger","Stranger","Stranger",619,0.619,1
1,3,150,"Matching","self","Self","Self",505,0.505,1
1,3,151,"Matching","self","Self","Self",527,0.527,1
1,3,152,"Nonmatching","mother","Mother","Close",543,0.543,1
1,3,153,"Matching","mother","Mother","Close",501,0.501,1
1,3,154,"Matching","mother","Mother","Close",501,0.501,1
1,3,155,"Nonmatching","stranger","Stranger","Stranger",627,0.627,1
1,3,156,"Matching","self","Self","Self",537,0.537,1
1,3,157,"Nonmatching","stranger","Stranger","Stranger",672,0.672,1
1,3,158,"Nonmatching","self","Self","Self",574,0.574,1
1,3,159,"Nonmatching","self","Self","Self",706,0.706,1
1,3,160,"Nonmatching","self","Self","Self",484,0.484,1
1,3,161,"Nonmatching","self","Self","Self",777,0.777,1
1,3,162,"Nonmatching","stranger","Stranger","Stranger",713,0.713,1
1,3,163,"Nonmatching","stranger","Stranger","Stranger",703,0.703,1
1,3,164,"Nonmatching","mother","Mother","Close",644,0.644,1
1,3,165,"Matching","mother","Mother","Close",600,0.6,1
1,3,166,"Matching","mother","Mother","Close",502,0.502,1
1,3,167,"Nonmatching","mother","Mother","Close",592,0.592,1
1,3,168,"Matching","self","Self","Self",514,0.514,1
1,3,169,"Nonmatching","stranger","Stranger","Stranger",590,0.59,1
1,3,170,"Nonmatching","mother","Mother","Close",624,0.624,1
1,3,171,"Matching","self","Self","Self",933,0.933,1
1,3,172,"Matching","mother","Mother","Close",605,0.605,1
1,3,173,"Nonmatching","mother","Mother","Close",711,0.711,1
1,3,174,"Matching","mother","Mother","Close",795,0.795,0
1,3,175,"Nonmatching","mother","Mother","Close",861,0.861,1
1,3,176,"Nonmatching","stranger","Stranger","Stranger",556,0.556,1
1,3,177,"Nonmatching","mother","Mother","Close",652,0.652,1
1,3,178,"Matching","mother","Mother","Close",1124,1.124,1
1,3,179,"Nonmatching","self","Self","Self",945,0.945,1
1,3,180,"Matching","self","Self","Self",797,0.797,1
1,4,181,"Matching","self","Self","Self",495,0.495,1
1,4,182,"Nonmatching","stranger","Stranger","Stranger",567,0.567,1
1,4,183,"Matching","mother","Mother","Close",449,0.449,1
1,4,184,"Nonmatching","mother","Mother","Close",531,0.531,1
1,4,185,"Matching","self","Self","Self",428,0.428,1
1,4,186,"Matching","self","Self","Self",468,0.468,1
1,4,187,"Nonmatching","mother","Mother","Close",546,0.546,1
1,4,188,"Matching","mother","Mother","Close",634,0.634,1
1,4,189,"Matching","mother","Mother","Close",446,0.446,1
1,4,190,"Nonmatching","stranger","Stranger","Stranger",667,0.667,1
1,4,191,"Matching","mother","Mother","Close",525,0.525,1
1,4,192,"Nonmatching","stranger","Stranger","Stranger",556,0.556,1
1,4,193,"Matching","self","Self","Self",514,0.514,1
1,4,194,"Matching","mother","Mother","Close",394,0.394,1
1,4,195,"Nonmatching","mother","Mother","Close",528,0.528,1
1,4,196,"Matching","mother","Mother","Close",706,0.706,1
1,4,197,"Matching","stranger","Stranger","Stranger",880,0.88,1
1,4,198,"Nonmatching","self","Self","Self",610,0.61,1
1,4,199,"Matching","self","Self","Self",521,0.521,1
1,4,200,"Nonmatching","mother","Mother","Close",609,0.609,1
1,4,201,"Nonmatching","stranger","Stranger","Stranger",605,0.605,1
1,4,202,"Matching","self","Self","Self",533,0.533,1
1,4,203,"Matching","stranger","Stranger","Stranger",917,0.917,1
1,4,204,"Nonmatching","self","Self","Self",708,0.708,1
1,4,205,"Nonmatching","self","Self","Self",608,0.608,1
1,4,206,"Matching","self","Self","Self",662,0.662,1
1,4,207,"Matching","self","Self","Self",573,0.573,1
1,4,208,"Matching","mother","Mother","Close",469,0.469,1
1,4,209,"Matching","stranger","Stranger","Stranger",699,0.699,1
1,4,210,"Matching","stranger","Stranger","Stranger",513,0.513,1
1,4,211,"Nonmatching","stranger","Stranger","Stranger",513,0.513,1
1,4,212,"Nonmatching","mother","Mother","Close",605,0.605,1
1,4,213,"Nonmatching","self","Self","Self",539,0.539,1
1,4,214,"Nonmatching","mother","Mother","Close",600,0.6,1
1,4,215,"Nonmatching","stranger","Stranger","Stranger",886,0.886,1
1,4,216,"Nonmatching","self","Self","Self",678,0.678,1
1,4,217,"Nonmatching","mother","Mother","Close",644,0.644,1
1,4,218,"Nonmatching","self","Self","Self",554,0.554,1
1,4,219,"Matching","mother","Mother","Close",445,0.445,1
1,4,220,"Matching","self","Self","Self",449,0.449,1
1,4,221,"Matching","self","Self","Self",456,0.456,1
1,4,222,"Nonmatching","stranger","Stranger","Stranger",540,0.54,1
1,4,223,"Nonmatching","self","Self","Self",568,0.568,1
1,4,224,"Nonmatching","stranger","Stranger","Stranger",594,0.594,1
1,4,225,"Nonmatching","self","Self","Self",554,0.554,1
1,4,226,"Nonmatching","mother","Mother","Close",550,0.55,1
1,4,227,"Matching","self","Self","Self",534,0.534,1
1,4,228,"Nonmatching","self","Self","Self",686,0.686,1
1,4,229,"Matching","mother","Mother","Close",473,0.473,1
1,4,230,"Matching","self","Self","Self",491,0.491,1
1,4,231,"Nonmatching","stranger","Stranger","Stranger",655,0.655,1
1,4,232,"Matching","mother","Mother","Close",553,0.553,1
1,4,233,"Nonmatching","mother","Mother","Close",566,0.566,1
1,4,234,"Matching","self","Self","Self",496,0.496,1
1,4,235,"Nonmatching","self","Self","Self",516,0.516,1
1,4,236,"Matching","mother","Mother","Close",489,0.489,1
1,4,237,"Nonmatching","stranger","Stranger","Stranger",513,0.513,1
1,4,238,"Matching","mother","Mother","Close",521,0.521,1
1,4,239,"Matching","mother","Mother","Close",467,0.467,1
1,4,240,"Nonmatching","mother","Mother","Close",503,0.503,1
1,5,241,"Nonmatching","self","Self","Self",475,0.475,1
1,5,242,"Nonmatching","self","Self","Self",538,0.538,1
1,5,243,"Nonmatching","self","Self","Self",744,0.744,1
1,5,244,"Nonmatching","mother","Mother","Close",616,0.616,1
1,5,245,"Nonmatching","stranger","Stranger","Stranger",504,0.504,1
1,5,246,"Matching","mother","Mother","Close",403,0.403,1
1,5,247,"Matching","self","Self","Self",817,0.817,1
1,5,248,"Matching","self","Self","Self",517,0.517,1
1,5,249,"Nonmatching","mother","Mother","Close",548,0.548,1
1,5,250,"Matching","mother","Mother","Close",466,0.466,1
1,5,251,"Matching","mother","Mother","Close",444,0.444,1
1,5,252,"Nonmatching","mother","Mother","Close",538,0.538,1
1,5,253,"Nonmatching","stranger","Stranger","Stranger",578,0.578,1
1,5,254,"Matching","stranger","Stranger","Stranger",630,0.63,1
1,5,255,"Matching","mother","Mother","Close",534,0.534,1
1,5,256,"Matching","mother","Mother","Close",487,0.487,1
1,5,257,"Matching","stranger","Stranger","Stranger",571,0.571,1
1,5,258,"Matching","mother","Mother","Close",595,0.595,1
1,5,259,"Nonmatching","mother","Mother","Close",533,0.533,1
1,5,260,"Matching","self","Self","Self",557,0.557,1
1,5,261,"Matching","stranger","Stranger","Stranger",548,0.548,1
1,5,262,"Nonmatching","mother","Mother","Close",594,0.594,1
1,5,263,"Matching","stranger","Stranger","Stranger",818,0.818,1
1,5,264,"Nonmatching","self","Self","Self",537,0.537,1
1,5,265,"Matching","mother","Mother","Close",433,0.433,1
1,5,266,"Matching","mother","Mother","Close",447,0.447,1
1,5,267,"Matching","self","Self","Self",493,0.493,1
1,5,268,"Nonmatching","stranger","Stranger","Stranger",545,0.545,1
1,5,269,"Matching","self","Self","Self",427,0.427,1
1,5,270,"Nonmatching","mother","Mother","Close",491,0.491,1
1,5,271,"Matching","self","Self","Self",404,0.404,1
1,5,272,"Nonmatching","self","Self","Self",454,0.454,1
1,5,273,"Matching","mother","Mother","Close",526,0.526,0
1,5,274,"Nonmatching","self","Self","Self",504,0.504,1
1,5,275,"Matching","mother","Mother","Close",454,0.454,1
1,5,276,"Nonmatching","stranger","Stranger","Stranger",695,0.695,1
1,5,277,"Matching","self","Self","Self",435,0.435,1
1,5,278,"Matching","self","Self","Self",449,0.449,1
1,5,279,"Matching","self","Self","Self",410,0.41,1
1,5,280,"Nonmatching","self","Self","Self",458,0.458,1
1,5,281,"Nonmatching","stranger","Stranger","Stranger",746,0.746,1
1,5,282,"Nonmatching","stranger","Stranger","Stranger",508,0.508,1
1,5,283,"Nonmatching","self","Self","Self",508,0.508,1
1,5,284,"Nonmatching","mother","Mother","Close",546,0.546,1
1,5,285,"Nonmatching","stranger","Stranger","Stranger",474,0.474,1
1,5,286,"Nonmatching","self","Self","Self",535,0.535,1
1,5,287,"Matching","self","Self","Self",663,0.663,1
1,5,288,"Matching","mother","Mother","Close",527,0.527,1
1,5,289,"Nonmatching","stranger","Stranger","Stranger",517,0.517,1
1,5,290,"Matching","mother","Mother","Close",419,0.419,1
1,5,291,"Nonmatching","mother","Mother","Close",530,0.53,1
1,5,292,"Nonmatching","stranger","Stranger","Stranger",498,0.498,1
1,5,293,"Nonmatching","mother","Mother","Close",592,0.592,1
1,5,294,"Matching","self","Self","Self",563,0.563,1
1,5,295,"Nonmatching","mother","Mother","Close",689,0.689,1
1,5,296,"Matching","self","Self","Self",447,0.447,1
1,5,297,"Nonmatching","self","Self","Self",529,0.529,1
1,5,298,"Matching","mother","Mother","Close",689,0.689,1
1,5,299,"Nonmatching","stranger","Stranger","Stranger",577,0.577,1
1,5,300,"Matching","self","Self","Self",407,0.407,1
1,6,301,"Matching","self","Self","Self",1106,1.106,0
1,6,302,"Nonmatching","self","Self","Self",516,0.516,1
1,6,303,"Matching","mother","Mother","Close",426,0.426,1
1,6,304,"Nonmatching","self","Self","Self",585,0.585,1
1,6,305,"Matching","mother","Mother","Close",405,0.405,1
1,6,306,"Nonmatching","self","Self","Self",482,0.482,1
1,6,307,"Matching","mother","Mother","Close",458,0.458,1
1,6,308,"Matching","stranger","Stranger","Stranger",716,0.716,1
1,6,309,"Matching","self","Self","Self",706,0.706,1
1,6,310,"Nonmatching","stranger","Stranger","Stranger",524,0.524,1
1,6,311,"Matching","mother","Mother","Close",490,0.49,1
1,6,312,"Nonmatching","self","Self","Self",458,0.458,1
1,6,313,"Nonmatching","self","Self","Self",518,0.518,1
1,6,314,"Nonmatching","mother","Mother","Close",521,0.521,1
1,6,315,"Nonmatching","mother","Mother","Close",483,0.483,1
1,6,316,"Nonmatching","stranger","Stranger","Stranger",571,0.571,1
1,6,317,"Nonmatching","self","Self","Self",499,0.499,1
1,6,318,"Matching","self","Self","Self",478,0.478,1
1,6,319,"Nonmatching","stranger","Stranger","Stranger",586,0.586,1
1,6,320,"Nonmatching","mother","Mother","Close",532,0.532,1
1,6,321,"Matching","stranger","Stranger","Stranger",575,0.575,1
1,6,322,"Nonmatching","stranger","Stranger","Stranger",427,0.427,1
1,6,323,"Matching","self","Self","Self",697,0.697,1
1,6,324,"Nonmatching","self","Self","Self",481,0.481,1
1,6,325,"Matching","self","Self","Self",495,0.495,1
1,6,326,"Matching","mother","Mother","Close",683,0.683,1
1,6,327,"Nonmatching","self","Self","Self",459,0.459,1
1,6,328,"Nonmatching","mother","Mother","Close",502,0.502,1
1,6,329,"Matching","self","Self","Self",436,0.436,1
1,6,330,"Nonmatching","mother","Mother","Close",484,0.484,1
1,6,331,"Matching","self","Self","Self",594,0.594,1
1,6,332,"Matching","mother","Mother","Close",741,0.741,1
1,6,333,"Matching","mother","Mother","Close",541,0.541,1
1,6,334,"Matching","mother","Mother","Close",465,0.465,1
1,6,335,"Nonmatching","stranger","Stranger","Stranger",507,0.507,1
1,6,336,"Matching","stranger","Stranger","Stranger",504,0.504,1
1,6,337,"Nonmatching","stranger","Stranger","Stranger",452,0.452,1
1,6,338,"Nonmatching","mother","Mother","Close",466,0.466,1
1,6,339,"Nonmatching","mother","Mother","Close",536,0.536,1
1,6,340,"Matching","self","Self","Self",398,0.398,1
1,6,341,"Matching","mother","Mother","Close",434,0.434,1
1,6,342,"Matching","stranger","Stranger","Stranger",568,0.568,1
1,6,343,"Nonmatching","mother","Mother","Close",453,0.453,1
1,6,344,"Nonmatching","stranger","Stranger","Stranger",415,0.415,1
1,6,345,"Nonmatching","self","Self","Self",479,0.479,1
1,6,346,"Matching","mother","Mother","Close",379,0.379,1
1,6,347,"Nonmatching","stranger","Stranger","Stranger",406,0.406,1
1,6,348,"Nonmatching","mother","Mother","Close",532,0.532,1
1,6,349,"Matching","self","Self","Self",406,0.406,1
1,6,350,"Matching","self","Self","Self",408,0.408,1
1,6,351,"Nonmatching","mother","Mother","Close",417,0.417,1
1,6,352,"Matching","self","Self","Self",367,0.367,1
1,6,353,"Matching","self","Self","Self",575,0.575,1
1,6,354,"Matching","self","Self","Self",407,0.407,1
1,6,355,"Matching","mother","Mother","Close",459,0.459,1
1,6,356,"Matching","mother","Mother","Close",405,0.405,1
1,6,357,"Nonmatching","stranger","Stranger","Stranger",461,0.461,1
1,6,358,"Nonmatching","stranger","Stranger","Stranger",436,0.436,1
1,6,359,"Matching","mother","Mother","Close",406,0.406,1
1,6,360,"Nonmatching","self","Self","Self",616,0.616,1
2,1,1,"Matching","mother","Mother","Close",843,0.843,1
2,1,2,"Matching","stranger","Stranger","Stranger",997,0.997,1
2,1,3,"Nonmatching","stranger","Stranger","Stranger",583,0.583,1
2,1,4,"Matching","mother","Mother","Close",696,0.696,1
2,1,5,"Matching","mother","Mother","Close",477,0.477,1
2,1,6,"Nonmatching","stranger","Stranger","Stranger",519,0.519,1
2,1,7,"Nonmatching","self","Self","Self",599,0.599,1
2,1,8,"Matching","self","Self","Self",621,0.621,1
2,1,9,"Matching","mother","Mother","Close",483,0.483,1
2,1,10,"Nonmatching","mother","Mother","Close",491,0.491,1
2,1,11,"Matching","mother","Mother","Close",481,0.481,1
2,1,12,"Matching","self","Self","Self",451,0.451,1
2,1,13,"Matching","self","Self","Self",464,0.464,1
2,1,14,"Nonmatching","self","Self","Self",504,0.504,1
2,1,15,"Nonmatching","stranger","Stranger","Stranger",866,0.866,1
2,1,16,"Nonmatching","mother","Mother","Close",708,0.708,1
2,1,17,"Nonmatching","self","Self","Self",648,0.648,1
2,1,18,"Matching","self","Self","Self",448,0.448,1
2,1,19,"Matching","mother","Mother","Close",715,0.715,1
2,1,20,"Matching","self","Self","Self",590,0.59,1
2,1,21,"Matching","stranger","Stranger","Stranger",636,0.636,1
2,1,22,"Matching","self","Self","Self",452,0.452,1
2,1,23,"Nonmatching","stranger","Stranger","Stranger",672,0.672,1
2,1,24,"Nonmatching","mother","Mother","Close",564,0.564,1
2,1,25,"Matching","mother","Mother","Close",484,0.484,1
2,1,26,"Nonmatching","stranger","Stranger","Stranger",508,0.508,1
2,1,27,"Nonmatching","mother","Mother","Close",683,0.683,1
2,1,28,"Matching","stranger","Stranger","Stranger",591,0.591,1
2,1,29,"Nonmatching","self","Self","Self",463,0.463,1
2,1,30,"Matching","self","Self","Self",381,0.381,1
2,1,31,"Nonmatching","stranger","Stranger","Stranger",709,0.709,1
2,1,32,"Matching","stranger","Stranger","Stranger",601,0.601,1
2,1,33,"Nonmatching","self","Self","Self",444,0.444,1
2,1,34,"Matching","mother","Mother","Close",533,0.533,1
2,1,35,"Matching","self","Self","Self",413,0.413,1
2,1,36,"Nonmatching","self","Self","Self",565,0.565,1
2,1,37,"Matching","self","Self","Self",461,0.461,1
2,1,38,"Nonmatching","stranger","Stranger","Stranger",673,0.673,1
2,1,39,"Matching","mother","Mother","Close",815,0.815,1
2,1,40,"Matching","mother","Mother","Close",431,0.431,1
2,1,41,"Nonmatching","mother","Mother","Close",661,0.661,1
2,1,42,"Nonmatching","mother","Mother","Close",506,0.506,1
2,1,43,"Nonmatching","self","Self","Self",538,0.538,1
2,1,44,"Nonmatching","stranger","Stranger","Stranger",554,0.554,1
2,1,45,"Nonmatching","mother","Mother","Close",562,0.562,1
2,1,46,"Matching","self","Self","Self",600,0.6,1
2,1,47,"Nonmatching","mother","Mother","Close",656,0.656,1
2,1,48,"Nonmatching","self","Self","Self",593,0.593,1
2,1,49,"Matching","self","Self","Self",402,0.402,1
2,1,50,"Matching","mother","Mother","Close",378,0.378,1
2,1,51,"Matching","mother","Mother","Close",410,0.41,1
2,1,52,"Nonmatching","mother","Mother","Close",516,0.516,1
2,1,53,"Nonmatching","self","Self","Self",582,0.582,1
2,1,54,"Matching","self","Self","Self",384,0.384,1
2,1,55,"Matching","self","Self","Self",374,0.374,1
2,1,56,"Nonmatching","mother","Mother","Close",530,0.53,0
2,1,57,"Matching","mother","Mother","Close",635,0.635,1
2,1,59,"Nonmatching","stranger","Stranger","Stranger",697,0.697,1
2,1,60,"Nonmatching","stranger","Stranger","Stranger",591,0.591,1
2,2,61,"Nonmatching","stranger","Stranger","Stranger",585,0.585,1
2,2,62,"Matching","self","Self","Self",459,0.459,1
2,2,63,"Nonmatching","self","Self","Self",493,0.493,1
2,2,64,"Matching","mother","Mother","Close",507,0.507,1
2,2,65,"Nonmatching","mother","Mother","Close",459,0.459,1
2,2,66,"Matching","stranger","Stranger","Stranger",500,0.5,1
2,2,67,"Matching","self","Self","Self",388,0.388,1
2,2,68,"Nonmatching","mother","Mother","Close",642,0.642,1
2,2,69,"Nonmatching","self","Self","Self",580,0.58,1
2,2,70,"Nonmatching","mother","Mother","Close",440,0.44,1
2,2,71,"Matching","mother","Mother","Close",456,0.456,1
2,2,72,"Nonmatching","stranger","Stranger","Stranger",643,0.643,1
2,2,73,"Nonmatching","stranger","Stranger","Stranger",542,0.542,1
2,2,74,"Nonmatching","self","Self","Self",452,0.452,1
2,2,75,"Matching","mother","Mother","Close",422,0.422,1
2,2,76,"Matching","self","Self","Self",440,0.44,1
2,2,77,"Matching","self","Self","Self",496,0.496,1
2,2,78,"Matching","stranger","Stranger","Stranger",370,0.37,0
2,2,79,"Nonmatching","stranger","Stranger","Stranger",504,0.504,1
2,2,80,"Matching","self","Self","Self",448,0.448,1
2,2,81,"Matching","self","Self","Self",403,0.403,1
2,2,82,"Matching","self","Self","Self",409,0.409,1
2,2,83,"Nonmatching","stranger","Stranger","Stranger",405,0.405,1
2,2,84,"Matching","self","Self","Self",429,0.429,1
2,2,85,"Matching","self","Self","Self",359,0.359,1
2,2,86,"Matching","mother","Mother","Close",405,0.405,1
2,2,87,"Matching","mother","Mother","Close",688,0.688,0
2,2,88,"Nonmatching","stranger","Stranger","Stranger",595,0.595,1
2,2,89,"Matching","mother","Mother","Close",815,0.815,1
2,2,90,"Matching","self","Self","Self",349,0.349,1
2,2,91,"Nonmatching","self","Self","Self",495,0.495,1
2,2,92,"Nonmatching","self","Self","Self",557,0.557,1
2,2,93,"Matching","self","Self","Self",475,0.475,1
2,2,94,"Nonmatching","mother","Mother","Close",513,0.513,1
2,2,95,"Nonmatching","self","Self","Self",496,0.496,1
2,2,96,"Matching","mother","Mother","Close",772,0.772,1
2,2,97,"Nonmatching","stranger","Stranger","Stranger",446,0.446,1
2,2,98,"Nonmatching","mother","Mother","Close",886,0.886,1
2,2,99,"Matching","mother","Mother","Close",772,0.772,1
2,2,100,"Nonmatching","self","Self","Self",466,0.466,1
2,2,101,"Nonmatching","stranger","Stranger","Stranger",433,0.433,1
2,2,102,"Nonmatching","mother","Mother","Close",500,0.5,1
2,2,103,"Nonmatching","self","Self","Self",582,0.582,1
2,2,104,"Nonmatching","mother","Mother","Close",802,0.802,1
2,2,105,"Matching","mother","Mother","Close",552,0.552,1
2,2,106,"Matching","self","Self","Self",414,0.414,1
2,2,107,"Matching","stranger","Stranger","Stranger",842,0.842,1
2,2,108,"Nonmatching","mother","Mother","Close",680,0.68,1
2,2,109,"Nonmatching","mother","Mother","Close",796,0.796,1
2,2,110,"Matching","mother","Mother","Close",961,0.961,1
2,2,111,"Nonmatching","stranger","Stranger","Stranger",705,0.705,1
2,2,112,"Nonmatching","self","Self","Self",741,0.741,1
2,2,113,"Nonmatching","mother","Mother","Close",441,0.441,1
2,2,114,"Matching","self","Self","Self",383,0.383,1
2,2,115,"Matching","mother","Mother","Close",393,0.393,1
2,2,116,"Matching","stranger","Stranger","Stranger",460,0.46,1
2,2,117,"Matching","mother","Mother","Close",491,0.491,1
2,2,118,"Nonmatching","self","Self","Self",629,0.629,1
2,2,119,"Matching","mother","Mother","Close",413,0.413,1
2,2,120,"Nonmatching","stranger","Stranger","Stranger",473,0.473,1
2,3,121,"Matching","self","Self","Self",444,0.444,1
2,3,122,"Nonmatching","self","Self","Self",478,0.478,1
2,3,123,"Matching","self","Self","Self",536,0.536,1
2,3,124,"Nonmatching","self","Self","Self",597,0.597,1
2,3,125,"Nonmatching","mother","Mother","Close",491,0.491,1
2,3,126,"Matching","stranger","Stranger","Stranger",494,0.494,1
2,3,127,"Matching","stranger","Stranger","Stranger",616,0.616,1
2,3,128,"Nonmatching","stranger","Stranger","Stranger",478,0.478,1
2,3,129,"Matching","mother","Mother","Close",486,0.486,1
2,3,130,"Matching","mother","Mother","Close",392,0.392,1
2,3,131,"Nonmatching","stranger","Stranger","Stranger",532,0.532,1
2,3,132,"Nonmatching","self","Self","Self",660,0.66,1
2,3,133,"Nonmatching","mother","Mother","Close",487,0.487,1
2,3,134,"Nonmatching","stranger","Stranger","Stranger",551,0.551,1
2,3,135,"Nonmatching","stranger","Stranger","Stranger",701,0.701,1
2,3,136,"Nonmatching","stranger","Stranger","Stranger",461,0.461,1
2,3,137,"Matching","stranger","Stranger","Stranger",579,0.579,1
2,3,138,"Matching","self","Self","Self",445,0.445,1
2,3,139,"Nonmatching","self","Self","Self",536,0.536,1
2,3,140,"Matching","mother","Mother","Close",442,0.442,1
2,3,141,"Nonmatching","mother","Mother","Close",555,0.555,1
2,3,142,"Matching","mother","Mother","Close",489,0.489,1
2,3,143,"Matching","self","Self","Self",455,0.455,1
2,3,144,"Nonmatching","mother","Mother","Close",457,0.457,1
2,3,145,"Nonmatching","mother","Mother","Close",523,0.523,1
2,3,146,"Matching","mother","Mother","Close",455,0.455,1
2,3,147,"Matching","self","Self","Self",473,0.473,1
2,3,148,"Matching","mother","Mother","Close",490,0.49,1
2,3,149,"Matching","mother","Mother","Close",470,0.47,1
2,3,150,"Nonmatching","mother","Mother","Close",474,0.474,1
2,3,151,"Matching","self","Self","Self",400,0.4,1
2,3,152,"Matching","mother","Mother","Close",440,0.44,1
2,3,153,"Matching","mother","Mother","Close",416,0.416,1
2,3,154,"Matching","mother","Mother","Close",439,0.439,1
2,3,155,"Matching","self","Self","Self",419,0.419,1
2,3,156,"Matching","mother","Mother","Close",430,0.43,1
2,3,157,"Nonmatching","self","Self","Self",720,0.72,1
2,3,158,"Nonmatching","stranger","Stranger","Stranger",434,0.434,1
2,3,159,"Nonmatching","self","Self","Self",466,0.466,1
2,3,160,"Nonmatching","self","Self","Self",598,0.598,1
2,3,161,"Nonmatching","stranger","Stranger","Stranger",504,0.504,1
2,3,162,"Nonmatching","mother","Mother","Close",488,0.488,1
2,3,163,"Matching","stranger","Stranger","Stranger",583,0.583,1
2,3,164,"Nonmatching","self","Self","Self",429,0.429,1
2,3,165,"Matching","self","Self","Self",455,0.455,1
2,3,166,"Matching","self","Self","Self",433,0.433,1
2,3,167,"Nonmatching","mother","Mother","Close",415,0.415,1
2,3,168,"Matching","mother","Mother","Close",475,0.475,1
2,3,169,"Nonmatching","stranger","Stranger","Stranger",490,0.49,1
2,3,170,"Nonmatching","self","Self","Self",585,0.585,1
2,3,171,"Nonmatching","mother","Mother","Close",511,0.511,1
2,3,172,"Matching","self","Self","Self",503,0.503,1
2,3,173,"Matching","self","Self","Self",461,0.461,1
2,3,174,"Nonmatching","stranger","Stranger","Stranger",511,0.511,1
2,3,175,"Matching","self","Self","Self",459,0.459,1
2,3,176,"Matching","self","Self","Self",459,0.459,1
2,3,177,"Nonmatching","stranger","Stranger","Stranger",425,0.425,1
2,3,178,"Nonmatching","self","Self","Self",534,0.534,1
2,3,179,"Nonmatching","mother","Mother","Close",454,0.454,1
2,3,180,"Matching","mother","Mother","Close",432,0.432,1
2,4,181,"Nonmatching","stranger","Stranger","Stranger",468,0.468,1
2,4,182,"Matching","self","Self","Self",426,0.426,1
2,4,183,"Matching","self","Self","Self",434,0.434,1
2,4,184,"Matching","mother","Mother","Close",435,0.435,1
2,4,185,"Matching","self","Self","Self",405,0.405,1
2,4,186,"Matching","mother","Mother","Close",401,0.401,1
2,4,187,"Nonmatching","stranger","Stranger","Stranger",435,0.435,1
2,4,188,"Nonmatching","mother","Mother","Close",515,0.515,1
2,4,189,"Nonmatching","self","Self","Self",529,0.529,1
2,4,190,"Nonmatching","stranger","Stranger","Stranger",557,0.557,1
2,4,191,"Nonmatching","stranger","Stranger","Stranger",548,0.548,1
2,4,192,"Matching","self","Self","Self",471,0.471,1
2,4,193,"Nonmatching","stranger","Stranger","Stranger",469,0.469,1
2,4,194,"Nonmatching","stranger","Stranger","Stranger",501,0.501,1
2,4,195,"Matching","self","Self","Self",399,0.399,1
2,4,196,"Matching","self","Self","Self",421,0.421,1
2,4,197,"Nonmatching","mother","Mother","Close",453,0.453,1
2,4,198,"Matching","stranger","Stranger","Stranger",599,0.599,1
2,4,199,"Nonmatching","stranger","Stranger","Stranger",470,0.47,1
2,4,200,"Matching","mother","Mother","Close",622,0.622,1
2,4,201,"Nonmatching","self","Self","Self",450,0.45,1
2,4,202,"Nonmatching","stranger","Stranger","Stranger",536,0.536,1
2,4,203,"Nonmatching","self","Self","Self",570,0.57,1
2,4,204,"Matching","mother","Mother","Close",502,0.502,1
2,4,205,"Matching","mother","Mother","Close",457,0.457,1
2,4,206,"Nonmatching","mother","Mother","Close",508,0.508,1
2,4,207,"Matching","mother","Mother","Close",482,0.482,1
2,4,208,"Nonmatching","mother","Mother","Close",424,0.424,1
2,4,209,"Matching","mother","Mother","Close",546,0.546,1
2,4,210,"Matching","stranger","Stranger","Stranger",660,0.66,1
2,4,211,"Nonmatching","mother","Mother","Close",556,0.556,1
2,4,212,"Nonmatching","self","Self","Self",520,0.52,1
2,4,213,"Nonmatching","mother","Mother","Close",483,0.483,1
2,4,214,"Matching","self","Self","Self",567,0.567,1
2,4,215,"Nonmatching","mother","Mother","Close",427,0.427,1
2,4,216,"Matching","mother","Mother","Close",741,0.741,1
2,4,217,"Matching","self","Self","Self",419,0.419,1
2,4,218,"Nonmatching","stranger","Stranger","Stranger",409,0.409,1
2,4,219,"Matching","self","Self","Self",561,0.561,1
2,4,220,"Matching","mother","Mother","Close",546,0.546,1
2,4,221,"Nonmatching","mother","Mother","Close",445,0.445,1
2,4,222,"Matching","self","Self","Self",455,0.455,1
2,4,223,"Nonmatching","self","Self","Self",467,0.467,1
2,4,224,"Nonmatching","mother","Mother","Close",483,0.483,1
2,4,225,"Matching","mother","Mother","Close",661,0.661,1
2,4,226,"Matching","mother","Mother","Close",487,0.487,1
2,4,227,"Matching","stranger","Stranger","Stranger",883,0.883,1
2,4,228,"Nonmatching","self","Self","Self",500,0.5,1
2,4,229,"Matching","mother","Mother","Close",390,0.39,1
2,4,230,"Matching","self","Self","Self",436,0.436,1
2,4,231,"Nonmatching","self","Self","Self",566,0.566,1
2,4,232,"Nonmatching","self","Self","Self",504,0.504,1
2,4,233,"Matching","self","Self","Self",490,0.49,1
2,4,234,"Nonmatching","mother","Mother","Close",476,0.476,1
2,4,235,"Nonmatching","self","Self","Self",451,0.451,1
2,4,236,"Nonmatching","self","Self","Self",532,0.532,1
2,4,237,"Matching","mother","Mother","Close",524,0.524,1
2,4,238,"Matching","self","Self","Self",516,0.516,1
2,4,239,"Nonmatching","stranger","Stranger","Stranger",506,0.506,1
2,4,240,"Matching","stranger","Stranger","Stranger",526,0.526,1
2,5,241,"Matching","mother","Mother","Close",443,0.443,1
2,5,242,"Nonmatching","stranger","Stranger","Stranger",441,0.441,1
2,5,243,"Matching","self","Self","Self",401,0.401,1
2,5,244,"Matching","mother","Mother","Close",442,0.442,1
2,5,245,"Nonmatching","mother","Mother","Close",415,0.415,1
2,5,246,"Nonmatching","self","Self","Self",465,0.465,1
2,5,247,"Nonmatching","self","Self","Self",455,0.455,1
2,5,248,"Nonmatching","self","Self","Self",471,0.471,1
2,5,249,"Nonmatching","stranger","Stranger","Stranger",555,0.555,1
2,5,250,"Nonmatching","mother","Mother","Close",547,0.547,1
2,5,251,"Matching","self","Self","Self",453,0.453,1
2,5,252,"Nonmatching","stranger","Stranger","Stranger",609,0.609,1
2,5,253,"Matching","self","Self","Self",454,0.454,1
2,5,254,"Matching","stranger","Stranger","Stranger",494,0.494,1
2,5,255,"Nonmatching","self","Self","Self",444,0.444,1
2,5,256,"Nonmatching","stranger","Stranger","Stranger",452,0.452,1
2,5,257,"Nonmatching","mother","Mother","Close",514,0.514,1
2,5,258,"Nonmatching","self","Self","Self",498,0.498,1
2,5,260,"Nonmatching","self","Self","Self",498,0.498,1
2,5,261,"Matching","self","Self","Self",416,0.416,1
2,5,262,"Nonmatching","stranger","Stranger","Stranger",438,0.438,1
2,5,263,"Matching","self","Self","Self",404,0.404,1
2,5,264,"Nonmatching","mother","Mother","Close",470,0.47,1
2,5,265,"Nonmatching","self","Self","Self",460,0.46,1
2,5,266,"Nonmatching","self","Self","Self",424,0.424,1
2,5,267,"Matching","mother","Mother","Close",463,0.463,1
2,5,268,"Nonmatching","mother","Mother","Close",445,0.445,1
2,5,269,"Matching","mother","Mother","Close",561,0.561,1
2,5,270,"Matching","self","Self","Self",531,0.531,1
2,5,271,"Matching","self","Self","Self",399,0.399,1
2,5,272,"Matching","mother","Mother","Close",409,0.409,1
2,5,273,"Matching","self","Self","Self",447,0.447,1
2,5,274,"Matching","mother","Mother","Close",350,0.35,1
2,5,275,"Nonmatching","self","Self","Self",511,0.511,1
2,5,276,"Matching","mother","Mother","Close",383,0.383,1
2,5,277,"Matching","stranger","Stranger","Stranger",489,0.489,1
2,5,278,"Matching","mother","Mother","Close",461,0.461,1
2,5,279,"Matching","self","Self","Self",427,0.427,1
2,5,280,"Nonmatching","mother","Mother","Close",611,0.611,1
2,5,281,"Matching","mother","Mother","Close",565,0.565,1
2,5,282,"Matching","mother","Mother","Close",546,0.546,1
2,5,283,"Nonmatching","self","Self","Self",682,0.682,1
2,5,284,"Matching","mother","Mother","Close",446,0.446,1
2,5,285,"Matching","self","Self","Self",538,0.538,1
2,5,286,"Nonmatching","stranger","Stranger","Stranger",464,0.464,1
2,5,287,"Nonmatching","stranger","Stranger","Stranger",452,0.452,1
2,5,288,"Nonmatching","mother","Mother","Close",431,0.431,1
2,5,289,"Matching","mother","Mother","Close",530,0.53,1
2,5,290,"Matching","stranger","Stranger","Stranger",478,0.478,1
2,5,291,"Nonmatching","mother","Mother","Close",666,0.666,1
2,5,292,"Nonmatching","stranger","Stranger","Stranger",550,0.55,1
2,5,293,"Nonmatching","mother","Mother","Close",448,0.448,1
2,5,294,"Matching","self","Self","Self",458,0.458,1
2,5,295,"Matching","self","Self","Self",818,0.818,1
2,5,296,"Matching","mother","Mother","Close",491,0.491,1
2,5,297,"Nonmatching","stranger","Stranger","Stranger",415,0.415,1
2,5,298,"Matching","stranger","Stranger","Stranger",735,0.735,1
2,5,299,"Matching","self","Self","Self",443,0.443,1
2,5,300,"Nonmatching","stranger","Stranger","Stranger",569,0.569,1
2,6,301,"Nonmatching","stranger","Stranger","Stranger",567,0.567,1
2,6,302,"Nonmatching","stranger","Stranger","Stranger",475,0.475,1
2,6,303,"Matching","self","Self","Self",359,0.359,1
2,6,304,"Nonmatching","mother","Mother","Close",819,0.819,1
2,6,305,"Nonmatching","mother","Mother","Close",414,0.414,1
2,6,306,"Matching","self","Self","Self",396,0.396,1
2,6,307,"Matching","self","Self","Self",338,0.338,1
2,6,308,"Matching","mother","Mother","Close",430,0.43,1
2,6,309,"Nonmatching","stranger","Stranger","Stranger",456,0.456,1
2,6,310,"Nonmatching","mother","Mother","Close",524,0.524,1
2,6,311,"Nonmatching","self","Self","Self",487,0.487,1
2,6,312,"Matching","self","Self","Self",474,0.474,1
2,6,313,"Matching","mother","Mother","Close",410,0.41,1
2,6,314,"Nonmatching","stranger","Stranger","Stranger",394,0.394,1
2,6,315,"Nonmatching","stranger","Stranger","Stranger",398,0.398,1
2,6,316,"Nonmatching","self","Self","Self",306,0.306,0
2,6,317,"Matching","self","Self","Self",398,0.398,1
2,6,318,"Nonmatching","mother","Mother","Close",450,0.45,1
2,6,319,"Nonmatching","stranger","Stranger","Stranger",473,0.473,1
2,6,320,"Matching","self","Self","Self",387,0.387,1
2,6,321,"Nonmatching","self","Self","Self",409,0.409,1
2,6,322,"Matching","mother","Mother","Close",503,0.503,1
2,6,323,"Nonmatching","stranger","Stranger","Stranger",385,0.385,1
2,6,324,"Matching","mother","Mother","Close",459,0.459,1
2,6,325,"Matching","stranger","Stranger","Stranger",743,0.743,1
2,6,326,"Nonmatching","mother","Mother","Close",748,0.748,1
2,6,327,"Matching","self","Self","Self",359,0.359,1
2,6,328,"Nonmatching","self","Self","Self",425,0.425,1
2,6,329,"Nonmatching","mother","Mother","Close",407,0.407,1
2,6,330,"Matching","stranger","Stranger","Stranger",435,0.435,1
2,6,331,"Matching","mother","Mother","Close",439,0.439,1
2,6,332,"Nonmatching","mother","Mother","Close",483,0.483,1
2,6,333,"Matching","mother","Mother","Close",465,0.465,1
2,6,334,"Nonmatching","mother","Mother","Close",990,0.99,1
2,6,335,"Matching","self","Self","Self",386,0.386,1
2,6,336,"Nonmatching","self","Self","Self",506,0.506,1
2,6,337,"Nonmatching","self","Self","Self",488,0.488,1
2,6,338,"Matching","stranger","Stranger","Stranger",672,0.672,1
2,6,339,"Nonmatching","self","Self","Self",430,0.43,1
2,6,340,"Nonmatching","mother","Mother","Close",412,0.412,1
2,6,341,"Nonmatching","mother","Mother","Close",450,0.45,1
2,6,342,"Matching","mother","Mother","Close",578,0.578,1
2,6,343,"Nonmatching","self","Self","Self",428,0.428,1
2,6,344,"Nonmatching","stranger","Stranger","Stranger",464,0.464,1
2,6,345,"Nonmatching","stranger","Stranger","Stranger",462,0.462,1
2,6,346,"Matching","self","Self","Self",364,0.364,1
2,6,347,"Matching","mother","Mother","Close",370,0.37,1
2,6,348,"Matching","self","Self","Self",462,0.462,1
2,6,349,"Matching","stranger","Stranger","Stranger",681,0.681,1
2,6,350,"Matching","self","Self","Self",381,0.381,1
2,6,351,"Nonmatching","stranger","Stranger","Stranger",477,0.477,1
2,6,352,"Nonmatching","self","Self","Self",545,0.545,1
2,6,353,"Matching","mother","Mother","Close",1013,1.013,1
2,6,354,"Matching","mother","Mother","Close",737,0.737,1
2,6,355,"Matching","self","Self","Self",388,0.388,1
2,6,356,"Matching","mother","Mother","Close",857,0.857,1
2,6,357,"Matching","mother","Mother","Close",533,0.533,1
2,6,358,"Nonmatching","self","Self","Self",451,0.451,1
2,6,359,"Matching","mother","Mother","Close",619,0.619,1
2,6,360,"Matching","self","Self","Self",361,0.361,1
3,1,1,"Matching","self","Self","Self",492,0.492,1
3,1,2,"Nonmatching","self","Self","Self",502,0.502,1
3,1,3,"Matching","mother","Mother","Close",536,0.536,0
3,1,4,"Nonmatching","self","Self","Self",588,0.588,1
3,1,5,"Matching","self","Self","Self",546,0.546,1
3,1,6,"Matching","self","Self","Self",531,0.531,1
3,1,7,"Matching","mother","Mother","Close",561,0.561,1
3,1,8,"Nonmatching","stranger","Stranger","Stranger",684,0.684,1
3,1,9,"Nonmatching","stranger","Stranger","Stranger",570,0.57,1
3,1,10,"Matching","mother","Mother","Close",636,0.636,1
3,1,11,"Matching","self","Self","Self",550,0.55,1
3,1,12,"Nonmatching","stranger","Stranger","Stranger",540,0.54,1
3,1,13,"Matching","self","Self","Self",657,0.657,1
3,1,14,"Matching","mother","Mother","Close",871,0.871,1
3,1,15,"Matching","stranger","Stranger","Stranger",541,0.541,0
3,1,16,"Matching","self","Self","Self",675,0.675,1
3,1,17,"Nonmatching","mother","Mother","Close",647,0.647,1
3,1,18,"Nonmatching","stranger","Stranger","Stranger",553,0.553,1
3,1,19,"Nonmatching","self","Self","Self",671,0.671,1
3,1,20,"Nonmatching","mother","Mother","Close",645,0.645,1
3,1,21,"Matching","stranger","Stranger","Stranger",648,0.648,1
3,1,22,"Matching","self","Self","Self",903,0.903,1
3,1,23,"Matching","mother","Mother","Close",1043,1.043,1
3,1,24,"Nonmatching","self","Self","Self",573,0.573,1
3,1,25,"Nonmatching","stranger","Stranger","Stranger",475,0.475,1
3,1,26,"Nonmatching","self","Self","Self",555,0.555,1
3,1,27,"Matching","mother","Mother","Close",655,0.655,1
3,1,28,"Nonmatching","self","Self","Self",550,0.55,1
3,1,29,"Matching","mother","Mother","Close",674,0.674,0
3,1,30,"Matching","self","Self","Self",676,0.676,1
3,1,31,"Nonmatching","stranger","Stranger","Stranger",538,0.538,1
3,1,32,"Matching","stranger","Stranger","Stranger",542,0.542,0
3,1,33,"Matching","mother","Mother","Close",856,0.856,1
3,1,34,"Nonmatching","stranger","Stranger","Stranger",570,0.57,1
3,1,35,"Matching","self","Self","Self",647,0.647,1
3,1,36,"Nonmatching","self","Self","Self",617,0.617,1
3,1,37,"Matching","self","Self","Self",796,0.796,1
3,1,38,"Nonmatching","mother","Mother","Close",622,0.622,1
3,1,39,"Matching","self","Self","Self",532,0.532,1
3,1,40,"Matching","self","Self","Self",602,0.602,1
3,1,41,"Matching","stranger","Stranger","Stranger",828,0.828,1
3,1,42,"Nonmatching","self","Self","Self",617,0.617,1
3,1,43,"Matching","self","Self","Self",617,0.617,1
3,1,44,"Nonmatching","mother","Mother","Close",645,0.645,1
3,1,45,"Nonmatching","stranger","Stranger","Stranger",591,0.591,1
3,1,46,"Nonmatching","mother","Mother","Close",775,0.775,0
3,1,47,"Nonmatching","self","Self","Self",1195,1.195,1
3,1,48,"Nonmatching","mother","Mother","Close",615,0.615,1
3,1,49,"Matching","mother","Mother","Close",831,0.831,1
3,1,50,"Nonmatching","mother","Mother","Close",544,0.544,1
3,1,51,"Nonmatching","mother","Mother","Close",662,0.662,1
3,1,52,"Nonmatching","stranger","Stranger","Stranger",593,0.593,1
3,1,53,"Nonmatching","stranger","Stranger","Stranger",579,0.579,1
3,1,54,"Matching","mother","Mother","Close",755,0.755,1
3,1,55,"Nonmatching","mother","Mother","Close",595,0.595,1
3,1,56,"Matching","mother","Mother","Close",735,0.735,1
3,1,57,"Matching","mother","Mother","Close",534,0.534,1
3,1,58,"Nonmatching","self","Self","Self",570,0.57,1
3,1,59,"Nonmatching","mother","Mother","Close",912,0.912,1
3,1,60,"Matching","mother","Mother","Close",736,0.736,1
3,2,61,"Nonmatching","self","Self","Self",737,0.737,1
3,2,62,"Matching","stranger","Stranger","Stranger",699,0.699,1
3,2,63,"Nonmatching","stranger","Stranger","Stranger",709,0.709,1
3,2,64,"Matching","self","Self","Self",894,0.894,1
3,2,65,"Matching","stranger","Stranger","Stranger",546,0.546,1
3,2,66,"Nonmatching","mother","Mother","Close",531,0.531,1
3,2,67,"Nonmatching","self","Self","Self",525,0.525,1
3,2,68,"Matching","self","Self","Self",725,0.725,1
3,2,69,"Nonmatching","mother","Mother","Close",553,0.553,0
3,2,70,"Matching","mother","Mother","Close",851,0.851,1
3,2,71,"Matching","mother","Mother","Close",598,0.598,1
3,2,72,"Nonmatching","stranger","Stranger","Stranger",544,0.544,1
3,2,73,"Nonmatching","stranger","Stranger","Stranger",626,0.626,1
3,2,74,"Nonmatching","stranger","Stranger","Stranger",506,0.506,1
3,2,75,"Matching","self","Self","Self",530,0.53,1
3,2,76,"Matching","self","Self","Self",424,0.424,1
3,2,77,"Nonmatching","self","Self","Self",528,0.528,1
3,2,78,"Nonmatching","self","Self","Self",640,0.64,1
3,2,79,"Nonmatching","mother","Mother","Close",629,0.629,1
3,2,80,"Nonmatching","self","Self","Self",749,0.749,0
3,2,81,"Nonmatching","stranger","Stranger","Stranger",644,0.644,1
3,2,82,"Nonmatching","self","Self","Self",588,0.588,1
3,2,83,"Nonmatching","stranger","Stranger","Stranger",714,0.714,1
3,2,84,"Nonmatching","mother","Mother","Close",704,0.704,1
3,2,85,"Matching","mother","Mother","Close",494,0.494,1
3,2,86,"Matching","mother","Mother","Close",797,0.797,1
3,2,87,"Matching","mother","Mother","Close",459,0.459,1
3,2,88,"Nonmatching","self","Self","Self",533,0.533,1
3,2,89,"Nonmatching","stranger","Stranger","Stranger",479,0.479,1
3,2,90,"Nonmatching","mother","Mother","Close",463,0.463,0
3,2,91,"Nonmatching","mother","Mother","Close",541,0.541,1
3,2,92,"Matching","mother","Mother","Close",689,0.689,1
3,2,93,"Matching","self","Self","Self",549,0.549,1
3,2,94,"Matching","stranger","Stranger","Stranger",930,0.93,1
3,2,95,"Matching","self","Self","Self",599,0.599,1
3,2,96,"Matching","mother","Mother","Close",507,0.507,1
3,2,97,"Nonmatching","mother","Mother","Close",779,0.779,1
3,2,98,"Matching","self","Self","Self",757,0.757,1
3,2,99,"Matching","mother","Mother","Close",495,0.495,1
3,2,100,"Matching","self","Self","Self",421,0.421,1
3,2,101,"Nonmatching","self","Self","Self",534,0.534,1
3,2,102,"Nonmatching","self","Self","Self",620,0.62,1
3,2,103,"Matching","mother","Mother","Close",666,0.666,0
3,2,104,"Nonmatching","mother","Mother","Close",586,0.586,1
3,2,105,"Matching","self","Self","Self",474,0.474,1
3,2,106,"Matching","stranger","Stranger","Stranger",602,0.602,1
3,2,107,"Matching","mother","Mother","Close",512,0.512,1
3,2,108,"Matching","self","Self","Self",419,0.419,1
3,2,109,"Matching","mother","Mother","Close",587,0.587,1
3,2,110,"Nonmatching","mother","Mother","Close",511,0.511,1
3,2,111,"Nonmatching","mother","Mother","Close",966,0.966,0
3,2,112,"Matching","self","Self","Self",584,0.584,1
3,2,113,"Nonmatching","stranger","Stranger","Stranger",548,0.548,1
3,2,114,"Matching","self","Self","Self",436,0.436,1
3,2,115,"Nonmatching","self","Self","Self",460,0.46,1
3,2,116,"Nonmatching","stranger","Stranger","Stranger",465,0.465,1
3,2,117,"Matching","mother","Mother","Close",399,0.399,1
3,2,118,"Matching","self","Self","Self",499,0.499,1
3,2,119,"Nonmatching","stranger","Stranger","Stranger",475,0.475,1
3,2,120,"Matching","mother","Mother","Close",711,0.711,1
3,3,121,"Nonmatching","stranger","Stranger","Stranger",644,0.644,1
3,3,122,"Matching","mother","Mother","Close",456,0.456,1
3,3,123,"Matching","mother","Mother","Close",371,0.371,1
3,3,124,"Nonmatching","self","Self","Self",453,0.453,1
3,3,125,"Matching","mother","Mother","Close",351,0.351,1
3,3,126,"Matching","self","Self","Self",419,0.419,1
3,3,127,"Nonmatching","self","Self","Self",479,0.479,1
3,3,128,"Matching","mother","Mother","Close",460,0.46,0
3,3,129,"Matching","stranger","Stranger","Stranger",544,0.544,0
3,3,130,"Matching","self","Self","Self",564,0.564,1
3,3,131,"Nonmatching","mother","Mother","Close",428,0.428,0
3,3,132,"Matching","self","Self","Self",846,0.846,1
3,3,133,"Nonmatching","self","Self","Self",598,0.598,1
3,3,134,"Matching","mother","Mother","Close",570,0.57,1
3,3,135,"Matching","self","Self","Self",449,0.449,1
3,3,136,"Matching","stranger","Stranger","Stranger",381,0.381,0
3,3,137,"Nonmatching","stranger","Stranger","Stranger",578,0.578,1
3,3,138,"Nonmatching","stranger","Stranger","Stranger",580,0.58,1
3,3,139,"Matching","mother","Mother","Close",472,0.472,1
3,3,140,"Nonmatching","stranger","Stranger","Stranger",648,0.648,1
3,3,141,"Nonmatching","stranger","Stranger","Stranger",374,0.374,1
3,3,142,"Matching","mother","Mother","Close",615,0.615,0
3,3,143,"Nonmatching","mother","Mother","Close",579,0.579,1
3,3,144,"Matching","self","Self","Self",429,0.429,1
3,3,145,"Nonmatching","self","Self","Self",473,0.473,1
3,3,146,"Nonmatching","self","Self","Self",527,0.527,1
3,3,147,"Matching","mother","Mother","Close",617,0.617,1
3,3,148,"Nonmatching","mother","Mother","Close",439,0.439,1
3,3,149,"Nonmatching","stranger","Stranger","Stranger",627,0.627,0
3,3,150,"Nonmatching","stranger","Stranger","Stranger",460,0.46,1
3,3,151,"Matching","self","Self","Self",786,0.786,1
3,3,153,"Matching","self","Self","Self",653,0.653,0
3,3,154,"Nonmatching","stranger","Stranger","Stranger",575,0.575,1
3,3,155,"Matching","self","Self","Self",691,0.691,1
3,3,156,"Matching","mother","Mother","Close",391,0.391,1
3,3,157,"Nonmatching","mother","Mother","Close",526,0.526,1
3,3,158,"Nonmatching","mother","Mother","Close",482,0.482,1
3,3,159,"Matching","mother","Mother","Close",490,0.49,1
3,3,160,"Nonmatching","stranger","Stranger","Stranger",740,0.74,1
3,3,161,"Matching","stranger","Stranger","Stranger",524,0.524,1
3,3,162,"Nonmatching","mother","Mother","Close",624,0.624,1
3,3,163,"Matching","self","Self","Self",532,0.532,1
3,3,164,"Nonmatching","self","Self","Self",507,0.507,1
3,3,165,"Nonmatching","mother","Mother","Close",641,0.641,1
3,3,166,"Nonmatching","self","Self","Self",555,0.555,1
3,3,167,"Matching","self","Self","Self",734,0.734,1
3,3,168,"Nonmatching","mother","Mother","Close",744,0.744,1
3,3,169,"Nonmatching","stranger","Stranger","Stranger",1080,1.08,1
3,3,170,"Matching","mother","Mother","Close",764,0.764,0
3,3,171,"Matching","self","Self","Self",559,0.559,1
3,3,172,"Matching","self","Self","Self",465,0.465,1
3,3,173,"Matching","stranger","Stranger","Stranger",999,0.999,1
3,3,174,"Nonmatching","self","Self","Self",527,0.527,1
3,3,175,"Nonmatching","self","Self","Self",529,0.529,1
3,3,176,"Matching","mother","Mother","Close",569,0.569,1
3,3,177,"Nonmatching","self","Self","Self",631,0.631,1
3,3,178,"Matching","self","Self","Self",585,0.585,1
3,3,179,"Matching","mother","Mother","Close",512,0.512,1
3,3,180,"Nonmatching","mother","Mother","Close",694,0.694,1
3,4,181,"Nonmatching","mother","Mother","Close",633,0.633,1
3,4,182,"Matching","mother","Mother","Close",376,0.376,1
3,4,183,"Nonmatching","self","Self","Self",580,0.58,1
3,4,184,"Nonmatching","stranger","Stranger","Stranger",518,0.518,1
3,4,185,"Nonmatching","self","Self","Self",498,0.498,1
3,4,186,"Matching","stranger","Stranger","Stranger",584,0.584,0
3,4,187,"Nonmatching","mother","Mother","Close",482,0.482,0
3,4,188,"Matching","mother","Mother","Close",674,0.674,1
3,4,189,"Matching","self","Self","Self",445,0.445,1
3,4,190,"Matching","mother","Mother","Close",523,0.523,0
3,4,191,"Nonmatching","self","Self","Self",859,0.859,1
3,4,192,"Nonmatching","stranger","Stranger","Stranger",582,0.582,1
3,4,193,"Nonmatching","stranger","Stranger","Stranger",488,0.488,1
3,4,194,"Nonmatching","self","Self","Self",622,0.622,1
3,4,195,"Nonmatching","self","Self","Self",546,0.546,1
3,4,196,"Matching","mother","Mother","Close",461,0.461,1
3,4,197,"Nonmatching","mother","Mother","Close",513,0.513,1
3,4,198,"Matching","mother","Mother","Close",463,0.463,1
3,4,199,"Nonmatching","mother","Mother","Close",457,0.457,1
3,4,200,"Matching","mother","Mother","Close",577,0.577,0
3,4,201,"Matching","self","Self","Self",571,0.571,1
3,4,202,"Nonmatching","stranger","Stranger","Stranger",553,0.553,1
3,4,203,"Matching","mother","Mother","Close",443,0.443,1
3,4,204,"Nonmatching","self","Self","Self",502,0.502,1
3,4,205,"Nonmatching","mother","Mother","Close",780,0.78,1
3,4,206,"Nonmatching","stranger","Stranger","Stranger",488,0.488,1
3,4,207,"Matching","mother","Mother","Close",495,0.495,1
3,4,208,"Nonmatching","mother","Mother","Close",479,0.479,1
3,4,209,"Nonmatching","stranger","Stranger","Stranger",743,0.743,1
3,4,210,"Matching","self","Self","Self",595,0.595,1
3,4,211,"Nonmatching","stranger","Stranger","Stranger",484,0.484,1
3,4,212,"Nonmatching","stranger","Stranger","Stranger",468,0.468,1
3,4,213,"Matching","self","Self","Self",450,0.45,1
3,4,214,"Nonmatching","stranger","Stranger","Stranger",458,0.458,1
3,4,215,"Matching","self","Self","Self",388,0.388,1
3,4,216,"Matching","mother","Mother","Close",696,0.696,1
3,4,217,"Matching","mother","Mother","Close",360,0.36,1
3,4,218,"Matching","mother","Mother","Close",391,0.391,1
3,4,219,"Nonmatching","self","Self","Self",443,0.443,1
3,4,220,"Matching","stranger","Stranger","Stranger",685,0.685,1
3,4,221,"Matching","mother","Mother","Close",813,0.813,1
3,4,222,"Matching","self","Self","Self",488,0.488,1
3,4,223,"Matching","self","Self","Self",410,0.41,1
3,4,224,"Nonmatching","mother","Mother","Close",416,0.416,1
3,4,225,"Matching","stranger","Stranger","Stranger",511,0.511,1
3,4,226,"Matching","mother","Mother","Close",517,0.517,1
3,4,227,"Nonmatching","self","Self","Self",581,0.581,1
3,4,228,"Matching","self","Self","Self",735,0.735,0
3,4,229,"Nonmatching","stranger","Stranger","Stranger",545,0.545,1
3,4,230,"Matching","self","Self","Self",815,0.815,1
3,4,231,"Nonmatching","mother","Mother","Close",719,0.719,1
3,4,232,"Nonmatching","self","Self","Self",551,0.551,1
3,4,233,"Nonmatching","mother","Mother","Close",584,0.584,1
3,4,234,"Matching","self","Self","Self",518,0.518,1
3,4,235,"Matching","self","Self","Self",506,0.506,1
3,4,236,"Matching","self","Self","Self",423,0.423,1
3,4,237,"Nonmatching","self","Self","Self",565,0.565,1
3,4,238,"Nonmatching","mother","Mother","Close",615,0.615,0
3,4,239,"Matching","stranger","Stranger","Stranger",663,0.663,1
3,4,240,"Matching","self","Self","Self",888,0.888,1
3,5,241,"Matching","mother","Mother","Close",676,0.676,1
3,5,242,"Matching","mother","Mother","Close",400,0.4,1
3,5,243,"Nonmatching","self","Self","Self",588,0.588,1
3,5,244,"Matching","self","Self","Self",383,0.383,1
3,5,245,"Nonmatching","mother","Mother","Close",557,0.557,1
3,5,246,"Nonmatching","stranger","Stranger","Stranger",589,0.589,1
3,5,247,"Nonmatching","mother","Mother","Close",601,0.601,1
3,5,248,"Matching","self","Self","Self",576,0.576,1
3,5,249,"Nonmatching","stranger","Stranger","Stranger",430,0.43,1
3,5,250,"Nonmatching","self","Self","Self",518,0.518,1
3,5,251,"Nonmatching","self","Self","Self",820,0.82,1
3,5,252,"Nonmatching","mother","Mother","Close",545,0.545,1
3,5,253,"Matching","self","Self","Self",645,0.645,1
3,5,254,"Matching","self","Self","Self",587,0.587,1
3,5,255,"Matching","self","Self","Self",463,0.463,1
3,5,256,"Matching","mother","Mother","Close",639,0.639,1
3,5,257,"Nonmatching","mother","Mother","Close",621,0.621,1
3,5,258,"Nonmatching","mother","Mother","Close",741,0.741,1
3,5,259,"Nonmatching","self","Self","Self",660,0.66,1
3,5,260,"Matching","mother","Mother","Close",556,0.556,1
3,5,261,"Matching","mother","Mother","Close",468,0.468,1
3,5,262,"Matching","mother","Mother","Close",414,0.414,1
3,5,263,"Matching","self","Self","Self",417,0.417,1
3,5,264,"Matching","self","Self","Self",557,0.557,1
3,5,265,"Nonmatching","self","Self","Self",545,0.545,1
3,5,266,"Matching","self","Self","Self",1109,1.109,0
3,5,267,"Matching","self","Self","Self",510,0.51,1
3,5,268,"Nonmatching","mother","Mother","Close",456,0.456,1
3,5,269,"Nonmatching","self","Self","Self",622,0.622,1
3,5,270,"Nonmatching","stranger","Stranger","Stranger",716,0.716,1
3,5,271,"Nonmatching","stranger","Stranger","Stranger",514,0.514,1
3,5,272,"Nonmatching","stranger","Stranger","Stranger",630,0.63,1
3,5,273,"Matching","mother","Mother","Close",682,0.682,1
3,5,274,"Matching","mother","Mother","Close",535,0.535,1
3,5,275,"Nonmatching","stranger","Stranger","Stranger",511,0.511,1
3,5,276,"Matching","mother","Mother","Close",505,0.505,0
3,5,277,"Matching","stranger","Stranger","Stranger",647,0.647,1
3,5,278,"Nonmatching","stranger","Stranger","Stranger",672,0.672,1
3,5,279,"Matching","self","Self","Self",568,0.568,1
3,5,280,"Matching","mother","Mother","Close",576,0.576,1
3,5,281,"Nonmatching","self","Self","Self",765,0.765,1
3,5,282,"Nonmatching","stranger","Stranger","Stranger",779,0.779,1
3,5,283,"Matching","self","Self","Self",539,0.539,1
3,5,284,"Nonmatching","stranger","Stranger","Stranger",423,0.423,1
3,5,285,"Matching","mother","Mother","Close",429,0.429,1
3,5,286,"Nonmatching","mother","Mother","Close",485,0.485,0
3,5,287,"Matching","self","Self","Self",797,0.797,1
3,5,288,"Matching","stranger","Stranger","Stranger",566,0.566,1
3,5,289,"Matching","self","Self","Self",600,0.6,0
3,5,290,"Nonmatching","mother","Mother","Close",576,0.576,1
3,5,291,"Matching","stranger","Stranger","Stranger",448,0.448,0
3,5,292,"Nonmatching","self","Self","Self",994,0.994,1
3,5,293,"Nonmatching","mother","Mother","Close",867,0.867,1
3,5,294,"Nonmatching","self","Self","Self",537,0.537,1
3,5,295,"Matching","mother","Mother","Close",417,0.417,1
3,5,296,"Nonmatching","stranger","Stranger","Stranger",686,0.686,1
3,5,297,"Nonmatching","self","Self","Self",788,0.788,1
3,5,298,"Nonmatching","mother","Mother","Close",670,0.67,0
3,5,299,"Matching","stranger","Stranger","Stranger",1088,1.088,1
3,5,300,"Matching","mother","Mother","Close",588,0.588,1
3,6,301,"Matching","mother","Mother","Close",561,0.561,1
3,6,302,"Nonmatching","stranger","Stranger","Stranger",503,0.503,1
3,6,303,"Matching","mother","Mother","Close",487,0.487,1
3,6,304,"Nonmatching","stranger","Stranger","Stranger",429,0.429,1
3,6,305,"Nonmatching","stranger","Stranger","Stranger",704,0.704,1
3,6,306,"Nonmatching","mother","Mother","Close",678,0.678,1
3,6,307,"Matching","self","Self","Self",494,0.494,1
3,6,308,"Nonmatching","stranger","Stranger","Stranger",507,0.507,1
3,6,309,"Matching","self","Self","Self",795,0.795,1
3,6,310,"Matching","mother","Mother","Close",667,0.667,1
3,6,311,"Nonmatching","self","Self","Self",851,0.851,1
3,6,312,"Matching","mother","Mother","Close",523,0.523,1
3,6,313,"Nonmatching","self","Self","Self",483,0.483,1
3,6,314,"Nonmatching","self","Self","Self",561,0.561,1
3,6,315,"Matching","self","Self","Self",542,0.542,1
3,6,316,"Nonmatching","mother","Mother","Close",478,0.478,1
3,6,317,"Nonmatching","stranger","Stranger","Stranger",526,0.526,1
3,6,318,"Matching","stranger","Stranger","Stranger",860,0.86,1
3,6,319,"Matching","self","Self","Self",552,0.552,1
3,6,320,"Nonmatching","self","Self","Self",667,0.667,1
3,6,321,"Matching","stranger","Stranger","Stranger",467,0.467,0
3,6,322,"Matching","stranger","Stranger","Stranger",552,0.552,1
3,6,323,"Matching","self","Self","Self",484,0.484,1
3,6,324,"Nonmatching","stranger","Stranger","Stranger",566,0.566,1
3,6,325,"Nonmatching","self","Self","Self",708,0.708,1
3,6,326,"Nonmatching","mother","Mother","Close",546,0.546,1
3,6,327,"Nonmatching","self","Self","Self",616,0.616,0
3,6,328,"Nonmatching","stranger","Stranger","Stranger",622,0.622,1
3,6,329,"Matching","mother","Mother","Close",698,0.698,1
3,6,330,"Nonmatching","mother","Mother","Close",601,0.601,1
3,6,331,"Matching","mother","Mother","Close",683,0.683,1
3,6,332,"Matching","mother","Mother","Close",515,0.515,1
3,6,333,"Nonmatching","stranger","Stranger","Stranger",479,0.479,1
3,6,334,"Nonmatching","mother","Mother","Close",666,0.666,1
3,6,335,"Matching","mother","Mother","Close",490,0.49,1
3,6,336,"Matching","mother","Mother","Close",556,0.556,1
3,6,337,"Matching","self","Self","Self",623,0.623,1
3,6,338,"Matching","self","Self","Self",815,0.815,1
3,6,339,"Nonmatching","mother","Mother","Close",535,0.535,1
3,6,340,"Matching","self","Self","Self",557,0.557,1
3,6,341,"Nonmatching","mother","Mother","Close",563,0.563,1
3,6,342,"Nonmatching","self","Self","Self",691,0.691,1
3,6,343,"Matching","self","Self","Self",499,0.499,1
3,6,344,"Nonmatching","stranger","Stranger","Stranger",472,0.472,1
3,6,345,"Nonmatching","self","Self","Self",658,0.658,1
3,6,346,"Nonmatching","self","Self","Self",830,0.83,1
3,6,347,"Nonmatching","self","Self","Self",578,0.578,1
3,6,348,"Matching","self","Self","Self",578,0.578,1
3,6,349,"Matching","self","Self","Self",441,0.441,1
3,6,350,"Matching","stranger","Stranger","Stranger",611,0.611,1
3,6,351,"Matching","self","Self","Self",626,0.626,1
3,6,352,"Matching","mother","Mother","Close",590,0.59,1
3,6,353,"Matching","mother","Mother","Close",882,0.882,1
3,6,354,"Matching","mother","Mother","Close",408,0.408,1
3,6,355,"Matching","mother","Mother","Close",396,0.396,1
3,6,356,"Nonmatching","stranger","Stranger","Stranger",518,0.518,1
3,6,357,"Nonmatching","mother","Mother","Close",496,0.496,0
3,6,358,"Matching","self","Self","Self",627,0.627,1
3,6,359,"Nonmatching","mother","Mother","Close",1111,1.111,1
3,6,360,"Nonmatching","mother","Mother","Close",787,0.787,1
4,1,1,"Nonmatching","self","Self","Self",954,0.954,1
4,1,2,"Matching","self","Self","Self",854,0.854,0
4,1,3,"Nonmatching","stranger","Stranger","Stranger",662,0.662,1
4,1,4,"Matching","mother","Mother","Close",860,0.86,1
4,1,5,"Nonmatching","mother","Mother","Close",662,0.662,1
4,1,6,"Matching","mother","Mother","Close",594,0.594,1
4,1,7,"Matching","stranger","Stranger","Stranger",776,0.776,1
4,1,8,"Matching","self","Self","Self",643,0.643,1
4,1,9,"Matching","self","Self","Self",533,0.533,1
4,1,10,"Matching","self","Self","Self",501,0.501,1
4,1,11,"Nonmatching","mother","Mother","Close",629,0.629,0
4,1,12,"Matching","mother","Mother","Close",801,0.801,1
4,1,13,"Matching","self","Self","Self",557,0.557,1
4,1,14,"Nonmatching","mother","Mother","Close",707,0.707,1
4,1,15,"Matching","self","Self","Self",529,0.529,1
4,1,16,"Matching","self","Self","Self",517,0.517,1
4,1,17,"Nonmatching","mother","Mother","Close",916,0.916,1
4,1,18,"Nonmatching","stranger","Stranger","Stranger",696,0.696,0
4,1,19,"Matching","mother","Mother","Close",981,0.981,1
4,1,20,"Matching","self","Self","Self",529,0.529,1
4,1,21,"Matching","mother","Mother","Close",1035,1.035,1
4,1,22,"Nonmatching","self","Self","Self",663,0.663,1
4,1,23,"Matching","mother","Mother","Close",1009,1.009,1
4,1,24,"Nonmatching","mother","Mother","Close",657,0.657,1
4,1,25,"Matching","mother","Mother","Close",779,0.779,1
4,1,26,"Nonmatching","self","Self","Self",754,0.754,1
4,1,27,"Nonmatching","stranger","Stranger","Stranger",826,0.826,0
4,1,28,"Nonmatching","self","Self","Self",1168,1.168,1
4,1,29,"Nonmatching","self","Self","Self",902,0.902,1
4,1,30,"Nonmatching","mother","Mother","Close",1132,1.132,1
4,1,31,"Matching","self","Self","Self",976,0.976,1
4,1,32,"Matching","mother","Mother","Close",1084,1.084,1
4,1,33,"Matching","self","Self","Self",836,0.836,1
4,1,34,"Matching","stranger","Stranger","Stranger",911,0.911,1
4,1,35,"Nonmatching","stranger","Stranger","Stranger",767,0.767,1
4,1,36,"Nonmatching","stranger","Stranger","Stranger",837,0.837,1
4,1,37,"Matching","stranger","Stranger","Stranger",1031,1.031,1
4,1,38,"Matching","mother","Mother","Close",1237,1.237,1
4,1,39,"Nonmatching","stranger","Stranger","Stranger",756,0.756,1
4,1,40,"Nonmatching","mother","Mother","Close",850,0.85,1
4,1,41,"Nonmatching","self","Self","Self",1082,1.082,1
4,1,42,"Matching","stranger","Stranger","Stranger",830,0.83,1
4,1,43,"Nonmatching","self","Self","Self",829,0.829,1
4,1,44,"Matching","mother","Mother","Close",1013,1.013,1
4,1,45,"Nonmatching","self","Self","Self",1001,1.001,1
4,1,46,"Matching","mother","Mother","Close",993,0.993,1
4,1,47,"Matching","mother","Mother","Close",615,0.615,1
4,1,48,"Matching","self","Self","Self",533,0.533,1
4,1,49,"Nonmatching","stranger","Stranger","Stranger",761,0.761,1
4,1,50,"Nonmatching","mother","Mother","Close",1153,1.153,1
4,1,51,"Nonmatching","mother","Mother","Close",761,0.761,1
4,1,52,"Nonmatching","stranger","Stranger","Stranger",910,0.91,1
4,1,53,"Nonmatching","stranger","Stranger","Stranger",858,0.858,1
4,1,54,"Nonmatching","self","Self","Self",696,0.696,1
4,1,55,"Nonmatching","mother","Mother","Close",800,0.8,1
4,1,56,"Matching","mother","Mother","Close",826,0.826,1
4,1,57,"Matching","self","Self","Self",656,0.656,1
4,1,58,"Matching","self","Self","Self",924,0.924,1
4,1,59,"Nonmatching","stranger","Stranger","Stranger",861,0.861,1
4,1,60,"Nonmatching","self","Self","Self",765,0.765,1
4,2,62,"Matching","self","Self","Self",813,0.813,1
4,2,63,"Nonmatching","stranger","Stranger","Stranger",875,0.875,1
4,2,65,"Nonmatching","self","Self","Self",805,0.805,1
4,2,66,"Matching","stranger","Stranger","Stranger",673,0.673,1
4,2,67,"Nonmatching","self","Self","Self",673,0.673,1
4,2,68,"Nonmatching","self","Self","Self",693,0.693,1
4,2,69,"Matching","mother","Mother","Close",927,0.927,1
4,2,70,"Nonmatching","stranger","Stranger","Stranger",743,0.743,1
4,2,71,"Matching","mother","Mother","Close",824,0.824,1
4,2,72,"Matching","mother","Mother","Close",585,0.585,1
4,2,73,"Matching","mother","Mother","Close",483,0.483,1
4,2,74,"Nonmatching","self","Self","Self",581,0.581,1
4,2,75,"Matching","self","Self","Self",835,0.835,1
4,2,76,"Matching","mother","Mother","Close",763,0.763,1
4,2,77,"Nonmatching","mother","Mother","Close",631,0.631,1
4,2,78,"Matching","mother","Mother","Close",721,0.721,1
4,2,79,"Matching","mother","Mother","Close",613,0.613,1
4,2,80,"Nonmatching","stranger","Stranger","Stranger",808,0.808,1
4,2,81,"Matching","self","Self","Self",488,0.488,1
4,2,82,"Matching","self","Self","Self",480,0.48,1
4,2,83,"Matching","self","Self","Self",526,0.526,1
4,2,84,"Nonmatching","stranger","Stranger","Stranger",676,0.676,1
4,2,85,"Nonmatching","stranger","Stranger","Stranger",824,0.824,1
4,2,86,"Nonmatching","stranger","Stranger","Stranger",754,0.754,1
4,2,87,"Matching","self","Self","Self",648,0.648,1
4,2,88,"Nonmatching","mother","Mother","Close",820,0.82,1
4,2,89,"Nonmatching","self","Self","Self",795,0.795,1
4,2,90,"Nonmatching","mother","Mother","Close",833,0.833,1
4,2,91,"Nonmatching","self","Self","Self",663,0.663,1
4,2,92,"Nonmatching","stranger","Stranger","Stranger",799,0.799,1
4,2,93,"Matching","mother","Mother","Close",964,0.964,1
4,2,94,"Matching","self","Self","Self",544,0.544,1
4,2,95,"Nonmatching","mother","Mother","Close",660,0.66,1
4,2,96,"Nonmatching","mother","Mother","Close",706,0.706,1
4,2,97,"Matching","stranger","Stranger","Stranger",772,0.772,1
4,2,98,"Matching","self","Self","Self",543,0.543,1
4,2,99,"Nonmatching","stranger","Stranger","Stranger",859,0.859,1
4,2,100,"Matching","self","Self","Self",495,0.495,1
4,2,101,"Nonmatching","self","Self","Self",603,0.603,1
4,2,102,"Matching","mother","Mother","Close",639,0.639,1
4,2,103,"Nonmatching","mother","Mother","Close",605,0.605,1
4,2,104,"Nonmatching","self","Self","Self",963,0.963,1
4,2,105,"Matching","self","Self","Self",581,0.581,1
4,2,106,"Matching","mother","Mother","Close",729,0.729,1
4,2,107,"Matching","stranger","Stranger","Stranger",1000,1,1
4,2,108,"Nonmatching","mother","Mother","Close",698,0.698,1
4,2,109,"Matching","mother","Mother","Close",964,0.964,1
4,2,110,"Matching","stranger","Stranger","Stranger",916,0.916,1
4,2,111,"Matching","self","Self","Self",542,0.542,1
4,2,112,"Matching","mother","Mother","Close",966,0.966,1
4,2,113,"Nonmatching","self","Self","Self",667,0.667,1
4,2,114,"Nonmatching","stranger","Stranger","Stranger",913,0.913,1
4,2,115,"Nonmatching","self","Self","Self",1137,1.137,1
4,2,116,"Nonmatching","mother","Mother","Close",694,0.694,1
4,2,117,"Nonmatching","mother","Mother","Close",728,0.728,1
4,2,118,"Nonmatching","mother","Mother","Close",932,0.932,1
4,2,119,"Matching","self","Self","Self",526,0.526,1
4,2,120,"Matching","mother","Mother","Close",766,0.766,1
4,3,121,"Nonmatching","stranger","Stranger","Stranger",971,0.971,1
4,3,122,"Nonmatching","mother","Mother","Close",843,0.843,1
4,3,123,"Matching","self","Self","Self",565,0.565,1
4,3,124,"Matching","self","Self","Self",503,0.503,1
4,3,125,"Nonmatching","stranger","Stranger","Stranger",719,0.719,1
4,3,126,"Nonmatching","stranger","Stranger","Stranger",997,0.997,1
4,3,127,"Nonmatching","mother","Mother","Close",699,0.699,1
4,3,128,"Matching","mother","Mother","Close",767,0.767,1
4,3,129,"Matching","self","Self","Self",493,0.493,1
4,3,130,"Matching","mother","Mother","Close",845,0.845,1
4,3,131,"Nonmatching","self","Self","Self",637,0.637,1
4,3,132,"Matching","mother","Mother","Close",639,0.639,1
4,3,133,"Nonmatching","mother","Mother","Close",773,0.773,1
4,3,134,"Matching","self","Self","Self",509,0.509,1
4,3,135,"Matching","stranger","Stranger","Stranger",665,0.665,1
4,3,136,"Matching","mother","Mother","Close",865,0.865,1
4,3,137,"Nonmatching","stranger","Stranger","Stranger",863,0.863,1
4,3,138,"Matching","mother","Mother","Close",748,0.748,1
4,3,139,"Matching","self","Self","Self",566,0.566,1
4,3,140,"Nonmatching","mother","Mother","Close",654,0.654,1
4,3,141,"Nonmatching","mother","Mother","Close",782,0.782,1
4,3,142,"Nonmatching","stranger","Stranger","Stranger",654,0.654,1
4,3,143,"Matching","stranger","Stranger","Stranger",670,0.67,1
4,3,144,"Matching","self","Self","Self",532,0.532,1
4,3,145,"Nonmatching","self","Self","Self",646,0.646,1
4,3,146,"Nonmatching","mother","Mother","Close",802,0.802,1
4,3,147,"Nonmatching","stranger","Stranger","Stranger",625,0.625,1
4,3,148,"Matching","mother","Mother","Close",781,0.781,1
4,3,149,"Nonmatching","self","Self","Self",769,0.769,1
4,3,150,"Nonmatching","self","Self","Self",604,0.604,1
4,3,151,"Nonmatching","self","Self","Self",740,0.74,1
4,3,152,"Matching","mother","Mother","Close",914,0.914,1
4,3,153,"Matching","mother","Mother","Close",596,0.596,1
4,3,154,"Nonmatching","stranger","Stranger","Stranger",616,0.616,1
4,3,155,"Matching","self","Self","Self",534,0.534,1
4,3,156,"Matching","mother","Mother","Close",695,0.695,1
4,3,157,"Matching","self","Self","Self",511,0.511,1
4,3,158,"Nonmatching","self","Self","Self",623,0.623,1
4,3,159,"Nonmatching","stranger","Stranger","Stranger",685,0.685,1
4,3,160,"Nonmatching","self","Self","Self",611,0.611,1
4,3,161,"Matching","mother","Mother","Close",655,0.655,1
4,3,162,"Nonmatching","mother","Mother","Close",1069,1.069,1
4,3,163,"Nonmatching","mother","Mother","Close",755,0.755,1
4,3,164,"Nonmatching","mother","Mother","Close",732,0.732,1
4,3,165,"Nonmatching","self","Self","Self",612,0.612,1
4,3,166,"Matching","mother","Mother","Close",716,0.716,1
4,3,167,"Matching","mother","Mother","Close",590,0.59,1
4,3,168,"Nonmatching","self","Self","Self",662,0.662,1
4,3,169,"Matching","self","Self","Self",540,0.54,1
4,3,170,"Matching","self","Self","Self",521,0.521,1
4,3,171,"Matching","self","Self","Self",645,0.645,1
4,3,172,"Matching","self","Self","Self",535,0.535,1
4,3,173,"Nonmatching","self","Self","Self",631,0.631,1
4,3,174,"Matching","stranger","Stranger","Stranger",738,0.738,1
4,3,175,"Matching","self","Self","Self",558,0.558,1
4,3,176,"Nonmatching","mother","Mother","Close",784,0.784,1
4,3,177,"Nonmatching","stranger","Stranger","Stranger",738,0.738,1
4,3,178,"Nonmatching","stranger","Stranger","Stranger",832,0.832,1
4,3,179,"Matching","stranger","Stranger","Stranger",734,0.734,1
4,3,180,"Matching","mother","Mother","Close",714,0.714,1
4,4,181,"Matching","self","Self","Self",561,0.561,1
4,4,182,"Nonmatching","stranger","Stranger","Stranger",695,0.695,1
4,4,183,"Nonmatching","mother","Mother","Close",599,0.599,1
4,4,184,"Matching","self","Self","Self",607,0.607,1
4,4,185,"Matching","self","Self","Self",443,0.443,1
4,4,186,"Nonmatching","mother","Mother","Close",734,0.734,1
4,4,187,"Nonmatching","stranger","Stranger","Stranger",725,0.725,1
4,4,188,"Matching","mother","Mother","Close",771,0.771,1
4,4,189,"Nonmatching","self","Self","Self",589,0.589,1
4,4,190,"Nonmatching","stranger","Stranger","Stranger",815,0.815,1
4,4,191,"Nonmatching","stranger","Stranger","Stranger",759,0.759,1
4,4,192,"Nonmatching","self","Self","Self",615,0.615,1
4,4,193,"Nonmatching","self","Self","Self",565,0.565,1
4,4,194,"Matching","mother","Mother","Close",811,0.811,1
4,4,195,"Nonmatching","stranger","Stranger","Stranger",790,0.79,1
4,4,196,"Nonmatching","mother","Mother","Close",800,0.8,1
4,4,197,"Matching","self","Self","Self",710,0.71,1
4,4,198,"Nonmatching","mother","Mother","Close",862,0.862,1
4,4,199,"Matching","self","Self","Self",554,0.554,1
4,4,200,"Matching","mother","Mother","Close",790,0.79,1
4,4,201,"Matching","self","Self","Self",504,0.504,1
4,4,202,"Matching","mother","Mother","Close",596,0.596,1
4,4,203,"Nonmatching","mother","Mother","Close",740,0.74,1
4,4,204,"Nonmatching","stranger","Stranger","Stranger",895,0.895,1
4,4,205,"Nonmatching","mother","Mother","Close",745,0.745,1
4,4,206,"Nonmatching","self","Self","Self",665,0.665,1
4,4,207,"Matching","mother","Mother","Close",886,0.886,1
4,4,208,"Matching","self","Self","Self",502,0.502,1
4,4,209,"Matching","stranger","Stranger","Stranger",804,0.804,1
4,4,210,"Matching","self","Self","Self",842,0.842,1
4,4,211,"Matching","self","Self","Self",518,0.518,1
4,4,212,"Matching","self","Self","Self",510,0.51,1
4,4,213,"Matching","mother","Mother","Close",717,0.717,1
4,4,214,"Nonmatching","self","Self","Self",657,0.657,1
4,4,215,"Nonmatching","self","Self","Self",667,0.667,1
4,4,216,"Matching","mother","Mother","Close",607,0.607,1
4,4,217,"Matching","mother","Mother","Close",527,0.527,1
4,4,218,"Nonmatching","stranger","Stranger","Stranger",791,0.791,1
4,4,219,"Nonmatching","mother","Mother","Close",887,0.887,1
4,4,220,"Matching","mother","Mother","Close",509,0.509,1
4,4,221,"Nonmatching","mother","Mother","Close",603,0.603,1
4,4,222,"Nonmatching","stranger","Stranger","Stranger",716,0.716,1
4,4,223,"Matching","stranger","Stranger","Stranger",622,0.622,1
4,4,224,"Nonmatching","stranger","Stranger","Stranger",606,0.606,1
4,4,225,"Nonmatching","stranger","Stranger","Stranger",776,0.776,1
4,4,226,"Matching","stranger","Stranger","Stranger",648,0.648,1
4,4,227,"Matching","self","Self","Self",577,0.577,1
4,4,228,"Matching","mother","Mother","Close",809,0.809,1
4,4,229,"Matching","stranger","Stranger","Stranger",573,0.573,1
4,4,230,"Nonmatching","mother","Mother","Close",731,0.731,1
4,4,231,"Nonmatching","self","Self","Self",618,0.618,1
4,4,232,"Matching","self","Self","Self",670,0.67,1
4,4,233,"Matching","self","Self","Self",524,0.524,1
4,4,234,"Nonmatching","self","Self","Self",928,0.928,1
4,4,235,"Nonmatching","mother","Mother","Close",896,0.896,1
4,4,236,"Nonmatching","self","Self","Self",642,0.642,1
4,4,237,"Matching","mother","Mother","Close",726,0.726,1
4,4,238,"Matching","mother","Mother","Close",870,0.87,1
4,4,239,"Matching","mother","Mother","Close",555,0.555,1
4,4,240,"Nonmatching","self","Self","Self",627,0.627,1
4,5,241,"Matching","self","Self","Self",567,0.567,1
4,5,242,"Nonmatching","mother","Mother","Close",673,0.673,1
4,5,243,"Matching","self","Self","Self",499,0.499,1
4,5,244,"Nonmatching","mother","Mother","Close",768,0.768,1
4,5,245,"Nonmatching","stranger","Stranger","Stranger",695,0.695,1
4,5,246,"Nonmatching","stranger","Stranger","Stranger",575,0.575,1
4,5,247,"Matching","stranger","Stranger","Stranger",537,0.537,1
4,5,248,"Nonmatching","self","Self","Self",575,0.575,1
4,5,249,"Matching","mother","Mother","Close",853,0.853,1
4,5,250,"Nonmatching","self","Self","Self",597,0.597,1
4,5,251,"Matching","mother","Mother","Close",663,0.663,1
4,5,252,"Matching","self","Self","Self",513,0.513,1
4,5,253,"Nonmatching","mother","Mother","Close",748,0.748,1
4,5,254,"Nonmatching","mother","Mother","Close",782,0.782,1
4,5,255,"Matching","self","Self","Self",486,0.486,1
4,5,256,"Matching","self","Self","Self",480,0.48,1
4,5,257,"Nonmatching","stranger","Stranger","Stranger",818,0.818,1
4,5,258,"Matching","self","Self","Self",572,0.572,1
4,5,259,"Nonmatching","self","Self","Self",662,0.662,1
4,5,260,"Matching","stranger","Stranger","Stranger",594,0.594,1
4,5,261,"Matching","mother","Mother","Close",564,0.564,1
4,5,262,"Matching","mother","Mother","Close",583,0.583,1
4,5,263,"Nonmatching","stranger","Stranger","Stranger",711,0.711,1
4,5,264,"Nonmatching","self","Self","Self",633,0.633,1
4,5,265,"Nonmatching","self","Self","Self",641,0.641,1
4,5,266,"Matching","mother","Mother","Close",732,0.732,1
4,5,267,"Nonmatching","self","Self","Self",622,0.622,1
4,5,268,"Nonmatching","stranger","Stranger","Stranger",674,0.674,1
4,5,269,"Matching","self","Self","Self",552,0.552,1
4,5,270,"Nonmatching","stranger","Stranger","Stranger",680,0.68,1
4,5,271,"Nonmatching","mother","Mother","Close",851,0.851,1
4,5,272,"Matching","stranger","Stranger","Stranger",701,0.701,1
4,5,273,"Nonmatching","self","Self","Self",1005,1.005,1
4,5,274,"Nonmatching","stranger","Stranger","Stranger",625,0.625,1
4,5,275,"Matching","self","Self","Self",535,0.535,1
4,5,276,"Matching","self","Self","Self",449,0.449,1
4,5,277,"Matching","mother","Mother","Close",503,0.503,1
4,5,278,"Nonmatching","mother","Mother","Close",649,0.649,1
4,5,279,"Matching","mother","Mother","Close",797,0.797,1
4,5,280,"Matching","stranger","Stranger","Stranger",534,0.534,1
4,5,281,"Nonmatching","mother","Mother","Close",696,0.696,1
4,5,282,"Matching","mother","Mother","Close",550,0.55,1
4,5,283,"Nonmatching","stranger","Stranger","Stranger",664,0.664,1
4,5,284,"Matching","self","Self","Self",460,0.46,1
4,5,285,"Matching","mother","Mother","Close",564,0.564,0
4,5,286,"Nonmatching","stranger","Stranger","Stranger",717,0.717,1
4,5,287,"Nonmatching","mother","Mother","Close",723,0.723,1
4,5,288,"Matching","mother","Mother","Close",804,0.804,1
4,5,289,"Nonmatching","mother","Mother","Close",642,0.642,1
4,5,290,"Matching","self","Self","Self",536,0.536,1
4,5,291,"Matching","mother","Mother","Close",702,0.702,1
4,5,292,"Nonmatching","self","Self","Self",666,0.666,1
4,5,293,"Nonmatching","self","Self","Self",988,0.988,1
4,5,294,"Nonmatching","self","Self","Self",710,0.71,1
4,5,295,"Matching","mother","Mother","Close",816,0.816,1
4,5,296,"Matching","self","Self","Self",704,0.704,1
4,5,297,"Nonmatching","mother","Mother","Close",835,0.835,1
4,5,298,"Matching","self","Self","Self",599,0.599,1
4,5,299,"Nonmatching","stranger","Stranger","Stranger",653,0.653,1
4,5,300,"Matching","mother","Mother","Close",591,0.591,1
4,6,301,"Nonmatching","stranger","Stranger","Stranger",845,0.845,1
4,6,302,"Nonmatching","stranger","Stranger","Stranger",552,0.552,1
4,6,303,"Matching","self","Self","Self",475,0.475,1
4,6,304,"Matching","self","Self","Self",449,0.449,1
4,6,305,"Nonmatching","stranger","Stranger","Stranger",737,0.737,1
4,6,306,"Matching","mother","Mother","Close",929,0.929,0
4,6,307,"Matching","self","Self","Self",489,0.489,1
4,6,308,"Nonmatching","stranger","Stranger","Stranger",667,0.667,1
4,6,309,"Matching","mother","Mother","Close",717,0.717,1
4,6,310,"Nonmatching","mother","Mother","Close",685,0.685,1
4,6,311,"Nonmatching","mother","Mother","Close",704,0.704,1
4,6,312,"Matching","mother","Mother","Close",634,0.634,1
4,6,313,"Nonmatching","self","Self","Self",720,0.72,1
4,6,314,"Matching","mother","Mother","Close",802,0.802,1
4,6,315,"Matching","self","Self","Self",510,0.51,1
4,6,316,"Nonmatching","mother","Mother","Close",718,0.718,1
4,6,317,"Matching","self","Self","Self",508,0.508,1
4,6,318,"Matching","self","Self","Self",696,0.696,1
4,6,319,"Nonmatching","mother","Mother","Close",856,0.856,1
4,6,320,"Matching","mother","Mother","Close",719,0.719,1
4,6,321,"Matching","stranger","Stranger","Stranger",781,0.781,1
4,6,322,"Matching","mother","Mother","Close",685,0.685,1
4,6,323,"Nonmatching","stranger","Stranger","Stranger",730,0.73,1
4,6,324,"Matching","self","Self","Self",560,0.56,1
4,6,325,"Nonmatching","self","Self","Self",658,0.658,1
4,6,326,"Matching","self","Self","Self",516,0.516,1
4,6,327,"Nonmatching","stranger","Stranger","Stranger",720,0.72,1
4,6,328,"Matching","self","Self","Self",745,0.745,1
4,6,329,"Nonmatching","stranger","Stranger","Stranger",751,0.751,1
4,6,330,"Nonmatching","self","Self","Self",653,0.653,1
4,6,331,"Nonmatching","self","Self","Self",601,0.601,1
4,6,332,"Nonmatching","mother","Mother","Close",777,0.777,1
4,6,333,"Matching","mother","Mother","Close",511,0.511,1
4,6,334,"Nonmatching","stranger","Stranger","Stranger",683,0.683,1
4,6,335,"Matching","self","Self","Self",685,0.685,1
4,6,336,"Matching","mother","Mother","Close",609,0.609,1
4,6,337,"Nonmatching","self","Self","Self",634,0.634,1
4,6,338,"Nonmatching","self","Self","Self",616,0.616,1
4,6,339,"Nonmatching","stranger","Stranger","Stranger",674,0.674,1
4,6,340,"Nonmatching","self","Self","Self",634,0.634,1
4,6,341,"Matching","mother","Mother","Close",540,0.54,1
4,6,342,"Nonmatching","stranger","Stranger","Stranger",640,0.64,1
4,6,343,"Matching","self","Self","Self",512,0.512,1
4,6,344,"Nonmatching","self","Self","Self",863,0.863,1
4,6,345,"Nonmatching","mother","Mother","Close",853,0.853,1
4,6,346,"Nonmatching","self","Self","Self",876,0.876,1
4,6,347,"Nonmatching","mother","Mother","Close",684,0.684,1
4,6,348,"Nonmatching","mother","Mother","Close",622,0.622,1
4,6,349,"Nonmatching","mother","Mother","Close",564,0.564,1
4,6,350,"Nonmatching","self","Self","Self",588,0.588,1
4,6,351,"Matching","mother","Mother","Close",792,0.792,1
4,6,352,"Matching","stranger","Stranger","Stranger",622,0.622,1
4,6,353,"Matching","stranger","Stranger","Stranger",542,0.542,1
4,6,354,"Matching","mother","Mother","Close",599,0.599,1
4,6,355,"Matching","mother","Mother","Close",745,0.745,1
4,6,356,"Matching","mother","Mother","Close",519,0.519,1
4,6,357,"Matching","self","Self","Self",503,0.503,1
4,6,358,"Matching","self","Self","Self",463,0.463,1
4,6,359,"Matching","stranger","Stranger","Stranger",577,0.577,1
4,6,360,"Nonmatching","mother","Mother","Close",853,0.853,1
5,1,1,"Nonmatching","stranger","Stranger","Stranger",483,0.483,1
5,1,2,"Matching","self","Self","Self",491,0.491,1
5,1,3,"Nonmatching","mother","Mother","Close",617,0.617,1
5,1,4,"Nonmatching","self","Self","Self",565,0.565,1
5,1,5,"Matching","self","Self","Self",463,0.463,1
5,1,6,"Matching","stranger","Stranger","Stranger",417,0.417,0
5,1,7,"Matching","self","Self","Self",419,0.419,1
5,1,8,"Matching","mother","Mother","Close",423,0.423,1
5,1,9,"Nonmatching","self","Self","Self",412,0.412,1
5,1,10,"Matching","mother","Mother","Close",406,0.406,1
5,1,11,"Nonmatching","mother","Mother","Close",384,0.384,1
5,1,12,"Nonmatching","mother","Mother","Close",448,0.448,1
5,1,13,"Matching","mother","Mother","Close",386,0.386,1
5,1,14,"Nonmatching","mother","Mother","Close",412,0.412,1
5,1,15,"Nonmatching","stranger","Stranger","Stranger",556,0.556,1
5,1,16,"Nonmatching","self","Self","Self",419,0.419,1
5,1,17,"Nonmatching","mother","Mother","Close",861,0.861,1
5,1,18,"Matching","self","Self","Self",460,0.46,1
5,1,19,"Matching","self","Self","Self",460,0.46,1
5,1,20,"Nonmatching","mother","Mother","Close",414,0.414,1
5,1,22,"Nonmatching","stranger","Stranger","Stranger",810,0.81,1
5,1,23,"Nonmatching","stranger","Stranger","Stranger",502,0.502,1
5,1,24,"Matching","mother","Mother","Close",664,0.664,1
5,1,25,"Nonmatching","self","Self","Self",446,0.446,1
5,1,26,"Matching","mother","Mother","Close",733,0.733,1
5,1,27,"Nonmatching","stranger","Stranger","Stranger",527,0.527,1
5,1,28,"Matching","mother","Mother","Close",539,0.539,1
5,1,29,"Matching","mother","Mother","Close",427,0.427,1
5,1,30,"Nonmatching","mother","Mother","Close",405,0.405,1
5,1,31,"Matching","self","Self","Self",437,0.437,1
5,1,32,"Nonmatching","mother","Mother","Close",357,0.357,1
5,1,33,"Nonmatching","self","Self","Self",453,0.453,1
5,1,34,"Nonmatching","stranger","Stranger","Stranger",485,0.485,1
5,1,35,"Nonmatching","self","Self","Self",398,0.398,1
5,1,36,"Nonmatching","mother","Mother","Close",411,0.411,1
5,1,37,"Nonmatching","self","Self","Self",387,0.387,1
5,1,38,"Matching","self","Self","Self",409,0.409,1
5,1,39,"Matching","self","Self","Self",401,0.401,1
5,1,40,"Matching","mother","Mother","Close",399,0.399,1
5,1,41,"Matching","stranger","Stranger","Stranger",375,0.375,1
5,1,42,"Matching","mother","Mother","Close",401,0.401,1
5,1,43,"Matching","self","Self","Self",342,0.342,1
5,1,44,"Matching","mother","Mother","Close",298,0.298,1
5,1,45,"Matching","mother","Mother","Close",404,0.404,1
5,1,46,"Matching","stranger","Stranger","Stranger",342,0.342,1
5,1,47,"Matching","self","Self","Self",330,0.33,1
5,1,48,"Matching","stranger","Stranger","Stranger",290,0.29,0
5,1,49,"Matching","self","Self","Self",326,0.326,1
5,1,50,"Matching","self","Self","Self",304,0.304,1
5,1,51,"Nonmatching","stranger","Stranger","Stranger",530,0.53,1
5,1,52,"Nonmatching","stranger","Stranger","Stranger",445,0.445,1
5,1,53,"Matching","self","Self","Self",307,0.307,1
5,1,55,"Matching","mother","Mother","Close",383,0.383,0
5,1,56,"Matching","mother","Mother","Close",351,0.351,1
5,1,57,"Nonmatching","self","Self","Self",326,0.326,0
5,1,58,"Nonmatching","self","Self","Self",442,0.442,1
5,1,59,"Nonmatching","stranger","Stranger","Stranger",446,0.446,1
5,1,60,"Nonmatching","self","Self","Self",304,0.304,1
5,2,61,"Matching","self","Self","Self",333,0.333,1
5,2,62,"Matching","self","Self","Self",407,0.407,1
5,2,63,"Nonmatching","stranger","Stranger","Stranger",355,0.355,1
5,2,64,"Nonmatching","mother","Mother","Close",457,0.457,1
5,2,65,"Matching","mother","Mother","Close",488,0.488,1
5,2,66,"Matching","self","Self","Self",360,0.36,1
5,2,67,"Matching","stranger","Stranger","Stranger",520,0.52,1
5,2,68,"Nonmatching","mother","Mother","Close",438,0.438,1
5,2,69,"Matching","mother","Mother","Close",318,0.318,1
5,2,70,"Nonmatching","stranger","Stranger","Stranger",452,0.452,1
5,2,71,"Nonmatching","self","Self","Self",396,0.396,1
5,2,72,"Nonmatching","stranger","Stranger","Stranger",481,0.481,1
5,2,73,"Matching","mother","Mother","Close",335,0.335,1
5,2,74,"Nonmatching","self","Self","Self",326,0.326,1
5,2,75,"Nonmatching","self","Self","Self",352,0.352,1
5,2,76,"Matching","mother","Mother","Close",346,0.346,1
5,2,77,"Matching","self","Self","Self",450,0.45,1
5,2,78,"Matching","self","Self","Self",364,0.364,1
5,2,79,"Matching","mother","Mother","Close",300,0.3,1
5,2,80,"Nonmatching","mother","Mother","Close",372,0.372,1
5,2,81,"Matching","stranger","Stranger","Stranger",588,0.588,1
5,2,82,"Nonmatching","mother","Mother","Close",383,0.383,1
5,2,83,"Nonmatching","stranger","Stranger","Stranger",429,0.429,1
5,2,84,"Matching","self","Self","Self",349,0.349,1
5,2,85,"Matching","self","Self","Self",303,0.303,1
5,2,86,"Nonmatching","stranger","Stranger","Stranger",381,0.381,1
5,2,87,"Nonmatching","mother","Mother","Close",525,0.525,1
5,2,88,"Matching","stranger","Stranger","Stranger",367,0.367,1
5,2,89,"Matching","mother","Mother","Close",357,0.357,1
5,2,90,"Nonmatching","mother","Mother","Close",383,0.383,1
5,2,91,"Nonmatching","self","Self","Self",364,0.364,1
5,2,92,"Matching","mother","Mother","Close",449,0.449,1
5,2,93,"Matching","mother","Mother","Close",321,0.321,1
5,2,94,"Matching","self","Self","Self",343,0.343,1
5,2,95,"Nonmatching","self","Self","Self",369,0.369,1
5,2,96,"Matching","mother","Mother","Close",355,0.355,1
5,2,97,"Matching","self","Self","Self",377,0.377,1
5,2,98,"Nonmatching","self","Self","Self",369,0.369,1
5,2,99,"Matching","mother","Mother","Close",344,0.344,1
5,2,100,"Nonmatching","stranger","Stranger","Stranger",426,0.426,1
5,2,101,"Matching","mother","Mother","Close",346,0.346,1
5,2,102,"Matching","self","Self","Self",362,0.362,0
5,2,103,"Nonmatching","stranger","Stranger","Stranger",442,0.442,1
5,2,104,"Nonmatching","self","Self","Self",688,0.688,1
5,2,105,"Nonmatching","stranger","Stranger","Stranger",806,0.806,1
5,2,106,"Matching","self","Self","Self",316,0.316,1
5,2,107,"Nonmatching","mother","Mother","Close",424,0.424,1
5,2,108,"Nonmatching","mother","Mother","Close",429,0.429,1
5,2,109,"Nonmatching","self","Self","Self",395,0.395,1
5,2,110,"Nonmatching","mother","Mother","Close",309,0.309,1
5,2,111,"Nonmatching","stranger","Stranger","Stranger",459,0.459,1
5,2,112,"Nonmatching","self","Self","Self",385,0.385,1
5,2,113,"Nonmatching","self","Self","Self",356,0.356,1
5,2,114,"Matching","mother","Mother","Close",508,0.508,1
5,2,115,"Nonmatching","stranger","Stranger","Stranger",370,0.37,1
5,2,116,"Matching","self","Self","Self",363,0.363,1
5,2,117,"Matching","stranger","Stranger","Stranger",299,0.299,0
5,2,118,"Nonmatching","mother","Mother","Close",885,0.885,1
5,2,119,"Matching","mother","Mother","Close",401,0.401,1
5,2,120,"Matching","self","Self","Self",325,0.325,1
5,3,121,"Matching","mother","Mother","Close",313,0.313,1
5,3,122,"Nonmatching","mother","Mother","Close",477,0.477,1
5,3,123,"Matching","self","Self","Self",322,0.322,1
5,3,124,"Nonmatching","self","Self","Self",396,0.396,1
5,3,125,"Matching","self","Self","Self",388,0.388,1
5,3,126,"Nonmatching","stranger","Stranger","Stranger",420,0.42,1
5,3,127,"Nonmatching","mother","Mother","Close",412,0.412,1
5,3,128,"Nonmatching","mother","Mother","Close",372,0.372,1
5,3,129,"Matching","self","Self","Self",294,0.294,1
5,3,130,"Matching","mother","Mother","Close",348,0.348,1
5,3,131,"Nonmatching","stranger","Stranger","Stranger",397,0.397,1
5,3,132,"Matching","mother","Mother","Close",442,0.442,1
5,3,133,"Nonmatching","stranger","Stranger","Stranger",256,0.256,1
5,3,134,"Matching","stranger","Stranger","Stranger",312,0.312,0
5,3,135,"Matching","mother","Mother","Close",468,0.468,1
5,3,136,"Matching","mother","Mother","Close",696,0.696,1
5,3,137,"Nonmatching","stranger","Stranger","Stranger",414,0.414,1
5,3,138,"Matching","self","Self","Self",296,0.296,1
5,3,139,"Matching","mother","Mother","Close",342,0.342,1
5,3,140,"Matching","stranger","Stranger","Stranger",405,0.405,0
5,3,141,"Matching","mother","Mother","Close",599,0.599,1
5,3,142,"Nonmatching","mother","Mother","Close",409,0.409,1
5,3,143,"Matching","stranger","Stranger","Stranger",433,0.433,1
5,3,144,"Nonmatching","self","Self","Self",389,0.389,1
5,3,145,"Matching","self","Self","Self",339,0.339,1
5,3,146,"Matching","mother","Mother","Close",279,0.279,1
5,3,147,"Matching","mother","Mother","Close",323,0.323,1
5,3,148,"Nonmatching","self","Self","Self",349,0.349,1
5,3,149,"Nonmatching","stranger","Stranger","Stranger",498,0.498,1
5,3,150,"Nonmatching","stranger","Stranger","Stranger",376,0.376,1
5,3,152,"Matching","self","Self","Self",485,0.485,1
5,3,153,"Matching","self","Self","Self",391,0.391,1
5,3,154,"Nonmatching","self","Self","Self",317,0.317,1
5,3,155,"Nonmatching","stranger","Stranger","Stranger",431,0.431,1
5,3,156,"Nonmatching","stranger","Stranger","Stranger",593,0.593,1
5,3,157,"Matching","self","Self","Self",442,0.442,1
5,3,158,"Matching","self","Self","Self",428,0.428,1
5,3,159,"Matching","stranger","Stranger","Stranger",330,0.33,0
5,3,160,"Nonmatching","mother","Mother","Close",504,0.504,1
5,3,161,"Matching","self","Self","Self",334,0.334,1
5,3,162,"Nonmatching","stranger","Stranger","Stranger",514,0.514,1
5,3,163,"Nonmatching","mother","Mother","Close",540,0.54,1
5,3,164,"Matching","self","Self","Self",372,0.372,0
5,3,165,"Matching","self","Self","Self",394,0.394,1
5,3,166,"Nonmatching","self","Self","Self",401,0.401,1
5,3,167,"Matching","mother","Mother","Close",537,0.537,1
5,3,168,"Nonmatching","mother","Mother","Close",401,0.401,1
5,3,169,"Nonmatching","self","Self","Self",405,0.405,1
5,3,170,"Matching","mother","Mother","Close",457,0.457,1
5,3,171,"Nonmatching","stranger","Stranger","Stranger",663,0.663,1
5,3,172,"Nonmatching","mother","Mother","Close",530,0.53,1
5,3,173,"Matching","self","Self","Self",432,0.432,0
5,3,174,"Matching","mother","Mother","Close",426,0.426,1
5,3,175,"Nonmatching","mother","Mother","Close",369,0.369,1
5,3,176,"Nonmatching","self","Self","Self",317,0.317,1
5,3,177,"Nonmatching","self","Self","Self",351,0.351,1
5,3,178,"Nonmatching","self","Self","Self",333,0.333,1
5,3,179,"Nonmatching","self","Self","Self",351,0.351,1
5,3,180,"Matching","mother","Mother","Close",369,0.369,1
5,4,181,"Matching","mother","Mother","Close",310,0.31,1
5,4,182,"Matching","stranger","Stranger","Stranger",372,0.372,0
5,4,183,"Nonmatching","stranger","Stranger","Stranger",412,0.412,1
5,4,184,"Matching","self","Self","Self",414,0.414,1
5,4,185,"Nonmatching","self","Self","Self",442,0.442,1
5,4,186,"Nonmatching","stranger","Stranger","Stranger",410,0.41,1
5,4,187,"Matching","mother","Mother","Close",294,0.294,1
5,4,188,"Nonmatching","mother","Mother","Close",310,0.31,1
5,4,189,"Matching","mother","Mother","Close",446,0.446,1
5,4,190,"Nonmatching","mother","Mother","Close",316,0.316,1
5,4,191,"Nonmatching","stranger","Stranger","Stranger",490,0.49,1
5,4,192,"Matching","mother","Mother","Close",336,0.336,0
5,4,193,"Nonmatching","stranger","Stranger","Stranger",348,0.348,1
5,4,194,"Matching","stranger","Stranger","Stranger",462,0.462,0
5,4,195,"Matching","mother","Mother","Close",438,0.438,1
5,4,196,"Matching","self","Self","Self",358,0.358,1
5,4,197,"Matching","mother","Mother","Close",308,0.308,1
5,4,198,"Matching","self","Self","Self",325,0.325,1
5,4,199,"Nonmatching","self","Self","Self",347,0.347,1
5,4,200,"Nonmatching","mother","Mother","Close",387,0.387,1
5,4,201,"Matching","stranger","Stranger","Stranger",389,0.389,1
5,4,202,"Matching","self","Self","Self",331,0.331,1
5,4,204,"Nonmatching","stranger","Stranger","Stranger",515,0.515,0
5,4,205,"Nonmatching","mother","Mother","Close",387,0.387,1
5,4,206,"Matching","mother","Mother","Close",423,0.423,1
5,4,207,"Nonmatching","stranger","Stranger","Stranger",778,0.778,1
5,4,208,"Matching","self","Self","Self",412,0.412,1
5,4,209,"Matching","mother","Mother","Close",306,0.306,1
5,4,210,"Matching","self","Self","Self",290,0.29,1
5,4,211,"Nonmatching","mother","Mother","Close",289,0.289,1
5,4,212,"Nonmatching","self","Self","Self",363,0.363,1
5,4,213,"Nonmatching","mother","Mother","Close",383,0.383,1
5,4,214,"Nonmatching","stranger","Stranger","Stranger",311,0.311,1
5,4,215,"Nonmatching","self","Self","Self",362,0.362,1
5,4,216,"Nonmatching","mother","Mother","Close",336,0.336,1
5,4,217,"Matching","self","Self","Self",338,0.338,0
5,4,218,"Matching","self","Self","Self",360,0.36,1
5,4,219,"Nonmatching","mother","Mother","Close",416,0.416,1
5,4,220,"Nonmatching","stranger","Stranger","Stranger",412,0.412,1
5,4,221,"Nonmatching","self","Self","Self",336,0.336,1
5,4,222,"Nonmatching","self","Self","Self",288,0.288,1
5,4,223,"Nonmatching","self","Self","Self",282,0.282,1
5,4,224,"Nonmatching","stranger","Stranger","Stranger",329,0.329,1
5,4,225,"Matching","self","Self","Self",395,0.395,1
5,4,226,"Nonmatching","stranger","Stranger","Stranger",421,0.421,1
5,4,227,"Matching","mother","Mother","Close",367,0.367,1
5,4,228,"Nonmatching","mother","Mother","Close",313,0.313,1
5,4,229,"Nonmatching","self","Self","Self",335,0.335,1
5,4,230,"Matching","mother","Mother","Close",459,0.459,1
5,4,231,"Matching","self","Self","Self",318,0.318,1
5,4,232,"Matching","mother","Mother","Close",420,0.42,1
5,4,233,"Matching","mother","Mother","Close",355,0.355,1
5,4,234,"Nonmatching","mother","Mother","Close",321,0.321,1
5,4,235,"Matching","stranger","Stranger","Stranger",639,0.639,0
5,4,236,"Matching","self","Self","Self",341,0.341,1
5,4,237,"Nonmatching","self","Self","Self",371,0.371,1
5,4,238,"Matching","self","Self","Self",339,0.339,1
5,4,239,"Nonmatching","self","Self","Self",331,0.331,1
5,4,240,"Matching","self","Self","Self",441,0.441,1
5,5,241,"Nonmatching","stranger","Stranger","Stranger",482,0.482,1
5,5,242,"Nonmatching","mother","Mother","Close",418,0.418,1
5,5,243,"Nonmatching","mother","Mother","Close",346,0.346,1
5,5,244,"Matching","mother","Mother","Close",312,0.312,1
5,5,245,"Nonmatching","mother","Mother","Close",496,0.496,1
5,5,246,"Matching","self","Self","Self",384,0.384,1
5,5,247,"Nonmatching","mother","Mother","Close",410,0.41,1
5,5,248,"Nonmatching","stranger","Stranger","Stranger",405,0.405,1
5,5,249,"Matching","mother","Mother","Close",397,0.397,1
5,5,250,"Nonmatching","mother","Mother","Close",506,0.506,1
5,5,251,"Matching","stranger","Stranger","Stranger",536,0.536,1
5,5,252,"Matching","self","Self","Self",372,0.372,1
5,5,253,"Matching","mother","Mother","Close",338,0.338,1
5,5,254,"Nonmatching","self","Self","Self",476,0.476,1
5,5,255,"Nonmatching","mother","Mother","Close",562,0.562,1
5,5,256,"Matching","self","Self","Self",330,0.33,1
5,5,257,"Nonmatching","self","Self","Self",349,0.349,1
5,5,258,"Nonmatching","mother","Mother","Close",435,0.435,1
5,5,259,"Matching","mother","Mother","Close",603,0.603,1
5,5,260,"Matching","self","Self","Self",451,0.451,1
5,5,261,"Matching","stranger","Stranger","Stranger",429,0.429,1
5,5,262,"Nonmatching","stranger","Stranger","Stranger",313,0.313,1
5,5,263,"Nonmatching","stranger","Stranger","Stranger",361,0.361,1
5,5,264,"Nonmatching","self","Self","Self",367,0.367,1
5,5,265,"Nonmatching","self","Self","Self",528,0.528,0
5,5,266,"Matching","stranger","Stranger","Stranger",588,0.588,1
5,5,267,"Nonmatching","stranger","Stranger","Stranger",502,0.502,1
5,5,268,"Matching","mother","Mother","Close",550,0.55,1
5,5,269,"Nonmatching","self","Self","Self",344,0.344,1
5,5,270,"Nonmatching","stranger","Stranger","Stranger",550,0.55,1
5,5,271,"Matching","self","Self","Self",343,0.343,1
5,5,272,"Matching","mother","Mother","Close",407,0.407,1
5,5,273,"Matching","self","Self","Self",335,0.335,1
5,5,274,"Nonmatching","self","Self","Self",316,0.316,1
5,5,275,"Matching","stranger","Stranger","Stranger",378,0.378,1
5,5,276,"Nonmatching","mother","Mother","Close",388,0.388,1
5,5,277,"Matching","self","Self","Self",358,0.358,1
5,5,278,"Matching","self","Self","Self",346,0.346,1
5,5,279,"Nonmatching","stranger","Stranger","Stranger",376,0.376,1
5,5,280,"Matching","self","Self","Self",336,0.336,1
5,5,281,"Matching","mother","Mother","Close",336,0.336,1
5,5,282,"Matching","mother","Mother","Close",319,0.319,1
5,5,283,"Nonmatching","self","Self","Self",317,0.317,1
5,5,284,"Nonmatching","stranger","Stranger","Stranger",371,0.371,1
5,5,285,"Matching","self","Self","Self",327,0.327,1
5,5,286,"Nonmatching","mother","Mother","Close",403,0.403,1
5,5,287,"Nonmatching","mother","Mother","Close",325,0.325,1
5,5,288,"Nonmatching","stranger","Stranger","Stranger",395,0.395,1
5,5,289,"Matching","self","Self","Self",325,0.325,1
5,5,290,"Nonmatching","stranger","Stranger","Stranger",307,0.307,1
5,5,291,"Nonmatching","self","Self","Self",331,0.331,1
5,5,292,"Matching","self","Self","Self",513,0.513,1
5,5,293,"Matching","mother","Mother","Close",387,0.387,1
5,5,294,"Matching","mother","Mother","Close",359,0.359,1
5,5,295,"Nonmatching","self","Self","Self",291,0.291,0
5,5,296,"Nonmatching","self","Self","Self",451,0.451,1
5,5,297,"Matching","mother","Mother","Close",461,0.461,1
5,5,298,"Matching","mother","Mother","Close",363,0.363,1
5,5,299,"Matching","mother","Mother","Close",292,0.292,1
5,5,300,"Matching","self","Self","Self",488,0.488,1
