"Subject","Block","Trial","Matching","Origin_Identity","English_Identity","Standarlize_Identity","RT_ms","RT_sec","ACC"
1,1,1,"Matching","stranger","Stranger","Stranger",1032,1.032,0
1,1,3,"Nonmatching","self","Self","Self",683,0.683,1
1,1,4,"Nonmatching","mother","Mother","Close",1005,1.005,1
1,1,5,"Matching","self","Self","Self",682,0.682,1
1,1,6,"Nonmatching","self","Self","Self",604,0.604,1
1,1,7,"Matching","self","Self","Self",923,0.923,1
1,1,8,"Nonmatching","mother","Mother","Close",810,0.81,1
1,1,9,"Matching","self","Self","Self",923,0.923,1
1,1,10,"Nonmatching","mother","Mother","Close",806,0.806,1
1,1,11,"Nonmatching","self","Self","Self",658,0.658,1
1,1,12,"Nonmatching","mother","Mother","Close",685,0.685,1
1,1,13,"Nonmatching","stranger","Stranger","Stranger",1005,1.005,1
1,1,15,"Nonmatching","mother","Mother","Close",915,0.915,1
1,1,16,"Nonmatching","stranger","Stranger","Stranger",549,0.549,1
1,1,17,"Nonmatching","mother","Mother","Close",650,0.65,1
1,1,18,"Nonmatching","self","Self","Self",576,0.576,1
1,1,19,"Matching","self","Self","Self",655,0.655,1
1,1,20,"Matching","mother","Mother","Close",1103,1.103,1
1,1,21,"Nonmatching","mother","Mother","Close",631,0.631,1
1,1,22,"Nonmatching","stranger","Stranger","Stranger",885,0.885,1
1,1,23,"Matching","stranger","Stranger","Stranger",890,0.89,1
1,1,24,"Nonmatching","mother","Mother","Close",829,0.829,1
1,1,25,"Matching","stranger","Stranger","Stranger",801,0.801,0
1,1,26,"Matching","self","Self","Self",653,0.653,1
1,1,27,"Nonmatching","self","Self","Self",538,0.538,1
1,1,28,"Nonmatching","stranger","Stranger","Stranger",465,0.465,1
1,1,29,"Nonmatching","stranger","Stranger","Stranger",469,0.469,1
1,1,30,"Matching","self","Self","Self",865,0.865,1
1,1,31,"Matching","stranger","Stranger","Stranger",1140,1.14,1
1,1,32,"Matching","mother","Mother","Close",478,0.478,0
1,1,33,"Nonmatching","stranger","Stranger","Stranger",739,0.739,0
1,1,34,"Matching","mother","Mother","Close",934,0.934,1
1,1,35,"Matching","stranger","Stranger","Stranger",1117,1.117,1
1,1,36,"Nonmatching","stranger","Stranger","Stranger",594,0.594,1
1,1,37,"Matching","stranger","Stranger","Stranger",1012,1.012,1
1,1,38,"Matching","stranger","Stranger","Stranger",600,0.6,1
1,1,39,"Matching","self","Self","Self",858,0.858,1
1,1,40,"Matching","stranger","Stranger","Stranger",563,0.563,1
1,1,41,"Matching","self","Self","Self",505,0.505,1
1,1,42,"Matching","mother","Mother","Close",1072,1.072,1
1,1,43,"Nonmatching","stranger","Stranger","Stranger",888,0.888,1
1,1,44,"Matching","stranger","Stranger","Stranger",731,0.731,1
1,1,45,"Matching","self","Self","Self",811,0.811,1
1,1,46,"Nonmatching","stranger","Stranger","Stranger",583,0.583,1
1,1,47,"Matching","stranger","Stranger","Stranger",1054,1.054,0
1,1,48,"Matching","self","Self","Self",510,0.51,1
1,1,49,"Nonmatching","self","Self","Self",677,0.677,1
1,1,50,"Nonmatching","mother","Mother","Close",817,0.817,1
1,1,51,"Nonmatching","stranger","Stranger","Stranger",804,0.804,1
1,1,52,"Nonmatching","self","Self","Self",1298,1.298,0
1,1,53,"Matching","stranger","Stranger","Stranger",961,0.961,1
1,1,54,"Matching","stranger","Stranger","Stranger",623,0.623,1
1,1,55,"Matching","stranger","Stranger","Stranger",514,0.514,1
1,1,56,"Matching","self","Self","Self",703,0.703,1
1,1,57,"Matching","self","Self","Self",467,0.467,1
1,1,58,"Nonmatching","self","Self","Self",598,0.598,1
1,1,59,"Nonmatching","self","Self","Self",931,0.931,1
1,1,60,"Matching","self","Self","Self",1076,1.076,1
1,2,61,"Matching","stranger","Stranger","Stranger",953,0.953,1
1,2,62,"Matching","stranger","Stranger","Stranger",486,0.486,1
1,2,63,"Matching","self","Self","Self",500,0.5,1
1,2,64,"Matching","stranger","Stranger","Stranger",561,0.561,1
1,2,65,"Matching","self","Self","Self",453,0.453,1
1,2,66,"Matching","self","Self","Self",409,0.409,1
1,2,67,"Nonmatching","self","Self","Self",543,0.543,1
1,2,68,"Matching","self","Self","Self",680,0.68,1
1,2,69,"Nonmatching","mother","Mother","Close",667,0.667,1
1,2,70,"Nonmatching","self","Self","Self",920,0.92,1
1,2,71,"Matching","self","Self","Self",700,0.7,1
1,2,72,"Nonmatching","stranger","Stranger","Stranger",989,0.989,1
1,2,74,"Nonmatching","mother","Mother","Close",581,0.581,0
1,2,75,"Matching","self","Self","Self",481,0.481,1
1,2,76,"Nonmatching","mother","Mother","Close",920,0.92,1
1,2,77,"Nonmatching","self","Self","Self",1194,1.194,1
1,2,78,"Matching","stranger","Stranger","Stranger",513,0.513,1
1,2,79,"Matching","stranger","Stranger","Stranger",835,0.835,1
1,2,80,"Matching","stranger","Stranger","Stranger",467,0.467,1
1,2,81,"Nonmatching","self","Self","Self",703,0.703,1
1,2,82,"Nonmatching","self","Self","Self",524,0.524,1
1,2,83,"Nonmatching","mother","Mother","Close",720,0.72,1
1,2,84,"Nonmatching","mother","Mother","Close",961,0.961,1
1,2,85,"Nonmatching","mother","Mother","Close",721,0.721,1
1,2,86,"Nonmatching","stranger","Stranger","Stranger",629,0.629,1
1,2,87,"Matching","mother","Mother","Close",878,0.878,1
1,2,88,"Nonmatching","stranger","Stranger","Stranger",1158,1.158,1
1,2,89,"Nonmatching","stranger","Stranger","Stranger",929,0.929,1
1,2,90,"Nonmatching","stranger","Stranger","Stranger",698,0.698,1
1,2,91,"Nonmatching","stranger","Stranger","Stranger",531,0.531,1
1,2,92,"Matching","stranger","Stranger","Stranger",762,0.762,0
1,2,93,"Matching","self","Self","Self",747,0.747,1
1,2,94,"Nonmatching","self","Self","Self",708,0.708,1
1,2,97,"Nonmatching","mother","Mother","Close",1084,1.084,1
1,2,98,"Matching","mother","Mother","Close",922,0.922,1
1,2,99,"Nonmatching","mother","Mother","Close",890,0.89,0
1,2,100,"Matching","self","Self","Self",508,0.508,1
1,2,101,"Nonmatching","stranger","Stranger","Stranger",802,0.802,1
1,2,102,"Nonmatching","self","Self","Self",806,0.806,1
1,2,103,"Matching","self","Self","Self",587,0.587,1
1,2,104,"Nonmatching","stranger","Stranger","Stranger",1000,1,1
1,2,106,"Matching","stranger","Stranger","Stranger",1141,1.141,1
1,2,107,"Matching","mother","Mother","Close",725,0.725,1
1,2,108,"Nonmatching","stranger","Stranger","Stranger",673,0.673,1
1,2,109,"Nonmatching","self","Self","Self",810,0.81,1
1,2,110,"Nonmatching","mother","Mother","Close",670,0.67,1
1,2,111,"Matching","stranger","Stranger","Stranger",1143,1.143,1
1,2,112,"Matching","stranger","Stranger","Stranger",548,0.548,1
1,2,113,"Nonmatching","self","Self","Self",685,0.685,1
1,2,114,"Matching","self","Self","Self",816,0.816,1
1,2,115,"Matching","stranger","Stranger","Stranger",865,0.865,0
1,2,116,"Nonmatching","stranger","Stranger","Stranger",773,0.773,1
1,2,117,"Matching","mother","Mother","Close",683,0.683,1
1,2,118,"Matching","self","Self","Self",665,0.665,1
1,2,119,"Matching","self","Self","Self",930,0.93,1
1,2,120,"Matching","stranger","Stranger","Stranger",1040,1.04,1
1,3,121,"Matching","self","Self","Self",424,0.424,1
1,3,122,"Matching","self","Self","Self",424,0.424,1
1,3,123,"Nonmatching","stranger","Stranger","Stranger",747,0.747,1
1,3,124,"Matching","mother","Mother","Close",868,0.868,1
1,3,125,"Nonmatching","self","Self","Self",754,0.754,1
1,3,126,"Matching","self","Self","Self",888,0.888,1
1,3,127,"Nonmatching","mother","Mother","Close",661,0.661,0
1,3,128,"Matching","self","Self","Self",507,0.507,1
1,3,129,"Matching","mother","Mother","Close",456,0.456,1
1,3,130,"Nonmatching","stranger","Stranger","Stranger",594,0.594,0
1,3,131,"Matching","mother","Mother","Close",529,0.529,1
1,3,132,"Nonmatching","stranger","Stranger","Stranger",612,0.612,0
1,3,133,"Matching","stranger","Stranger","Stranger",961,0.961,1
1,3,134,"Matching","stranger","Stranger","Stranger",594,0.594,1
1,3,135,"Nonmatching","mother","Mother","Close",701,0.701,1
1,3,136,"Matching","self","Self","Self",525,0.525,1
1,3,137,"Nonmatching","mother","Mother","Close",1244,1.244,0
1,3,138,"Nonmatching","stranger","Stranger","Stranger",908,0.908,1
1,3,139,"Matching","stranger","Stranger","Stranger",786,0.786,1
1,3,140,"Nonmatching","mother","Mother","Close",870,0.87,1
1,3,141,"Nonmatching","self","Self","Self",763,0.763,1
1,3,142,"Matching","stranger","Stranger","Stranger",937,0.937,0
1,3,143,"Nonmatching","mother","Mother","Close",1016,1.016,1
1,3,144,"Nonmatching","stranger","Stranger","Stranger",655,0.655,1
1,3,145,"Nonmatching","self","Self","Self",628,0.628,1
1,3,146,"Nonmatching","self","Self","Self",833,0.833,1
1,3,147,"Matching","self","Self","Self",529,0.529,1
1,3,148,"Matching","self","Self","Self",519,0.519,1
1,3,149,"Nonmatching","mother","Mother","Close",734,0.734,1
1,3,150,"Nonmatching","mother","Mother","Close",516,0.516,1
1,3,151,"Matching","stranger","Stranger","Stranger",708,0.708,1
1,3,152,"Matching","self","Self","Self",668,0.668,1
1,3,153,"Nonmatching","mother","Mother","Close",720,0.72,1
1,3,154,"Matching","stranger","Stranger","Stranger",685,0.685,1
1,3,155,"Nonmatching","self","Self","Self",940,0.94,0
1,3,156,"Matching","stranger","Stranger","Stranger",861,0.861,0
1,3,157,"Matching","mother","Mother","Close",782,0.782,0
1,3,158,"Nonmatching","mother","Mother","Close",863,0.863,1
1,3,160,"Nonmatching","stranger","Stranger","Stranger",677,0.677,1
1,3,161,"Nonmatching","stranger","Stranger","Stranger",689,0.689,1
1,3,162,"Nonmatching","stranger","Stranger","Stranger",661,0.661,1
1,3,163,"Matching","self","Self","Self",837,0.837,1
1,3,164,"Matching","self","Self","Self",590,0.59,1
1,3,165,"Nonmatching","self","Self","Self",663,0.663,1
1,3,166,"Nonmatching","mother","Mother","Close",777,0.777,1
1,3,167,"Nonmatching","self","Self","Self",654,0.654,1
1,3,168,"Matching","stranger","Stranger","Stranger",1020,1.02,1
1,3,169,"Matching","stranger","Stranger","Stranger",769,0.769,1
1,3,170,"Matching","stranger","Stranger","Stranger",442,0.442,1
1,3,171,"Nonmatching","stranger","Stranger","Stranger",598,0.598,1
1,3,172,"Nonmatching","stranger","Stranger","Stranger",960,0.96,1
1,3,173,"Matching","self","Self","Self",738,0.738,1
1,3,174,"Matching","stranger","Stranger","Stranger",1175,1.175,1
1,3,175,"Matching","stranger","Stranger","Stranger",531,0.531,1
1,3,176,"Matching","self","Self","Self",871,0.871,1
1,3,177,"Matching","self","Self","Self",558,0.558,1
1,3,178,"Nonmatching","self","Self","Self",740,0.74,1
1,3,179,"Matching","stranger","Stranger","Stranger",1013,1.013,1
1,3,180,"Nonmatching","self","Self","Self",677,0.677,1
1,4,181,"Matching","stranger","Stranger","Stranger",764,0.764,1
1,4,182,"Nonmatching","self","Self","Self",761,0.761,1
1,4,183,"Nonmatching","stranger","Stranger","Stranger",780,0.78,1
1,4,184,"Nonmatching","self","Self","Self",785,0.785,1
1,4,185,"Matching","stranger","Stranger","Stranger",917,0.917,1
1,4,186,"Nonmatching","self","Self","Self",677,0.677,1
1,4,187,"Nonmatching","stranger","Stranger","Stranger",915,0.915,1
1,4,188,"Nonmatching","stranger","Stranger","Stranger",653,0.653,1
1,4,189,"Matching","stranger","Stranger","Stranger",548,0.548,1
1,4,190,"Nonmatching","stranger","Stranger","Stranger",565,0.565,1
1,4,191,"Nonmatching","mother","Mother","Close",607,0.607,1
1,4,192,"Nonmatching","stranger","Stranger","Stranger",604,0.604,1
1,4,193,"Matching","stranger","Stranger","Stranger",617,0.617,1
1,4,194,"Matching","mother","Mother","Close",779,0.779,1
1,4,195,"Matching","stranger","Stranger","Stranger",582,0.582,1
1,4,196,"Matching","self","Self","Self",978,0.978,1
1,4,197,"Nonmatching","self","Self","Self",637,0.637,1
1,4,198,"Matching","self","Self","Self",579,0.579,1
1,4,199,"Matching","self","Self","Self",516,0.516,1
1,4,200,"Matching","stranger","Stranger","Stranger",574,0.574,1
1,4,201,"Nonmatching","stranger","Stranger","Stranger",650,0.65,1
1,4,202,"Nonmatching","mother","Mother","Close",692,0.692,1
1,4,203,"Nonmatching","self","Self","Self",672,0.672,1
1,4,204,"Nonmatching","self","Self","Self",983,0.983,1
1,4,205,"Nonmatching","mother","Mother","Close",523,0.523,1
1,4,206,"Matching","mother","Mother","Close",621,0.621,1
1,4,207,"Matching","stranger","Stranger","Stranger",592,0.592,1
1,4,208,"Nonmatching","stranger","Stranger","Stranger",598,0.598,1
1,4,209,"Matching","self","Self","Self",758,0.758,1
1,4,210,"Nonmatching","self","Self","Self",683,0.683,1
1,4,211,"Nonmatching","mother","Mother","Close",971,0.971,1
1,4,212,"Matching","self","Self","Self",824,0.824,1
1,4,213,"Matching","self","Self","Self",543,0.543,1
1,4,214,"Matching","self","Self","Self",548,0.548,1
1,4,215,"Nonmatching","stranger","Stranger","Stranger",1119,1.119,1
1,4,216,"Matching","stranger","Stranger","Stranger",859,0.859,1
1,4,217,"Nonmatching","mother","Mother","Close",828,0.828,1
1,4,218,"Nonmatching","self","Self","Self",1096,1.096,1
1,4,219,"Nonmatching","mother","Mother","Close",714,0.714,1
1,4,220,"Nonmatching","self","Self","Self",590,0.59,1
1,4,221,"Nonmatching","mother","Mother","Close",802,0.802,1
1,4,222,"Matching","stranger","Stranger","Stranger",588,0.588,1
1,4,223,"Matching","stranger","Stranger","Stranger",887,0.887,1
1,4,224,"Matching","stranger","Stranger","Stranger",579,0.579,1
1,4,225,"Matching","stranger","Stranger","Stranger",581,0.581,1
1,4,226,"Matching","self","Self","Self",617,0.617,1
1,4,227,"Nonmatching","self","Self","Self",458,0.458,0
1,4,228,"Matching","self","Self","Self",622,0.622,1
1,4,229,"Matching","self","Self","Self",602,0.602,1
1,4,230,"Matching","self","Self","Self",490,0.49,1
1,4,231,"Matching","mother","Mother","Close",580,0.58,1
1,4,232,"Nonmatching","stranger","Stranger","Stranger",806,0.806,1
1,4,233,"Matching","stranger","Stranger","Stranger",696,0.696,1
1,4,234,"Nonmatching","mother","Mother","Close",781,0.781,1
1,4,235,"Nonmatching","mother","Mother","Close",985,0.985,1
1,4,236,"Matching","self","Self","Self",740,0.74,1
1,4,237,"Matching","self","Self","Self",498,0.498,1
1,4,238,"Nonmatching","stranger","Stranger","Stranger",632,0.632,1
1,4,239,"Matching","mother","Mother","Close",1124,1.124,1
1,4,240,"Nonmatching","mother","Mother","Close",545,0.545,1
1,5,241,"Nonmatching","stranger","Stranger","Stranger",554,0.554,1
1,5,242,"Matching","self","Self","Self",614,0.614,1
1,5,243,"Matching","self","Self","Self",513,0.513,1
1,5,244,"Matching","stranger","Stranger","Stranger",757,0.757,1
1,5,245,"Matching","stranger","Stranger","Stranger",485,0.485,1
1,5,246,"Nonmatching","stranger","Stranger","Stranger",572,0.572,1
1,5,247,"Matching","self","Self","Self",620,0.62,1
1,5,248,"Matching","self","Self","Self",407,0.407,1
1,5,249,"Matching","stranger","Stranger","Stranger",561,0.561,1
1,5,250,"Matching","self","Self","Self",459,0.459,1
1,5,251,"Nonmatching","self","Self","Self",659,0.659,1
1,5,252,"Matching","stranger","Stranger","Stranger",1045,1.045,1
1,5,253,"Nonmatching","stranger","Stranger","Stranger",585,0.585,1
1,5,254,"Nonmatching","mother","Mother","Close",868,0.868,1
1,5,255,"Matching","self","Self","Self",525,0.525,1
1,5,256,"Matching","stranger","Stranger","Stranger",692,0.692,1
1,5,257,"Matching","stranger","Stranger","Stranger",475,0.475,1
1,5,258,"Matching","self","Self","Self",429,0.429,1
1,5,259,"Nonmatching","mother","Mother","Close",662,0.662,1
1,5,260,"Matching","self","Self","Self",471,0.471,1
1,5,261,"Nonmatching","mother","Mother","Close",1115,1.115,1
1,5,262,"Matching","self","Self","Self",453,0.453,1
1,5,263,"Nonmatching","self","Self","Self",627,0.627,1
1,5,264,"Nonmatching","self","Self","Self",914,0.914,1
1,5,265,"Matching","self","Self","Self",455,0.455,1
1,5,266,"Matching","stranger","Stranger","Stranger",827,0.827,1
1,5,267,"Nonmatching","mother","Mother","Close",577,0.577,1
1,5,268,"Nonmatching","stranger","Stranger","Stranger",524,0.524,1
1,5,269,"Matching","stranger","Stranger","Stranger",749,0.749,1
1,5,270,"Nonmatching","self","Self","Self",529,0.529,1
1,5,271,"Matching","mother","Mother","Close",605,0.605,0
1,5,272,"Matching","mother","Mother","Close",744,0.744,1
1,5,273,"Matching","stranger","Stranger","Stranger",668,0.668,1
1,5,274,"Nonmatching","mother","Mother","Close",584,0.584,1
1,5,275,"Matching","mother","Mother","Close",1013,1.013,1
1,5,276,"Nonmatching","stranger","Stranger","Stranger",727,0.727,1
1,5,277,"Nonmatching","self","Self","Self",905,0.905,1
1,5,278,"Nonmatching","stranger","Stranger","Stranger",802,0.802,1
1,5,279,"Nonmatching","self","Self","Self",612,0.612,1
1,5,280,"Nonmatching","self","Self","Self",568,0.568,1
1,5,281,"Nonmatching","mother","Mother","Close",496,0.496,1
1,5,282,"Nonmatching","mother","Mother","Close",575,0.575,1
1,5,283,"Nonmatching","self","Self","Self",631,0.631,1
1,5,284,"Matching","stranger","Stranger","Stranger",665,0.665,1
1,5,285,"Matching","self","Self","Self",537,0.537,1
1,5,286,"Matching","stranger","Stranger","Stranger",630,0.63,1
1,5,287,"Nonmatching","stranger","Stranger","Stranger",646,0.646,1
1,5,288,"Nonmatching","self","Self","Self",889,0.889,1
1,5,289,"Nonmatching","stranger","Stranger","Stranger",786,0.786,1
1,5,290,"Matching","self","Self","Self",738,0.738,1
1,5,291,"Matching","mother","Mother","Close",851,0.851,1
1,5,292,"Matching","stranger","Stranger","Stranger",643,0.643,1
1,5,293,"Matching","stranger","Stranger","Stranger",584,0.584,1
1,5,294,"Nonmatching","stranger","Stranger","Stranger",586,0.586,1
1,5,295,"Nonmatching","mother","Mother","Close",715,0.715,1
1,5,298,"Nonmatching","self","Self","Self",700,0.7,1
1,5,299,"Matching","self","Self","Self",980,0.98,1
1,5,300,"Nonmatching","stranger","Stranger","Stranger",756,0.756,0
1,6,301,"Nonmatching","mother","Mother","Close",787,0.787,1
1,6,302,"Matching","mother","Mother","Close",590,0.59,1
1,6,303,"Matching","self","Self","Self",508,0.508,1
1,6,304,"Nonmatching","self","Self","Self",541,0.541,1
1,6,305,"Nonmatching","self","Self","Self",714,0.714,1
1,6,306,"Matching","stranger","Stranger","Stranger",513,0.513,1
1,6,307,"Matching","self","Self","Self",546,0.546,1
1,6,308,"Matching","self","Self","Self",468,0.468,1
1,6,309,"Matching","self","Self","Self",426,0.426,1
1,6,310,"Matching","self","Self","Self",421,0.421,1
1,6,311,"Nonmatching","mother","Mother","Close",764,0.764,1
1,6,312,"Matching","self","Self","Self",375,0.375,1
1,6,313,"Matching","stranger","Stranger","Stranger",793,0.793,1
1,6,314,"Matching","stranger","Stranger","Stranger",470,0.47,1
1,6,315,"Nonmatching","self","Self","Self",923,0.923,1
1,6,317,"Nonmatching","self","Self","Self",817,0.817,1
1,6,318,"Matching","stranger","Stranger","Stranger",900,0.9,1
1,6,319,"Nonmatching","self","Self","Self",664,0.664,1
1,6,320,"Nonmatching","self","Self","Self",797,0.797,0
1,6,321,"Matching","mother","Mother","Close",1105,1.105,0
1,6,322,"Nonmatching","stranger","Stranger","Stranger",975,0.975,1
1,6,323,"Matching","self","Self","Self",545,0.545,1
1,6,324,"Nonmatching","mother","Mother","Close",826,0.826,1
1,6,325,"Nonmatching","stranger","Stranger","Stranger",814,0.814,1
1,6,326,"Nonmatching","self","Self","Self",688,0.688,1
1,6,327,"Nonmatching","stranger","Stranger","Stranger",769,0.769,1
1,6,328,"Matching","mother","Mother","Close",727,0.727,1
1,6,329,"Nonmatching","stranger","Stranger","Stranger",756,0.756,1
1,6,330,"Nonmatching","mother","Mother","Close",919,0.919,1
1,6,331,"Matching","self","Self","Self",508,0.508,1
1,6,332,"Nonmatching","stranger","Stranger","Stranger",910,0.91,1
1,6,333,"Matching","stranger","Stranger","Stranger",665,0.665,1
1,6,334,"Matching","stranger","Stranger","Stranger",511,0.511,1
1,6,335,"Matching","stranger","Stranger","Stranger",469,0.469,1
1,6,336,"Matching","self","Self","Self",443,0.443,1
1,6,337,"Nonmatching","self","Self","Self",555,0.555,1
1,6,338,"Nonmatching","stranger","Stranger","Stranger",838,0.838,1
1,6,339,"Matching","self","Self","Self",455,0.455,1
1,6,340,"Nonmatching","stranger","Stranger","Stranger",902,0.902,1
1,6,341,"Matching","self","Self","Self",399,0.399,1
1,6,342,"Nonmatching","stranger","Stranger","Stranger",543,0.543,1
1,6,343,"Matching","self","Self","Self",911,0.911,1
1,6,344,"Nonmatching","mother","Mother","Close",722,0.722,1
1,6,345,"Nonmatching","self","Self","Self",696,0.696,1
1,6,346,"Matching","stranger","Stranger","Stranger",1147,1.147,1
1,6,347,"Matching","stranger","Stranger","Stranger",558,0.558,1
1,6,348,"Nonmatching","self","Self","Self",635,0.635,1
1,6,349,"Nonmatching","mother","Mother","Close",630,0.63,1
1,6,350,"Matching","stranger","Stranger","Stranger",822,0.822,1
1,6,351,"Matching","mother","Mother","Close",553,0.553,1
1,6,352,"Nonmatching","mother","Mother","Close",548,0.548,1
1,6,353,"Matching","self","Self","Self",701,0.701,1
1,6,354,"Nonmatching","stranger","Stranger","Stranger",650,0.65,1
1,6,355,"Matching","stranger","Stranger","Stranger",696,0.696,1
1,6,356,"Matching","stranger","Stranger","Stranger",558,0.558,1
1,6,357,"Nonmatching","mother","Mother","Close",591,0.591,1
1,6,358,"Nonmatching","mother","Mother","Close",607,0.607,0
1,6,359,"Nonmatching","mother","Mother","Close",577,0.577,1
1,6,360,"Matching","stranger","Stranger","Stranger",743,0.743,1
2,1,1,"Nonmatching","mother","Mother","Close",617,0.617,1
2,1,2,"Nonmatching","stranger","Stranger","Stranger",878,0.878,1
2,1,3,"Nonmatching","stranger","Stranger","Stranger",1050,1.05,1
2,1,4,"Nonmatching","self","Self","Self",730,0.73,1
2,1,5,"Matching","stranger","Stranger","Stranger",1080,1.08,1
2,1,6,"Matching","self","Self","Self",768,0.768,1
2,1,7,"Nonmatching","mother","Mother","Close",918,0.918,1
2,1,8,"Nonmatching","self","Self","Self",835,0.835,1
2,1,9,"Matching","stranger","Stranger","Stranger",962,0.962,1
2,1,10,"Matching","self","Self","Self",793,0.793,1
2,1,11,"Matching","self","Self","Self",663,0.663,1
2,1,12,"Nonmatching","stranger","Stranger","Stranger",828,0.828,1
2,1,13,"Matching","mother","Mother","Close",929,0.929,1
2,1,14,"Matching","mother","Mother","Close",690,0.69,1
2,1,15,"Nonmatching","mother","Mother","Close",644,0.644,1
2,1,16,"Nonmatching","self","Self","Self",936,0.936,1
2,1,17,"Nonmatching","self","Self","Self",819,0.819,0
2,1,18,"Nonmatching","self","Self","Self",1050,1.05,1
2,1,19,"Matching","self","Self","Self",616,0.616,1
2,1,20,"Matching","self","Self","Self",618,0.618,1
2,1,21,"Nonmatching","stranger","Stranger","Stranger",756,0.756,1
2,1,22,"Matching","stranger","Stranger","Stranger",807,0.807,0
2,1,23,"Matching","stranger","Stranger","Stranger",1239,1.239,1
2,1,24,"Nonmatching","self","Self","Self",705,0.705,1
2,1,25,"Matching","stranger","Stranger","Stranger",847,0.847,0
2,1,26,"Nonmatching","mother","Mother","Close",976,0.976,1
2,1,27,"Matching","self","Self","Self",576,0.576,1
2,1,29,"Matching","stranger","Stranger","Stranger",917,0.917,0
2,1,30,"Matching","stranger","Stranger","Stranger",819,0.819,1
2,1,31,"Matching","stranger","Stranger","Stranger",675,0.675,1
2,1,32,"Nonmatching","mother","Mother","Close",759,0.759,1
2,1,33,"Matching","self","Self","Self",638,0.638,1
2,1,34,"Matching","stranger","Stranger","Stranger",817,0.817,1
2,1,35,"Nonmatching","self","Self","Self",709,0.709,1
2,1,36,"Matching","self","Self","Self",686,0.686,1
2,1,37,"Nonmatching","mother","Mother","Close",866,0.866,1
2,1,38,"Nonmatching","mother","Mother","Close",698,0.698,1
2,1,39,"Matching","stranger","Stranger","Stranger",720,0.72,1
2,1,40,"Nonmatching","stranger","Stranger","Stranger",723,0.723,1
2,1,41,"Nonmatching","stranger","Stranger","Stranger",732,0.732,1
2,1,42,"Nonmatching","self","Self","Self",689,0.689,1
2,1,43,"Nonmatching","self","Self","Self",810,0.81,1
2,1,44,"Matching","self","Self","Self",849,0.849,1
2,1,45,"Nonmatching","stranger","Stranger","Stranger",698,0.698,1
2,1,46,"Matching","self","Self","Self",703,0.703,1
2,1,47,"Matching","self","Self","Self",636,0.636,1
2,1,48,"Matching","mother","Mother","Close",855,0.855,1
2,1,49,"Matching","self","Self","Self",571,0.571,1
2,1,50,"Matching","stranger","Stranger","Stranger",777,0.777,1
2,1,51,"Matching","self","Self","Self",563,0.563,1
2,1,52,"Matching","mother","Mother","Close",651,0.651,1
2,1,53,"Matching","stranger","Stranger","Stranger",733,0.733,0
2,1,54,"Nonmatching","self","Self","Self",1120,1.12,1
2,1,55,"Matching","stranger","Stranger","Stranger",869,0.869,1
2,1,56,"Nonmatching","mother","Mother","Close",747,0.747,1
2,1,57,"Nonmatching","stranger","Stranger","Stranger",1057,1.057,1
2,1,58,"Nonmatching","stranger","Stranger","Stranger",768,0.768,1
2,1,59,"Nonmatching","mother","Mother","Close",785,0.785,1
2,1,60,"Nonmatching","mother","Mother","Close",821,0.821,1
2,2,63,"Matching","stranger","Stranger","Stranger",871,0.871,1
2,2,64,"Nonmatching","stranger","Stranger","Stranger",721,0.721,1
2,2,65,"Nonmatching","mother","Mother","Close",694,0.694,1
2,2,66,"Matching","self","Self","Self",500,0.5,1
2,2,67,"Nonmatching","mother","Mother","Close",780,0.78,1
2,2,68,"Matching","self","Self","Self",467,0.467,1
2,2,69,"Nonmatching","mother","Mother","Close",559,0.559,1
2,2,70,"Nonmatching","mother","Mother","Close",585,0.585,1
2,2,71,"Matching","stranger","Stranger","Stranger",828,0.828,1
2,2,72,"Nonmatching","self","Self","Self",671,0.671,1
2,2,73,"Nonmatching","stranger","Stranger","Stranger",851,0.851,1
2,2,74,"Nonmatching","stranger","Stranger","Stranger",823,0.823,1
2,2,75,"Matching","stranger","Stranger","Stranger",799,0.799,1
2,2,76,"Matching","self","Self","Self",591,0.591,1
2,2,77,"Matching","self","Self","Self",487,0.487,1
2,2,78,"Matching","mother","Mother","Close",750,0.75,1
2,2,79,"Matching","stranger","Stranger","Stranger",513,0.513,1
2,2,80,"Matching","stranger","Stranger","Stranger",665,0.665,1
2,2,81,"Matching","mother","Mother","Close",512,0.512,1
2,2,82,"Nonmatching","self","Self","Self",653,0.653,1
2,2,83,"Nonmatching","stranger","Stranger","Stranger",606,0.606,1
2,2,84,"Nonmatching","mother","Mother","Close",551,0.551,0
2,2,85,"Matching","self","Self","Self",892,0.892,1
2,2,86,"Matching","stranger","Stranger","Stranger",784,0.784,1
2,2,87,"Matching","stranger","Stranger","Stranger",1275,1.275,1
2,2,88,"Matching","self","Self","Self",475,0.475,1
2,2,89,"Nonmatching","stranger","Stranger","Stranger",718,0.718,1
2,2,90,"Matching","mother","Mother","Close",503,0.503,1
2,2,91,"Matching","stranger","Stranger","Stranger",697,0.697,1
2,2,92,"Nonmatching","self","Self","Self",928,0.928,1
2,2,93,"Matching","self","Self","Self",592,0.592,1
2,2,94,"Nonmatching","mother","Mother","Close",725,0.725,1
2,2,95,"Matching","self","Self","Self",550,0.55,1
2,2,96,"Matching","self","Self","Self",471,0.471,1
2,2,97,"Matching","mother","Mother","Close",614,0.614,1
2,2,98,"Nonmatching","stranger","Stranger","Stranger",708,0.708,1
2,2,99,"Matching","stranger","Stranger","Stranger",884,0.884,1
2,2,100,"Nonmatching","mother","Mother","Close",616,0.616,1
2,2,101,"Nonmatching","stranger","Stranger","Stranger",1242,1.242,0
2,2,102,"Nonmatching","stranger","Stranger","Stranger",873,0.873,1
2,2,103,"Matching","self","Self","Self",646,0.646,1
2,2,104,"Matching","self","Self","Self",548,0.548,1
2,2,105,"Nonmatching","stranger","Stranger","Stranger",650,0.65,1
2,2,106,"Nonmatching","stranger","Stranger","Stranger",693,0.693,1
2,2,107,"Matching","stranger","Stranger","Stranger",840,0.84,1
2,2,108,"Nonmatching","self","Self","Self",669,0.669,1
2,2,109,"Matching","self","Self","Self",519,0.519,1
2,2,110,"Matching","self","Self","Self",491,0.491,1
2,2,111,"Nonmatching","self","Self","Self",589,0.589,1
2,2,112,"Nonmatching","self","Self","Self",907,0.907,1
2,2,113,"Nonmatching","mother","Mother","Close",647,0.647,1
2,2,114,"Matching","stranger","Stranger","Stranger",650,0.65,1
2,2,115,"Nonmatching","self","Self","Self",651,0.651,1
2,2,116,"Nonmatching","mother","Mother","Close",746,0.746,1
2,2,117,"Matching","stranger","Stranger","Stranger",862,0.862,1
2,2,118,"Nonmatching","mother","Mother","Close",657,0.657,1
2,2,119,"Matching","stranger","Stranger","Stranger",581,0.581,0
2,2,120,"Nonmatching","self","Self","Self",695,0.695,1
2,3,121,"Matching","mother","Mother","Close",610,0.61,1
2,3,122,"Nonmatching","self","Self","Self",982,0.982,1
2,3,123,"Matching","stranger","Stranger","Stranger",777,0.777,1
2,3,124,"Nonmatching","mother","Mother","Close",752,0.752,1
2,3,126,"Nonmatching","mother","Mother","Close",818,0.818,1
2,3,127,"Matching","stranger","Stranger","Stranger",713,0.713,1
2,3,128,"Matching","stranger","Stranger","Stranger",893,0.893,1
2,3,129,"Nonmatching","stranger","Stranger","Stranger",631,0.631,1
2,3,130,"Matching","stranger","Stranger","Stranger",669,0.669,1
2,3,131,"Matching","self","Self","Self",583,0.583,1
2,3,132,"Matching","self","Self","Self",508,0.508,1
2,3,133,"Nonmatching","self","Self","Self",650,0.65,1
2,3,134,"Nonmatching","stranger","Stranger","Stranger",723,0.723,1
2,3,135,"Matching","self","Self","Self",607,0.607,1
2,3,136,"Nonmatching","stranger","Stranger","Stranger",721,0.721,1
2,3,137,"Nonmatching","mother","Mother","Close",1005,1.005,1
2,3,138,"Matching","stranger","Stranger","Stranger",895,0.895,1
2,3,139,"Matching","stranger","Stranger","Stranger",499,0.499,1
2,3,140,"Nonmatching","mother","Mother","Close",782,0.782,1
2,3,141,"Nonmatching","stranger","Stranger","Stranger",753,0.753,1
2,3,142,"Nonmatching","mother","Mother","Close",958,0.958,1
2,3,143,"Matching","self","Self","Self",500,0.5,1
2,3,144,"Nonmatching","self","Self","Self",595,0.595,1
2,3,145,"Matching","mother","Mother","Close",1007,1.007,1
2,3,146,"Nonmatching","stranger","Stranger","Stranger",662,0.662,1
2,3,147,"Matching","self","Self","Self",467,0.467,1
2,3,148,"Nonmatching","mother","Mother","Close",469,0.469,1
2,3,149,"Matching","stranger","Stranger","Stranger",541,0.541,1
2,3,150,"Matching","self","Self","Self",644,0.644,1
2,3,151,"Matching","self","Self","Self",445,0.445,1
2,3,152,"Nonmatching","stranger","Stranger","Stranger",663,0.663,1
2,3,153,"Nonmatching","stranger","Stranger","Stranger",595,0.595,1
2,3,154,"Matching","self","Self","Self",458,0.458,1
2,3,155,"Nonmatching","self","Self","Self",699,0.699,1
2,3,156,"Nonmatching","self","Self","Self",564,0.564,1
2,3,157,"Matching","self","Self","Self",726,0.726,1
2,3,158,"Matching","stranger","Stranger","Stranger",859,0.859,1
2,3,159,"Matching","stranger","Stranger","Stranger",616,0.616,1
2,3,160,"Matching","self","Self","Self",444,0.444,1
2,3,161,"Matching","self","Self","Self",390,0.39,1
2,3,162,"Nonmatching","stranger","Stranger","Stranger",754,0.754,1
2,3,163,"Nonmatching","self","Self","Self",761,0.761,1
2,3,164,"Matching","stranger","Stranger","Stranger",663,0.663,1
2,3,165,"Nonmatching","mother","Mother","Close",553,0.553,1
2,3,166,"Nonmatching","mother","Mother","Close",531,0.531,1
2,3,167,"Nonmatching","mother","Mother","Close",562,0.562,1
2,3,168,"Nonmatching","self","Self","Self",506,0.506,1
2,3,169,"Matching","self","Self","Self",472,0.472,1
2,3,170,"Matching","stranger","Stranger","Stranger",758,0.758,0
2,3,171,"Matching","stranger","Stranger","Stranger",500,0.5,1
2,3,172,"Matching","self","Self","Self",420,0.42,1
2,3,173,"Matching","mother","Mother","Close",528,0.528,1
2,3,174,"Nonmatching","self","Self","Self",492,0.492,1
2,3,175,"Nonmatching","mother","Mother","Close",956,0.956,1
2,3,176,"Nonmatching","self","Self","Self",619,0.619,1
2,3,177,"Nonmatching","self","Self","Self",623,0.623,1
2,3,178,"Matching","mother","Mother","Close",457,0.457,1
2,3,179,"Matching","stranger","Stranger","Stranger",590,0.59,0
2,3,180,"Nonmatching","stranger","Stranger","Stranger",592,0.592,1
2,4,181,"Nonmatching","stranger","Stranger","Stranger",527,0.527,1
2,4,182,"Matching","self","Self","Self",359,0.359,1
2,4,183,"Matching","stranger","Stranger","Stranger",744,0.744,1
2,4,184,"Matching","stranger","Stranger","Stranger",575,0.575,1
2,4,185,"Nonmatching","mother","Mother","Close",647,0.647,1
2,4,186,"Nonmatching","mother","Mother","Close",573,0.573,1
2,4,187,"Nonmatching","self","Self","Self",534,0.534,1
2,4,188,"Matching","stranger","Stranger","Stranger",613,0.613,1
2,4,189,"Matching","self","Self","Self",470,0.47,1
2,4,190,"Nonmatching","self","Self","Self",547,0.547,1
2,4,191,"Matching","self","Self","Self",696,0.696,1
2,4,192,"Nonmatching","self","Self","Self",594,0.594,1
2,4,193,"Matching","self","Self","Self",614,0.614,1
2,4,194,"Matching","self","Self","Self",573,0.573,1
2,4,195,"Nonmatching","stranger","Stranger","Stranger",560,0.56,1
2,4,196,"Nonmatching","self","Self","Self",591,0.591,1
2,4,197,"Nonmatching","stranger","Stranger","Stranger",622,0.622,1
2,4,198,"Matching","mother","Mother","Close",607,0.607,1
2,4,199,"Nonmatching","self","Self","Self",565,0.565,1
2,4,200,"Matching","mother","Mother","Close",518,0.518,1
2,4,201,"Matching","stranger","Stranger","Stranger",757,0.757,1
2,4,202,"Nonmatching","self","Self","Self",628,0.628,1
2,4,203,"Matching","stranger","Stranger","Stranger",617,0.617,1
2,4,204,"Nonmatching","self","Self","Self",589,0.589,1
2,4,205,"Nonmatching","mother","Mother","Close",582,0.582,1
2,4,206,"Nonmatching","mother","Mother","Close",1054,1.054,1
2,4,207,"Nonmatching","self","Self","Self",633,0.633,1
2,4,208,"Nonmatching","self","Self","Self",515,0.515,1
2,4,209,"Matching","self","Self","Self",568,0.568,1
2,4,210,"Matching","self","Self","Self",494,0.494,1
2,4,211,"Matching","self","Self","Self",493,0.493,1
2,4,212,"Nonmatching","stranger","Stranger","Stranger",620,0.62,1
2,4,213,"Nonmatching","mother","Mother","Close",562,0.562,1
2,4,214,"Nonmatching","mother","Mother","Close",800,0.8,0
2,4,216,"Matching","stranger","Stranger","Stranger",635,0.635,1
2,4,217,"Matching","self","Self","Self",416,0.416,1
2,4,218,"Matching","stranger","Stranger","Stranger",674,0.674,1
2,4,219,"Nonmatching","mother","Mother","Close",541,0.541,1
2,4,220,"Matching","mother","Mother","Close",627,0.627,1
2,4,221,"Nonmatching","stranger","Stranger","Stranger",634,0.634,1
2,4,222,"Nonmatching","self","Self","Self",618,0.618,1
2,4,223,"Matching","self","Self","Self",428,0.428,1
2,4,224,"Matching","stranger","Stranger","Stranger",688,0.688,1
2,4,225,"Matching","self","Self","Self",420,0.42,1
2,4,226,"Nonmatching","mother","Mother","Close",692,0.692,1
2,4,227,"Nonmatching","stranger","Stranger","Stranger",642,0.642,1
2,4,228,"Nonmatching","mother","Mother","Close",633,0.633,1
2,4,229,"Matching","stranger","Stranger","Stranger",772,0.772,1
2,4,230,"Nonmatching","stranger","Stranger","Stranger",479,0.479,1
2,4,231,"Matching","stranger","Stranger","Stranger",816,0.816,1
2,4,232,"Nonmatching","stranger","Stranger","Stranger",735,0.735,1
2,4,233,"Nonmatching","stranger","Stranger","Stranger",748,0.748,1
2,4,234,"Matching","stranger","Stranger","Stranger",657,0.657,1
2,4,235,"Matching","stranger","Stranger","Stranger",512,0.512,1
2,4,236,"Matching","self","Self","Self",497,0.497,1
2,4,237,"Matching","self","Self","Self",397,0.397,1
2,4,238,"Matching","mother","Mother","Close",407,0.407,1
2,4,239,"Matching","stranger","Stranger","Stranger",686,0.686,1
2,4,240,"Nonmatching","mother","Mother","Close",596,0.596,1
2,5,241,"Matching","stranger","Stranger","Stranger",504,0.504,1
2,5,242,"Nonmatching","self","Self","Self",712,0.712,1
2,5,243,"Matching","self","Self","Self",346,0.346,1
2,5,244,"Matching","stranger","Stranger","Stranger",598,0.598,1
2,5,245,"Nonmatching","stranger","Stranger","Stranger",574,0.574,1
2,5,246,"Nonmatching","self","Self","Self",912,0.912,1
2,5,247,"Nonmatching","self","Self","Self",608,0.608,1
2,5,248,"Matching","stranger","Stranger","Stranger",693,0.693,1
2,5,249,"Matching","self","Self","Self",402,0.402,1
2,5,250,"Matching","stranger","Stranger","Stranger",512,0.512,1
2,5,251,"Matching","self","Self","Self",405,0.405,1
2,5,252,"Matching","stranger","Stranger","Stranger",692,0.692,1
2,5,253,"Nonmatching","mother","Mother","Close",605,0.605,1
2,5,254,"Matching","stranger","Stranger","Stranger",749,0.749,1
2,5,255,"Matching","self","Self","Self",472,0.472,1
2,5,256,"Nonmatching","stranger","Stranger","Stranger",596,0.596,1
2,5,257,"Nonmatching","mother","Mother","Close",546,0.546,1
2,5,258,"Nonmatching","self","Self","Self",580,0.58,1
2,5,259,"Nonmatching","mother","Mother","Close",575,0.575,1
2,5,260,"Matching","self","Self","Self",365,0.365,1
2,5,261,"Nonmatching","mother","Mother","Close",503,0.503,1
2,5,262,"Nonmatching","mother","Mother","Close",480,0.48,1
2,5,263,"Nonmatching","stranger","Stranger","Stranger",700,0.7,1
2,5,264,"Nonmatching","self","Self","Self",449,0.449,1
2,5,265,"Nonmatching","mother","Mother","Close",694,0.694,1
2,5,266,"Matching","self","Self","Self",406,0.406,1
2,5,267,"Nonmatching","mother","Mother","Close",569,0.569,1
2,5,268,"Matching","self","Self","Self",472,0.472,1
2,5,269,"Matching","mother","Mother","Close",668,0.668,1
2,5,270,"Matching","self","Self","Self",430,0.43,1
2,5,271,"Matching","mother","Mother","Close",545,0.545,0
2,5,272,"Matching","self","Self","Self",385,0.385,1
2,5,273,"Matching","stranger","Stranger","Stranger",780,0.78,1
2,5,274,"Matching","self","Self","Self",454,0.454,1
2,5,275,"Matching","self","Self","Self",465,0.465,1
2,5,276,"Nonmatching","mother","Mother","Close",628,0.628,1
2,5,277,"Nonmatching","mother","Mother","Close",667,0.667,1
2,5,278,"Matching","stranger","Stranger","Stranger",730,0.73,1
2,5,279,"Nonmatching","stranger","Stranger","Stranger",739,0.739,1
2,5,280,"Nonmatching","self","Self","Self",682,0.682,1
2,5,281,"Nonmatching","self","Self","Self",567,0.567,1
2,5,282,"Matching","self","Self","Self",390,0.39,1
2,5,283,"Matching","mother","Mother","Close",713,0.713,1
2,5,284,"Nonmatching","stranger","Stranger","Stranger",659,0.659,1
2,5,285,"Nonmatching","stranger","Stranger","Stranger",475,0.475,0
2,5,286,"Matching","mother","Mother","Close",672,0.672,1
2,5,287,"Nonmatching","self","Self","Self",598,0.598,1
2,5,288,"Nonmatching","stranger","Stranger","Stranger",623,0.623,1
2,5,289,"Nonmatching","mother","Mother","Close",620,0.62,1
2,5,290,"Matching","stranger","Stranger","Stranger",630,0.63,1
2,5,291,"Matching","self","Self","Self",533,0.533,1
2,5,292,"Nonmatching","stranger","Stranger","Stranger",594,0.594,1
2,5,293,"Matching","stranger","Stranger","Stranger",605,0.605,1
2,5,294,"Matching","stranger","Stranger","Stranger",521,0.521,1
2,5,295,"Nonmatching","self","Self","Self",563,0.563,1
2,5,296,"Matching","stranger","Stranger","Stranger",461,0.461,1
2,5,297,"Nonmatching","stranger","Stranger","Stranger",667,0.667,1
2,5,298,"Nonmatching","self","Self","Self",571,0.571,1
2,5,299,"Nonmatching","stranger","Stranger","Stranger",759,0.759,0
2,5,300,"Matching","stranger","Stranger","Stranger",693,0.693,1
2,6,301,"Nonmatching","stranger","Stranger","Stranger",646,0.646,1
2,6,302,"Matching","self","Self","Self",547,0.547,1
2,6,303,"Matching","self","Self","Self",387,0.387,1
2,6,304,"Nonmatching","stranger","Stranger","Stranger",568,0.568,1
2,6,305,"Nonmatching","self","Self","Self",609,0.609,1
2,6,306,"Nonmatching","stranger","Stranger","Stranger",573,0.573,1
2,6,307,"Matching","stranger","Stranger","Stranger",608,0.608,1
2,6,308,"Matching","self","Self","Self",441,0.441,1
2,6,309,"Nonmatching","stranger","Stranger","Stranger",706,0.706,1
2,6,310,"Nonmatching","stranger","Stranger","Stranger",1012,1.012,1
2,6,311,"Matching","self","Self","Self",485,0.485,1
2,6,312,"Nonmatching","stranger","Stranger","Stranger",665,0.665,1
2,6,313,"Nonmatching","self","Self","Self",578,0.578,1
2,6,314,"Matching","stranger","Stranger","Stranger",636,0.636,1
2,6,315,"Matching","self","Self","Self",466,0.466,1
2,6,316,"Matching","self","Self","Self",527,0.527,1
2,6,317,"Nonmatching","mother","Mother","Close",683,0.683,1
2,6,318,"Nonmatching","mother","Mother","Close",722,0.722,1
2,6,319,"Nonmatching","self","Self","Self",719,0.719,1
2,6,320,"Nonmatching","mother","Mother","Close",752,0.752,1
2,6,321,"Nonmatching","self","Self","Self",913,0.913,1
2,6,322,"Nonmatching","self","Self","Self",574,0.574,1
2,6,323,"Matching","stranger","Stranger","Stranger",612,0.612,1
2,6,324,"Nonmatching","self","Self","Self",530,0.53,1
2,6,325,"Nonmatching","self","Self","Self",642,0.642,1
2,6,326,"Nonmatching","mother","Mother","Close",796,0.796,1
2,6,327,"Matching","self","Self","Self",512,0.512,1
2,6,328,"Matching","self","Self","Self",668,0.668,1
2,6,329,"Nonmatching","stranger","Stranger","Stranger",700,0.7,1
2,6,330,"Matching","stranger","Stranger","Stranger",705,0.705,1
2,6,331,"Matching","stranger","Stranger","Stranger",637,0.637,1
2,6,332,"Matching","stranger","Stranger","Stranger",641,0.641,1
2,6,333,"Matching","mother","Mother","Close",725,0.725,1
2,6,334,"Nonmatching","mother","Mother","Close",719,0.719,1
2,6,335,"Matching","self","Self","Self",515,0.515,1
2,6,336,"Matching","stranger","Stranger","Stranger",683,0.683,1
2,6,337,"Matching","stranger","Stranger","Stranger",609,0.609,1
2,6,338,"Matching","stranger","Stranger","Stranger",461,0.461,1
2,6,339,"Nonmatching","stranger","Stranger","Stranger",638,0.638,1
2,6,340,"Nonmatching","self","Self","Self",685,0.685,1
2,6,341,"Matching","stranger","Stranger","Stranger",556,0.556,1
2,6,342,"Matching","mother","Mother","Close",592,0.592,1
2,6,343,"Matching","self","Self","Self",444,0.444,1
2,6,344,"Matching","self","Self","Self",451,0.451,1
2,6,345,"Matching","mother","Mother","Close",583,0.583,1
2,6,346,"Matching","stranger","Stranger","Stranger",498,0.498,1
2,6,347,"Nonmatching","mother","Mother","Close",591,0.591,1
2,6,348,"Matching","self","Self","Self",474,0.474,1
2,6,349,"Nonmatching","self","Self","Self",548,0.548,1
2,6,350,"Nonmatching","stranger","Stranger","Stranger",669,0.669,1
2,6,351,"Nonmatching","mother","Mother","Close",562,0.562,1
2,6,352,"Matching","stranger","Stranger","Stranger",721,0.721,1
2,6,353,"Matching","stranger","Stranger","Stranger",1094,1.094,1
2,6,354,"Nonmatching","self","Self","Self",622,0.622,1
2,6,355,"Nonmatching","mother","Mother","Close",666,0.666,1
2,6,356,"Matching","self","Self","Self",512,0.512,1
2,6,357,"Nonmatching","mother","Mother","Close",463,0.463,1
2,6,358,"Nonmatching","stranger","Stranger","Stranger",618,0.618,1
2,6,359,"Matching","mother","Mother","Close",493,0.493,1
2,6,360,"Nonmatching","mother","Mother","Close",584,0.584,1
3,1,1,"Matching","stranger","Stranger","Stranger",874,0.874,1
3,1,2,"Matching","mother","Mother","Close",1182,1.182,1
3,1,3,"Nonmatching","stranger","Stranger","Stranger",636,0.636,1
3,1,4,"Matching","mother","Mother","Close",865,0.865,1
3,1,5,"Matching","stranger","Stranger","Stranger",964,0.964,1
3,1,6,"Nonmatching","self","Self","Self",549,0.549,1
3,1,7,"Matching","mother","Mother","Close",669,0.669,1
3,1,8,"Nonmatching","mother","Mother","Close",653,0.653,1
3,1,9,"Matching","stranger","Stranger","Stranger",837,0.837,1
3,1,10,"Matching","self","Self","Self",527,0.527,1
3,1,11,"Nonmatching","self","Self","Self",543,0.543,1
3,1,12,"Matching","self","Self","Self",881,0.881,1
3,1,13,"Nonmatching","stranger","Stranger","Stranger",885,0.885,1
3,1,14,"Nonmatching","mother","Mother","Close",817,0.817,1
3,1,15,"Nonmatching","stranger","Stranger","Stranger",822,0.822,1
3,1,16,"Nonmatching","self","Self","Self",681,0.681,1
3,1,17,"Matching","stranger","Stranger","Stranger",874,0.874,1
3,1,18,"Nonmatching","stranger","Stranger","Stranger",629,0.629,1
3,1,19,"Matching","stranger","Stranger","Stranger",858,0.858,1
3,1,20,"Matching","self","Self","Self",579,0.579,1
3,1,21,"Nonmatching","stranger","Stranger","Stranger",880,0.88,1
3,1,22,"Nonmatching","stranger","Stranger","Stranger",806,0.806,1
3,1,23,"Nonmatching","mother","Mother","Close",752,0.752,1
3,1,24,"Nonmatching","self","Self","Self",677,0.677,1
3,1,25,"Matching","mother","Mother","Close",868,0.868,1
3,1,26,"Nonmatching","mother","Mother","Close",713,0.713,1
3,1,27,"Matching","stranger","Stranger","Stranger",641,0.641,1
3,1,28,"Nonmatching","self","Self","Self",630,0.63,1
3,1,29,"Matching","self","Self","Self",659,0.659,1
3,1,30,"Nonmatching","self","Self","Self",637,0.637,1
3,1,31,"Matching","stranger","Stranger","Stranger",680,0.68,1
3,1,32,"Matching","stranger","Stranger","Stranger",574,0.574,1
3,1,33,"Nonmatching","mother","Mother","Close",606,0.606,1
3,1,34,"Nonmatching","stranger","Stranger","Stranger",892,0.892,1
3,1,35,"Nonmatching","self","Self","Self",666,0.666,1
3,1,36,"Matching","self","Self","Self",617,0.617,0
3,1,37,"Nonmatching","mother","Mother","Close",624,0.624,1
3,1,38,"Nonmatching","self","Self","Self",642,0.642,1
3,1,39,"Nonmatching","self","Self","Self",562,0.562,1
3,1,40,"Nonmatching","mother","Mother","Close",597,0.597,1
3,1,41,"Matching","self","Self","Self",486,0.486,1
3,1,42,"Matching","stranger","Stranger","Stranger",1029,1.029,1
3,1,43,"Matching","stranger","Stranger","Stranger",1140,1.14,1
3,1,44,"Nonmatching","mother","Mother","Close",581,0.581,1
3,1,45,"Matching","self","Self","Self",529,0.529,1
3,1,46,"Nonmatching","mother","Mother","Close",733,0.733,1
3,1,47,"Matching","self","Self","Self",479,0.479,1
3,1,48,"Nonmatching","stranger","Stranger","Stranger",519,0.519,1
3,1,49,"Matching","self","Self","Self",731,0.731,1
3,1,50,"Nonmatching","stranger","Stranger","Stranger",613,0.613,1
3,1,51,"Matching","self","Self","Self",527,0.527,1
3,1,52,"Matching","self","Self","Self",410,0.41,1
3,1,53,"Matching","self","Self","Self",498,0.498,1
3,1,54,"Nonmatching","mother","Mother","Close",628,0.628,1
3,1,55,"Matching","stranger","Stranger","Stranger",707,0.707,1
3,1,56,"Nonmatching","stranger","Stranger","Stranger",580,0.58,1
3,1,57,"Matching","stranger","Stranger","Stranger",583,0.583,1
3,1,58,"Matching","stranger","Stranger","Stranger",565,0.565,1
3,1,59,"Nonmatching","self","Self","Self",529,0.529,1
3,1,60,"Matching","self","Self","Self",422,0.422,1
3,2,61,"Matching","stranger","Stranger","Stranger",817,0.817,1
3,2,62,"Nonmatching","self","Self","Self",547,0.547,1
3,2,63,"Nonmatching","mother","Mother","Close",711,0.711,1
3,2,64,"Matching","mother","Mother","Close",801,0.801,0
3,2,65,"Nonmatching","stranger","Stranger","Stranger",772,0.772,1
3,2,66,"Nonmatching","mother","Mother","Close",829,0.829,1
3,2,67,"Nonmatching","mother","Mother","Close",706,0.706,0
3,2,68,"Matching","self","Self","Self",603,0.603,1
3,2,69,"Nonmatching","mother","Mother","Close",603,0.603,1
3,2,70,"Nonmatching","stranger","Stranger","Stranger",527,0.527,1
3,2,71,"Nonmatching","mother","Mother","Close",551,0.551,1
3,2,72,"Matching","stranger","Stranger","Stranger",445,0.445,1
3,2,73,"Matching","stranger","Stranger","Stranger",751,0.751,1
3,2,74,"Nonmatching","mother","Mother","Close",546,0.546,1
3,2,75,"Nonmatching","self","Self","Self",638,0.638,1
3,2,76,"Matching","self","Self","Self",857,0.857,1
3,2,77,"Nonmatching","self","Self","Self",591,0.591,1
3,2,78,"Nonmatching","stranger","Stranger","Stranger",848,0.848,1
3,2,79,"Matching","self","Self","Self",520,0.52,1
3,2,80,"Matching","mother","Mother","Close",881,0.881,1
3,2,81,"Nonmatching","mother","Mother","Close",502,0.502,1
3,2,82,"Matching","self","Self","Self",467,0.467,1
3,2,83,"Nonmatching","mother","Mother","Close",495,0.495,1
3,2,84,"Matching","stranger","Stranger","Stranger",852,0.852,1
3,2,85,"Matching","self","Self","Self",547,0.547,1
3,2,86,"Matching","self","Self","Self",537,0.537,1
3,2,87,"Matching","stranger","Stranger","Stranger",765,0.765,1
3,2,88,"Nonmatching","stranger","Stranger","Stranger",645,0.645,1
3,2,89,"Matching","self","Self","Self",445,0.445,1
3,2,90,"Matching","stranger","Stranger","Stranger",717,0.717,1
3,2,91,"Nonmatching","self","Self","Self",570,0.57,1
3,2,92,"Matching","stranger","Stranger","Stranger",644,0.644,1
3,2,93,"Nonmatching","stranger","Stranger","Stranger",1100,1.1,1
3,2,94,"Matching","self","Self","Self",506,0.506,1
3,2,95,"Matching","self","Self","Self",485,0.485,1
3,2,96,"Matching","self","Self","Self",442,0.442,1
3,2,97,"Nonmatching","self","Self","Self",573,0.573,1
3,2,98,"Nonmatching","mother","Mother","Close",655,0.655,1
3,2,99,"Matching","stranger","Stranger","Stranger",729,0.729,1
3,2,100,"Matching","stranger","Stranger","Stranger",519,0.519,1
3,2,101,"Nonmatching","stranger","Stranger","Stranger",479,0.479,1
3,2,102,"Matching","self","Self","Self",421,0.421,1
3,2,103,"Nonmatching","stranger","Stranger","Stranger",730,0.73,1
3,2,104,"Matching","mother","Mother","Close",467,0.467,1
3,2,105,"Matching","mother","Mother","Close",476,0.476,1
3,2,106,"Matching","stranger","Stranger","Stranger",966,0.966,1
3,2,107,"Nonmatching","self","Self","Self",523,0.523,1
3,2,108,"Nonmatching","stranger","Stranger","Stranger",734,0.734,1
3,2,109,"Matching","self","Self","Self",425,0.425,1
3,2,110,"Nonmatching","mother","Mother","Close",722,0.722,1
3,2,111,"Nonmatching","self","Self","Self",538,0.538,1
3,2,112,"Nonmatching","self","Self","Self",591,0.591,1
3,2,113,"Nonmatching","self","Self","Self",617,0.617,1
3,2,114,"Nonmatching","stranger","Stranger","Stranger",570,0.57,1
3,2,115,"Matching","stranger","Stranger","Stranger",508,0.508,1
3,2,116,"Matching","stranger","Stranger","Stranger",452,0.452,1
3,2,117,"Matching","self","Self","Self",470,0.47,1
3,2,118,"Matching","stranger","Stranger","Stranger",554,0.554,1
3,2,119,"Nonmatching","stranger","Stranger","Stranger",439,0.439,1
3,2,120,"Nonmatching","self","Self","Self",487,0.487,1
3,3,121,"Nonmatching","mother","Mother","Close",586,0.586,1
3,3,122,"Matching","self","Self","Self",457,0.457,1
3,3,123,"Matching","stranger","Stranger","Stranger",489,0.489,1
3,3,124,"Nonmatching","self","Self","Self",501,0.501,1
3,3,125,"Matching","stranger","Stranger","Stranger",467,0.467,1
3,3,126,"Nonmatching","mother","Mother","Close",464,0.464,1
3,3,127,"Matching","self","Self","Self",413,0.413,1
3,3,128,"Matching","mother","Mother","Close",420,0.42,0
3,3,129,"Matching","mother","Mother","Close",551,0.551,1
3,3,130,"Nonmatching","self","Self","Self",571,0.571,1
3,3,131,"Matching","self","Self","Self",468,0.468,1
3,3,132,"Matching","mother","Mother","Close",543,0.543,1
3,3,133,"Matching","mother","Mother","Close",403,0.403,1
3,3,134,"Matching","self","Self","Self",531,0.531,1
3,3,135,"Matching","self","Self","Self",416,0.416,1
3,3,136,"Nonmatching","stranger","Stranger","Stranger",555,0.555,1
3,3,137,"Nonmatching","self","Self","Self",613,0.613,1
3,3,138,"Nonmatching","stranger","Stranger","Stranger",762,0.762,1
3,3,139,"Matching","self","Self","Self",426,0.426,1
3,3,140,"Nonmatching","stranger","Stranger","Stranger",656,0.656,1
3,3,141,"Nonmatching","self","Self","Self",518,0.518,1
3,3,142,"Matching","self","Self","Self",406,0.406,1
3,3,143,"Matching","stranger","Stranger","Stranger",646,0.646,1
3,3,144,"Matching","self","Self","Self",491,0.491,1
3,3,145,"Nonmatching","stranger","Stranger","Stranger",581,0.581,1
3,3,146,"Nonmatching","stranger","Stranger","Stranger",596,0.596,1
3,3,147,"Nonmatching","mother","Mother","Close",472,0.472,0
3,3,148,"Matching","stranger","Stranger","Stranger",510,0.51,1
3,3,149,"Nonmatching","mother","Mother","Close",760,0.76,1
3,3,150,"Nonmatching","stranger","Stranger","Stranger",673,0.673,1
3,3,151,"Matching","stranger","Stranger","Stranger",736,0.736,1
3,3,152,"Matching","stranger","Stranger","Stranger",506,0.506,1
3,3,153,"Nonmatching","self","Self","Self",547,0.547,1
3,3,154,"Nonmatching","stranger","Stranger","Stranger",613,0.613,1
3,3,155,"Matching","stranger","Stranger","Stranger",1166,1.166,1
3,3,156,"Nonmatching","mother","Mother","Close",846,0.846,1
3,3,157,"Matching","self","Self","Self",419,0.419,1
3,3,158,"Matching","stranger","Stranger","Stranger",610,0.61,1
3,3,159,"Nonmatching","stranger","Stranger","Stranger",817,0.817,1
3,3,160,"Nonmatching","mother","Mother","Close",671,0.671,1
3,3,161,"Nonmatching","self","Self","Self",474,0.474,1
3,3,162,"Matching","self","Self","Self",409,0.409,1
3,3,163,"Nonmatching","self","Self","Self",532,0.532,1
3,3,164,"Matching","stranger","Stranger","Stranger",702,0.702,1
3,3,165,"Nonmatching","self","Self","Self",443,0.443,1
3,3,166,"Nonmatching","stranger","Stranger","Stranger",511,0.511,1
3,3,167,"Matching","self","Self","Self",429,0.429,1
3,3,168,"Nonmatching","self","Self","Self",434,0.434,1
3,3,169,"Matching","stranger","Stranger","Stranger",364,0.364,1
3,3,170,"Nonmatching","mother","Mother","Close",546,0.546,1
3,3,171,"Nonmatching","mother","Mother","Close",443,0.443,1
3,3,172,"Matching","stranger","Stranger","Stranger",543,0.543,1
3,3,173,"Nonmatching","self","Self","Self",504,0.504,1
3,3,174,"Nonmatching","mother","Mother","Close",579,0.579,1
3,3,175,"Nonmatching","mother","Mother","Close",516,0.516,1
3,3,176,"Matching","self","Self","Self",409,0.409,1
3,3,177,"Nonmatching","stranger","Stranger","Stranger",661,0.661,1
3,3,178,"Matching","stranger","Stranger","Stranger",500,0.5,1
3,3,179,"Matching","stranger","Stranger","Stranger",429,0.429,1
3,3,180,"Matching","self","Self","Self",595,0.595,1
3,4,181,"Matching","stranger","Stranger","Stranger",398,0.398,1
3,4,182,"Matching","stranger","Stranger","Stranger",356,0.356,1
3,4,183,"Nonmatching","stranger","Stranger","Stranger",397,0.397,1
3,4,184,"Matching","stranger","Stranger","Stranger",732,0.732,1
3,4,185,"Matching","stranger","Stranger","Stranger",357,0.357,1
3,4,186,"Matching","stranger","Stranger","Stranger",361,0.361,1
3,4,187,"Matching","self","Self","Self",540,0.54,1
3,4,188,"Matching","self","Self","Self",402,0.402,1
3,4,189,"Matching","stranger","Stranger","Stranger",477,0.477,1
3,4,190,"Nonmatching","self","Self","Self",515,0.515,1
3,4,191,"Nonmatching","stranger","Stranger","Stranger",529,0.529,1
3,4,192,"Nonmatching","self","Self","Self",665,0.665,1
3,4,193,"Matching","stranger","Stranger","Stranger",370,0.37,1
3,4,194,"Matching","stranger","Stranger","Stranger",347,0.347,1
3,4,195,"Matching","self","Self","Self",417,0.417,1
3,4,196,"Matching","stranger","Stranger","Stranger",406,0.406,1
3,4,197,"Matching","mother","Mother","Close",572,0.572,1
3,4,198,"Nonmatching","mother","Mother","Close",446,0.446,1
3,4,199,"Nonmatching","self","Self","Self",590,0.59,1
3,4,200,"Matching","mother","Mother","Close",558,0.558,1
3,4,201,"Nonmatching","self","Self","Self",548,0.548,1
3,4,202,"Matching","mother","Mother","Close",727,0.727,1
3,4,203,"Matching","self","Self","Self",430,0.43,1
3,4,204,"Nonmatching","mother","Mother","Close",504,0.504,1
3,4,205,"Matching","stranger","Stranger","Stranger",497,0.497,1
3,4,206,"Nonmatching","mother","Mother","Close",527,0.527,1
3,4,207,"Matching","self","Self","Self",434,0.434,1
3,4,208,"Matching","self","Self","Self",437,0.437,1
3,4,209,"Matching","self","Self","Self",388,0.388,1
3,4,210,"Nonmatching","mother","Mother","Close",507,0.507,1
3,4,211,"Nonmatching","self","Self","Self",511,0.511,1
3,4,212,"Matching","self","Self","Self",422,0.422,1
3,4,213,"Nonmatching","stranger","Stranger","Stranger",554,0.554,1
3,4,214,"Matching","self","Self","Self",449,0.449,1
3,4,215,"Matching","stranger","Stranger","Stranger",546,0.546,1
3,4,216,"Nonmatching","mother","Mother","Close",496,0.496,1
3,4,217,"Nonmatching","stranger","Stranger","Stranger",708,0.708,1
3,4,218,"Nonmatching","self","Self","Self",472,0.472,1
3,4,219,"Nonmatching","mother","Mother","Close",593,0.593,1
3,4,220,"Nonmatching","stranger","Stranger","Stranger",649,0.649,1
3,4,221,"Nonmatching","mother","Mother","Close",747,0.747,1
3,4,222,"Nonmatching","self","Self","Self",470,0.47,1
3,4,223,"Nonmatching","self","Self","Self",536,0.536,1
3,4,224,"Nonmatching","mother","Mother","Close",514,0.514,1
3,4,225,"Matching","stranger","Stranger","Stranger",548,0.548,1
3,4,226,"Nonmatching","stranger","Stranger","Stranger",536,0.536,1
3,4,227,"Matching","self","Self","Self",378,0.378,1
3,4,228,"Nonmatching","mother","Mother","Close",407,0.407,1
3,4,229,"Nonmatching","self","Self","Self",477,0.477,1
3,4,230,"Nonmatching","stranger","Stranger","Stranger",617,0.617,1
3,4,231,"Nonmatching","stranger","Stranger","Stranger",567,0.567,1
3,4,232,"Matching","self","Self","Self",402,0.402,1
3,4,233,"Matching","self","Self","Self",419,0.419,1
3,4,234,"Nonmatching","stranger","Stranger","Stranger",502,0.502,1
3,4,235,"Matching","mother","Mother","Close",443,0.443,0
3,4,236,"Nonmatching","stranger","Stranger","Stranger",595,0.595,1
3,4,237,"Nonmatching","mother","Mother","Close",531,0.531,1
3,4,238,"Nonmatching","self","Self","Self",500,0.5,1
3,4,239,"Matching","stranger","Stranger","Stranger",630,0.63,1
3,4,240,"Matching","self","Self","Self",530,0.53,1
3,5,241,"Matching","self","Self","Self",411,0.411,1
3,5,242,"Nonmatching","self","Self","Self",452,0.452,1
3,5,243,"Nonmatching","mother","Mother","Close",520,0.52,1
3,5,244,"Matching","self","Self","Self",595,0.595,1
3,5,245,"Nonmatching","self","Self","Self",443,0.443,1
3,5,246,"Nonmatching","mother","Mother","Close",544,0.544,0
3,5,247,"Nonmatching","mother","Mother","Close",512,0.512,1
3,5,248,"Matching","stranger","Stranger","Stranger",575,0.575,1
3,5,249,"Nonmatching","self","Self","Self",412,0.412,1
3,5,250,"Nonmatching","mother","Mother","Close",503,0.503,1
3,5,251,"Nonmatching","mother","Mother","Close",758,0.758,1
3,5,252,"Matching","stranger","Stranger","Stranger",549,0.549,1
3,5,253,"Matching","self","Self","Self",423,0.423,1
3,5,254,"Nonmatching","self","Self","Self",460,0.46,1
3,5,255,"Matching","mother","Mother","Close",445,0.445,0
3,5,256,"Nonmatching","self","Self","Self",813,0.813,1
3,5,257,"Matching","self","Self","Self",399,0.399,1
3,5,258,"Nonmatching","self","Self","Self",435,0.435,1
3,5,259,"Matching","mother","Mother","Close",521,0.521,1
3,5,260,"Nonmatching","self","Self","Self",450,0.45,1
3,5,261,"Matching","stranger","Stranger","Stranger",466,0.466,1
3,5,262,"Nonmatching","stranger","Stranger","Stranger",477,0.477,1
3,5,263,"Nonmatching","stranger","Stranger","Stranger",560,0.56,1
3,5,264,"Nonmatching","mother","Mother","Close",772,0.772,1
3,5,265,"Matching","self","Self","Self",424,0.424,1
3,5,266,"Matching","self","Self","Self",432,0.432,1
3,5,267,"Matching","stranger","Stranger","Stranger",702,0.702,1
3,5,268,"Matching","self","Self","Self",400,0.4,1
3,5,269,"Matching","self","Self","Self",355,0.355,1
3,5,270,"Matching","self","Self","Self",387,0.387,1
3,5,271,"Matching","self","Self","Self",372,0.372,1
3,5,272,"Nonmatching","mother","Mother","Close",641,0.641,1
3,5,273,"Matching","self","Self","Self",387,0.387,1
3,5,274,"Matching","stranger","Stranger","Stranger",646,0.646,1
3,5,275,"Nonmatching","stranger","Stranger","Stranger",451,0.451,1
3,5,276,"Matching","stranger","Stranger","Stranger",757,0.757,1
3,5,277,"Nonmatching","stranger","Stranger","Stranger",459,0.459,1
3,5,278,"Matching","stranger","Stranger","Stranger",695,0.695,1
3,5,279,"Matching","mother","Mother","Close",684,0.684,1
3,5,280,"Matching","stranger","Stranger","Stranger",807,0.807,1
3,5,281,"Nonmatching","self","Self","Self",546,0.546,1
3,5,282,"Nonmatching","mother","Mother","Close",666,0.666,1
3,5,283,"Matching","self","Self","Self",398,0.398,1
3,5,284,"Nonmatching","stranger","Stranger","Stranger",712,0.712,1
3,5,285,"Matching","stranger","Stranger","Stranger",655,0.655,1
3,5,286,"Nonmatching","self","Self","Self",487,0.487,1
3,5,287,"Nonmatching","self","Self","Self",459,0.459,1
3,5,288,"Matching","stranger","Stranger","Stranger",592,0.592,1
3,5,289,"Matching","stranger","Stranger","Stranger",514,0.514,1
3,5,290,"Matching","self","Self","Self",490,0.49,1
3,5,291,"Nonmatching","stranger","Stranger","Stranger",431,0.431,1
3,5,292,"Nonmatching","stranger","Stranger","Stranger",542,0.542,1
3,5,293,"Nonmatching","stranger","Stranger","Stranger",583,0.583,1
3,5,294,"Matching","stranger","Stranger","Stranger",552,0.552,1
3,5,295,"Nonmatching","stranger","Stranger","Stranger",436,0.436,1
3,5,297,"Nonmatching","stranger","Stranger","Stranger",724,0.724,1
3,5,298,"Matching","mother","Mother","Close",919,0.919,1
3,5,299,"Matching","stranger","Stranger","Stranger",551,0.551,1
3,5,300,"Nonmatching","mother","Mother","Close",537,0.537,0
3,6,301,"Nonmatching","self","Self","Self",437,0.437,1
3,6,302,"Matching","self","Self","Self",428,0.428,1
3,6,303,"Nonmatching","self","Self","Self",737,0.737,1
3,6,304,"Nonmatching","stranger","Stranger","Stranger",555,0.555,1
3,6,305,"Nonmatching","self","Self","Self",476,0.476,1
3,6,306,"Nonmatching","mother","Mother","Close",546,0.546,1
3,6,307,"Nonmatching","self","Self","Self",408,0.408,1
3,6,308,"Nonmatching","mother","Mother","Close",491,0.491,1
3,6,309,"Nonmatching","self","Self","Self",431,0.431,1
3,6,310,"Matching","stranger","Stranger","Stranger",545,0.545,0
3,6,311,"Matching","self","Self","Self",433,0.433,1
3,6,312,"Nonmatching","mother","Mother","Close",520,0.52,1
3,6,313,"Matching","self","Self","Self",370,0.37,1
3,6,314,"Matching","stranger","Stranger","Stranger",538,0.538,0
3,6,315,"Nonmatching","mother","Mother","Close",718,0.718,1
3,6,316,"Nonmatching","self","Self","Self",540,0.54,1
3,6,317,"Nonmatching","stranger","Stranger","Stranger",666,0.666,1
3,6,318,"Matching","stranger","Stranger","Stranger",646,0.646,1
3,6,319,"Matching","stranger","Stranger","Stranger",448,0.448,1
3,6,320,"Matching","stranger","Stranger","Stranger",410,0.41,1
3,6,321,"Nonmatching","stranger","Stranger","Stranger",462,0.462,1
3,6,322,"Matching","self","Self","Self",354,0.354,1
3,6,323,"Matching","mother","Mother","Close",495,0.495,0
3,6,324,"Matching","stranger","Stranger","Stranger",622,0.622,1
3,6,325,"Matching","stranger","Stranger","Stranger",415,0.415,1
3,6,326,"Matching","mother","Mother","Close",583,0.583,1
3,6,327,"Nonmatching","mother","Mother","Close",764,0.764,1
3,6,328,"Nonmatching","mother","Mother","Close",625,0.625,1
3,6,329,"Nonmatching","stranger","Stranger","Stranger",849,0.849,1
3,6,330,"Matching","stranger","Stranger","Stranger",546,0.546,1
3,6,331,"Matching","self","Self","Self",394,0.394,1
3,6,332,"Nonmatching","self","Self","Self",593,0.593,1
3,6,333,"Nonmatching","self","Self","Self",559,0.559,1
3,6,334,"Matching","mother","Mother","Close",449,0.449,1
3,6,335,"Matching","self","Self","Self",391,0.391,1
3,6,336,"Nonmatching","stranger","Stranger","Stranger",1030,1.03,0
3,6,337,"Nonmatching","stranger","Stranger","Stranger",531,0.531,1
3,6,338,"Matching","stranger","Stranger","Stranger",508,0.508,1
3,6,339,"Matching","self","Self","Self",424,0.424,1
3,6,340,"Nonmatching","mother","Mother","Close",724,0.724,1
3,6,341,"Nonmatching","mother","Mother","Close",524,0.524,1
3,6,342,"Matching","self","Self","Self",344,0.344,1
3,6,343,"Nonmatching","self","Self","Self",589,0.589,1
3,6,344,"Matching","self","Self","Self",418,0.418,1
3,6,345,"Matching","stranger","Stranger","Stranger",485,0.485,1
3,6,346,"Matching","mother","Mother","Close",491,0.491,1
3,6,347,"Nonmatching","mother","Mother","Close",409,0.409,1
3,6,348,"Matching","self","Self","Self",508,0.508,1
3,6,349,"Nonmatching","self","Self","Self",583,0.583,1
3,6,350,"Matching","stranger","Stranger","Stranger",452,0.452,1
3,6,351,"Matching","self","Self","Self",410,0.41,1
3,6,352,"Nonmatching","stranger","Stranger","Stranger",554,0.554,1
3,6,353,"Matching","self","Self","Self",364,0.364,1
3,6,354,"Nonmatching","stranger","Stranger","Stranger",701,0.701,1
3,6,355,"Matching","self","Self","Self",372,0.372,1
3,6,356,"Matching","stranger","Stranger","Stranger",541,0.541,1
3,6,357,"Nonmatching","mother","Mother","Close",544,0.544,1
3,6,358,"Nonmatching","stranger","Stranger","Stranger",599,0.599,1
3,6,359,"Nonmatching","stranger","Stranger","Stranger",658,0.658,1
3,6,360,"Matching","stranger","Stranger","Stranger",548,0.548,1
4,1,1,"Nonmatching","stranger","Stranger","Stranger",612,0.612,1
4,1,2,"Nonmatching","mother","Mother","Close",1097,1.097,1
4,1,4,"Matching","self","Self","Self",883,0.883,1
4,1,5,"Matching","self","Self","Self",1034,1.034,1
4,1,6,"Matching","self","Self","Self",537,0.537,1
4,1,7,"Matching","self","Self","Self",391,0.391,1
4,1,8,"Nonmatching","stranger","Stranger","Stranger",736,0.736,1
4,1,9,"Nonmatching","self","Self","Self",782,0.782,1
4,1,10,"Nonmatching","stranger","Stranger","Stranger",678,0.678,1
4,1,11,"Nonmatching","mother","Mother","Close",731,0.731,1
4,1,12,"Nonmatching","self","Self","Self",925,0.925,0
4,1,13,"Matching","stranger","Stranger","Stranger",834,0.834,1
4,1,14,"Nonmatching","stranger","Stranger","Stranger",542,0.542,1
4,1,15,"Nonmatching","self","Self","Self",728,0.728,1
4,1,16,"Nonmatching","self","Self","Self",873,0.873,1
4,1,17,"Nonmatching","self","Self","Self",555,0.555,1
4,1,18,"Matching","stranger","Stranger","Stranger",582,0.582,1
4,1,19,"Nonmatching","stranger","Stranger","Stranger",730,0.73,1
4,1,20,"Matching","mother","Mother","Close",925,0.925,1
4,1,21,"Matching","self","Self","Self",939,0.939,1
4,1,22,"Nonmatching","stranger","Stranger","Stranger",758,0.758,1
4,1,23,"Nonmatching","stranger","Stranger","Stranger",826,0.826,1
4,1,24,"Nonmatching","mother","Mother","Close",852,0.852,0
4,1,25,"Nonmatching","self","Self","Self",585,0.585,1
4,1,26,"Matching","stranger","Stranger","Stranger",905,0.905,1
4,1,27,"Matching","stranger","Stranger","Stranger",669,0.669,1
4,1,28,"Nonmatching","stranger","Stranger","Stranger",617,0.617,1
4,1,29,"Matching","stranger","Stranger","Stranger",752,0.752,1
4,1,30,"Nonmatching","stranger","Stranger","Stranger",684,0.684,1
4,1,31,"Nonmatching","mother","Mother","Close",779,0.779,1
4,1,32,"Matching","stranger","Stranger","Stranger",720,0.72,1
4,1,33,"Matching","self","Self","Self",587,0.587,1
4,1,34,"Matching","mother","Mother","Close",1070,1.07,0
4,1,35,"Nonmatching","mother","Mother","Close",589,0.589,1
4,1,36,"Nonmatching","stranger","Stranger","Stranger",767,0.767,1
4,1,37,"Nonmatching","mother","Mother","Close",718,0.718,1
4,1,38,"Matching","stranger","Stranger","Stranger",821,0.821,1
4,1,39,"Nonmatching","self","Self","Self",534,0.534,1
4,1,40,"Matching","self","Self","Self",543,0.543,1
4,1,41,"Matching","mother","Mother","Close",710,0.71,1
4,1,42,"Matching","stranger","Stranger","Stranger",814,0.814,1
4,1,43,"Matching","stranger","Stranger","Stranger",584,0.584,1
4,1,44,"Matching","self","Self","Self",450,0.45,1
4,1,45,"Matching","self","Self","Self",423,0.423,1
4,1,46,"Matching","stranger","Stranger","Stranger",736,0.736,1
4,1,47,"Matching","stranger","Stranger","Stranger",414,0.414,1
4,1,48,"Nonmatching","mother","Mother","Close",664,0.664,1
4,1,49,"Nonmatching","self","Self","Self",817,0.817,1
4,1,50,"Matching","stranger","Stranger","Stranger",690,0.69,1
4,1,51,"Matching","self","Self","Self",373,0.373,1
4,1,52,"Matching","self","Self","Self",397,0.397,1
4,1,53,"Nonmatching","mother","Mother","Close",578,0.578,0
4,1,54,"Nonmatching","mother","Mother","Close",923,0.923,1
4,1,55,"Nonmatching","mother","Mother","Close",632,0.632,1
4,1,56,"Matching","stranger","Stranger","Stranger",602,0.602,1
4,1,57,"Nonmatching","self","Self","Self",552,0.552,1
4,1,58,"Nonmatching","self","Self","Self",650,0.65,1
4,1,59,"Matching","self","Self","Self",456,0.456,1
4,1,60,"Matching","self","Self","Self",395,0.395,1
4,2,61,"Nonmatching","mother","Mother","Close",773,0.773,1
4,2,62,"Nonmatching","self","Self","Self",487,0.487,1
4,2,63,"Nonmatching","stranger","Stranger","Stranger",557,0.557,1
4,2,64,"Matching","self","Self","Self",646,0.646,1
4,2,65,"Matching","stranger","Stranger","Stranger",662,0.662,1
4,2,66,"Matching","self","Self","Self",582,0.582,1
4,2,67,"Matching","self","Self","Self",351,0.351,1
4,2,68,"Nonmatching","self","Self","Self",435,0.435,1
4,2,69,"Matching","mother","Mother","Close",692,0.692,1
4,2,70,"Nonmatching","self","Self","Self",504,0.504,1
4,2,71,"Nonmatching","self","Self","Self",466,0.466,1
4,2,72,"Matching","self","Self","Self",432,0.432,1
4,2,73,"Nonmatching","self","Self","Self",611,0.611,1
4,2,74,"Nonmatching","mother","Mother","Close",532,0.532,1
4,2,75,"Matching","stranger","Stranger","Stranger",735,0.735,1
4,2,76,"Nonmatching","self","Self","Self",543,0.543,1
4,2,77,"Matching","stranger","Stranger","Stranger",581,0.581,0
4,2,78,"Matching","stranger","Stranger","Stranger",579,0.579,0
4,2,79,"Matching","self","Self","Self",482,0.482,1
4,2,80,"Nonmatching","mother","Mother","Close",566,0.566,1
4,2,81,"Matching","mother","Mother","Close",714,0.714,1
4,2,82,"Nonmatching","stranger","Stranger","Stranger",740,0.74,1
4,2,83,"Matching","stranger","Stranger","Stranger",532,0.532,1
4,2,84,"Matching","stranger","Stranger","Stranger",559,0.559,1
4,2,85,"Matching","self","Self","Self",363,0.363,1
4,2,86,"Matching","stranger","Stranger","Stranger",607,0.607,0
4,2,87,"Matching","stranger","Stranger","Stranger",653,0.653,1
4,2,88,"Matching","stranger","Stranger","Stranger",454,0.454,1
4,2,89,"Matching","mother","Mother","Close",501,0.501,1
4,2,90,"Matching","self","Self","Self",393,0.393,1
4,2,91,"Nonmatching","self","Self","Self",481,0.481,1
4,2,92,"Nonmatching","stranger","Stranger","Stranger",1153,1.153,1
4,2,93,"Nonmatching","mother","Mother","Close",607,0.607,1
4,2,94,"Matching","self","Self","Self",328,0.328,1
4,2,95,"Matching","stranger","Stranger","Stranger",620,0.62,1
4,2,96,"Nonmatching","stranger","Stranger","Stranger",442,0.442,1
4,2,97,"Nonmatching","mother","Mother","Close",670,0.67,1
4,2,98,"Matching","stranger","Stranger","Stranger",571,0.571,1
4,2,99,"Nonmatching","mother","Mother","Close",718,0.718,1
4,2,100,"Nonmatching","self","Self","Self",550,0.55,1
4,2,101,"Nonmatching","stranger","Stranger","Stranger",513,0.513,1
4,2,102,"Nonmatching","stranger","Stranger","Stranger",609,0.609,1
4,2,103,"Matching","stranger","Stranger","Stranger",504,0.504,1
4,2,104,"Matching","self","Self","Self",370,0.37,1
4,2,105,"Nonmatching","mother","Mother","Close",553,0.553,1
4,2,106,"Nonmatching","mother","Mother","Close",607,0.607,1
4,2,107,"Nonmatching","self","Self","Self",518,0.518,1
4,2,108,"Nonmatching","stranger","Stranger","Stranger",650,0.65,1
4,2,109,"Matching","mother","Mother","Close",680,0.68,1
4,2,110,"Matching","stranger","Stranger","Stranger",675,0.675,1
4,2,111,"Nonmatching","stranger","Stranger","Stranger",426,0.426,1
4,2,112,"Nonmatching","stranger","Stranger","Stranger",587,0.587,1
4,2,113,"Matching","self","Self","Self",364,0.364,1
4,2,114,"Matching","self","Self","Self",426,0.426,1
4,2,115,"Matching","self","Self","Self",368,0.368,1
4,2,116,"Nonmatching","self","Self","Self",476,0.476,1
4,2,117,"Nonmatching","stranger","Stranger","Stranger",586,0.586,1
4,2,118,"Nonmatching","mother","Mother","Close",453,0.453,1
4,2,119,"Nonmatching","mother","Mother","Close",435,0.435,1
4,2,120,"Matching","self","Self","Self",725,0.725,1
4,3,121,"Matching","stranger","Stranger","Stranger",567,0.567,1
4,3,122,"Nonmatching","stranger","Stranger","Stranger",416,0.416,1
4,3,123,"Nonmatching","self","Self","Self",423,0.423,1
4,3,124,"Matching","self","Self","Self",560,0.56,1
4,3,125,"Nonmatching","self","Self","Self",433,0.433,1
4,3,126,"Nonmatching","stranger","Stranger","Stranger",441,0.441,1
4,3,127,"Nonmatching","self","Self","Self",738,0.738,1
4,3,128,"Matching","mother","Mother","Close",495,0.495,1
4,3,129,"Nonmatching","stranger","Stranger","Stranger",573,0.573,1
4,3,130,"Nonmatching","mother","Mother","Close",586,0.586,1
4,3,131,"Matching","self","Self","Self",391,0.391,1
4,3,132,"Matching","stranger","Stranger","Stranger",460,0.46,1
4,3,133,"Matching","stranger","Stranger","Stranger",345,0.345,1
4,3,134,"Nonmatching","mother","Mother","Close",408,0.408,1
4,3,135,"Nonmatching","mother","Mother","Close",552,0.552,1
4,3,136,"Nonmatching","stranger","Stranger","Stranger",450,0.45,0
4,3,137,"Matching","self","Self","Self",363,0.363,1
4,3,138,"Matching","stranger","Stranger","Stranger",625,0.625,1
4,3,139,"Matching","stranger","Stranger","Stranger",366,0.366,1
4,3,140,"Nonmatching","mother","Mother","Close",525,0.525,1
4,3,141,"Nonmatching","mother","Mother","Close",475,0.475,1
4,3,142,"Nonmatching","stranger","Stranger","Stranger",863,0.863,1
4,3,143,"Nonmatching","self","Self","Self",477,0.477,1
4,3,144,"Matching","stranger","Stranger","Stranger",604,0.604,1
4,3,145,"Nonmatching","self","Self","Self",718,0.718,1
4,3,146,"Nonmatching","mother","Mother","Close",473,0.473,1
4,3,147,"Matching","self","Self","Self",605,0.605,1
4,3,148,"Matching","stranger","Stranger","Stranger",661,0.661,1
4,3,149,"Matching","self","Self","Self",406,0.406,1
4,3,150,"Matching","self","Self","Self",396,0.396,1
4,3,151,"Nonmatching","self","Self","Self",457,0.457,1
4,3,152,"Matching","stranger","Stranger","Stranger",710,0.71,1
4,3,153,"Nonmatching","mother","Mother","Close",394,0.394,1
4,3,154,"Matching","stranger","Stranger","Stranger",570,0.57,1
4,3,155,"Matching","self","Self","Self",356,0.356,1
4,3,156,"Matching","mother","Mother","Close",496,0.496,1
4,3,157,"Matching","self","Self","Self",351,0.351,1
4,3,158,"Nonmatching","mother","Mother","Close",599,0.599,1
4,3,159,"Nonmatching","stranger","Stranger","Stranger",890,0.89,1
4,3,160,"Nonmatching","self","Self","Self",450,0.45,1
4,3,161,"Matching","stranger","Stranger","Stranger",692,0.692,1
4,3,162,"Nonmatching","self","Self","Self",757,0.757,1
4,3,163,"Matching","stranger","Stranger","Stranger",386,0.386,1
4,3,164,"Nonmatching","stranger","Stranger","Stranger",416,0.416,1
4,3,165,"Nonmatching","stranger","Stranger","Stranger",576,0.576,1
4,3,166,"Nonmatching","self","Self","Self",609,0.609,1
4,3,167,"Nonmatching","mother","Mother","Close",534,0.534,1
4,3,168,"Matching","stranger","Stranger","Stranger",560,0.56,1
4,3,169,"Matching","self","Self","Self",607,0.607,1
4,3,170,"Nonmatching","self","Self","Self",427,0.427,1
4,3,171,"Matching","stranger","Stranger","Stranger",559,0.559,1
4,3,172,"Nonmatching","stranger","Stranger","Stranger",742,0.742,1
4,3,173,"Matching","mother","Mother","Close",397,0.397,1
4,3,174,"Matching","mother","Mother","Close",409,0.409,1
4,3,175,"Matching","self","Self","Self",486,0.486,1
4,3,176,"Nonmatching","mother","Mother","Close",544,0.544,1
4,3,177,"Matching","self","Self","Self",455,0.455,1
4,3,178,"Matching","self","Self","Self",391,0.391,1
4,3,179,"Matching","self","Self","Self",730,0.73,1
4,3,180,"Nonmatching","stranger","Stranger","Stranger",634,0.634,1
4,4,181,"Nonmatching","self","Self","Self",563,0.563,1
4,4,182,"Nonmatching","self","Self","Self",452,0.452,1
4,4,183,"Nonmatching","self","Self","Self",391,0.391,1
4,4,184,"Matching","mother","Mother","Close",730,0.73,0
4,4,185,"Nonmatching","stranger","Stranger","Stranger",704,0.704,1
4,4,186,"Nonmatching","stranger","Stranger","Stranger",600,0.6,1
4,4,187,"Matching","self","Self","Self",482,0.482,1
4,4,188,"Matching","self","Self","Self",321,0.321,1
4,4,189,"Nonmatching","mother","Mother","Close",601,0.601,1
4,4,190,"Matching","stranger","Stranger","Stranger",583,0.583,1
4,4,191,"Matching","self","Self","Self",374,0.374,1
4,4,192,"Nonmatching","self","Self","Self",471,0.471,1
4,4,193,"Nonmatching","mother","Mother","Close",774,0.774,1
4,4,194,"Nonmatching","self","Self","Self",742,0.742,1
4,4,195,"Matching","self","Self","Self",630,0.63,1
4,4,196,"Matching","mother","Mother","Close",710,0.71,1
4,4,197,"Nonmatching","mother","Mother","Close",670,0.67,1
4,4,198,"Matching","self","Self","Self",1196,1.196,1
4,4,199,"Nonmatching","stranger","Stranger","Stranger",558,0.558,1
4,4,200,"Nonmatching","stranger","Stranger","Stranger",628,0.628,1
4,4,201,"Matching","self","Self","Self",724,0.724,1
4,4,202,"Matching","stranger","Stranger","Stranger",768,0.768,1
4,4,203,"Matching","self","Self","Self",624,0.624,1
4,4,204,"Nonmatching","stranger","Stranger","Stranger",733,0.733,1
4,4,205,"Matching","stranger","Stranger","Stranger",607,0.607,1
4,4,206,"Nonmatching","self","Self","Self",558,0.558,1
4,4,207,"Nonmatching","mother","Mother","Close",590,0.59,1
4,4,208,"Matching","self","Self","Self",516,0.516,1
4,4,209,"Matching","stranger","Stranger","Stranger",724,0.724,1
4,4,210,"Matching","stranger","Stranger","Stranger",408,0.408,1
4,4,211,"Matching","stranger","Stranger","Stranger",364,0.364,1
4,4,212,"Matching","stranger","Stranger","Stranger",316,0.316,1
4,4,213,"Matching","stranger","Stranger","Stranger",324,0.324,1
4,4,214,"Nonmatching","stranger","Stranger","Stranger",748,0.748,1
4,4,215,"Nonmatching","mother","Mother","Close",527,0.527,1
4,4,216,"Nonmatching","mother","Mother","Close",545,0.545,1
4,4,217,"Nonmatching","mother","Mother","Close",482,0.482,1
4,4,218,"Nonmatching","stranger","Stranger","Stranger",701,0.701,1
4,4,219,"Matching","stranger","Stranger","Stranger",499,0.499,1
4,4,220,"Nonmatching","self","Self","Self",470,0.47,1
4,4,221,"Matching","stranger","Stranger","Stranger",983,0.983,0
4,4,222,"Nonmatching","stranger","Stranger","Stranger",735,0.735,1
4,4,223,"Nonmatching","mother","Mother","Close",603,0.603,1
4,4,224,"Matching","self","Self","Self",575,0.575,1
4,4,225,"Nonmatching","mother","Mother","Close",497,0.497,1
4,4,226,"Nonmatching","self","Self","Self",454,0.454,1
4,4,227,"Matching","self","Self","Self",698,0.698,1
4,4,228,"Nonmatching","mother","Mother","Close",886,0.886,1
4,4,229,"Nonmatching","self","Self","Self",448,0.448,1
4,4,230,"Matching","mother","Mother","Close",491,0.491,1
4,4,231,"Matching","stranger","Stranger","Stranger",637,0.637,1
4,4,232,"Matching","self","Self","Self",674,0.674,1
4,4,233,"Matching","self","Self","Self",457,0.457,1
4,4,234,"Matching","self","Self","Self",339,0.339,1
4,4,235,"Matching","stranger","Stranger","Stranger",539,0.539,1
4,4,236,"Nonmatching","self","Self","Self",806,0.806,1
4,4,237,"Matching","stranger","Stranger","Stranger",380,0.38,1
4,4,238,"Matching","mother","Mother","Close",382,0.382,1
4,4,239,"Nonmatching","stranger","Stranger","Stranger",548,0.548,1
4,4,240,"Nonmatching","stranger","Stranger","Stranger",616,0.616,1
4,5,241,"Matching","stranger","Stranger","Stranger",661,0.661,1
4,5,242,"Matching","stranger","Stranger","Stranger",380,0.38,1
4,5,243,"Matching","stranger","Stranger","Stranger",300,0.3,1
4,5,244,"Nonmatching","stranger","Stranger","Stranger",214,0.214,0
4,5,245,"Matching","stranger","Stranger","Stranger",434,0.434,1
4,5,246,"Matching","mother","Mother","Close",553,0.553,0
4,5,247,"Nonmatching","mother","Mother","Close",744,0.744,1
4,5,248,"Nonmatching","stranger","Stranger","Stranger",720,0.72,1
4,5,249,"Nonmatching","self","Self","Self",546,0.546,1
4,5,250,"Matching","self","Self","Self",417,0.417,1
4,5,251,"Nonmatching","stranger","Stranger","Stranger",597,0.597,1
4,5,252,"Matching","stranger","Stranger","Stranger",588,0.588,1
4,5,253,"Matching","self","Self","Self",559,0.559,1
4,5,254,"Nonmatching","mother","Mother","Close",571,0.571,1
4,5,255,"Matching","stranger","Stranger","Stranger",797,0.797,1
4,5,256,"Matching","self","Self","Self",476,0.476,1
4,5,257,"Nonmatching","stranger","Stranger","Stranger",588,0.588,1
4,5,258,"Nonmatching","stranger","Stranger","Stranger",800,0.8,1
4,5,259,"Matching","stranger","Stranger","Stranger",569,0.569,1
4,5,260,"Matching","self","Self","Self",323,0.323,1
4,5,261,"Matching","self","Self","Self",342,0.342,1
4,5,262,"Matching","self","Self","Self",304,0.304,1
4,5,263,"Matching","self","Self","Self",373,0.373,1
4,5,264,"Matching","stranger","Stranger","Stranger",459,0.459,1
4,5,265,"Matching","stranger","Stranger","Stranger",621,0.621,1
4,5,266,"Nonmatching","self","Self","Self",827,0.827,1
4,5,267,"Nonmatching","mother","Mother","Close",652,0.652,1
4,5,268,"Nonmatching","mother","Mother","Close",542,0.542,1
4,5,269,"Matching","self","Self","Self",500,0.5,1
4,5,270,"Nonmatching","self","Self","Self",658,0.658,1
4,5,271,"Nonmatching","mother","Mother","Close",500,0.5,1
4,5,272,"Matching","self","Self","Self",957,0.957,1
4,5,273,"Nonmatching","stranger","Stranger","Stranger",680,0.68,1
4,5,274,"Nonmatching","mother","Mother","Close",866,0.866,1
4,5,275,"Matching","self","Self","Self",338,0.338,1
4,5,276,"Matching","stranger","Stranger","Stranger",527,0.527,1
4,5,277,"Matching","mother","Mother","Close",524,0.524,1
4,5,278,"Nonmatching","self","Self","Self",543,0.543,1
4,5,279,"Matching","stranger","Stranger","Stranger",753,0.753,0
4,5,280,"Matching","stranger","Stranger","Stranger",473,0.473,1
4,5,281,"Nonmatching","self","Self","Self",486,0.486,1
4,5,282,"Nonmatching","self","Self","Self",498,0.498,1
4,5,283,"Nonmatching","self","Self","Self",528,0.528,1
4,5,284,"Nonmatching","mother","Mother","Close",570,0.57,1
4,5,285,"Matching","self","Self","Self",483,0.483,1
4,5,286,"Matching","mother","Mother","Close",481,0.481,1
4,5,287,"Nonmatching","stranger","Stranger","Stranger",634,0.634,1
4,5,288,"Matching","self","Self","Self",470,0.47,1
4,5,289,"Nonmatching","stranger","Stranger","Stranger",590,0.59,1
4,5,290,"Nonmatching","self","Self","Self",733,0.733,1
4,5,291,"Matching","stranger","Stranger","Stranger",844,0.844,1
4,5,292,"Nonmatching","stranger","Stranger","Stranger",622,0.622,1
4,5,293,"Nonmatching","mother","Mother","Close",758,0.758,1
4,5,294,"Nonmatching","self","Self","Self",548,0.548,1
4,5,295,"Matching","self","Self","Self",799,0.799,1
4,5,296,"Nonmatching","mother","Mother","Close",758,0.758,1
4,5,297,"Matching","mother","Mother","Close",662,0.662,0
4,5,298,"Nonmatching","mother","Mother","Close",647,0.647,1
4,5,299,"Nonmatching","stranger","Stranger","Stranger",694,0.694,1
4,5,300,"Nonmatching","self","Self","Self",497,0.497,1
4,6,301,"Matching","self","Self","Self",402,0.402,1
4,6,302,"Nonmatching","mother","Mother","Close",1032,1.032,1
4,6,303,"Nonmatching","mother","Mother","Close",627,0.627,1
4,6,304,"Nonmatching","stranger","Stranger","Stranger",769,0.769,1
4,6,305,"Matching","stranger","Stranger","Stranger",705,0.705,1
4,6,306,"Matching","self","Self","Self",627,0.627,1
4,6,307,"Nonmatching","self","Self","Self",929,0.929,1
4,6,308,"Matching","mother","Mother","Close",511,0.511,1
4,6,309,"Matching","stranger","Stranger","Stranger",707,0.707,1
4,6,310,"Matching","self","Self","Self",377,0.377,1
4,6,311,"Nonmatching","mother","Mother","Close",502,0.502,1
4,6,312,"Matching","mother","Mother","Close",848,0.848,1
4,6,313,"Nonmatching","self","Self","Self",476,0.476,1
4,6,314,"Nonmatching","stranger","Stranger","Stranger",742,0.742,1
4,6,315,"Nonmatching","mother","Mother","Close",643,0.643,1
4,6,316,"Nonmatching","self","Self","Self",460,0.46,1
4,6,317,"Matching","mother","Mother","Close",585,0.585,1
4,6,318,"Nonmatching","stranger","Stranger","Stranger",687,0.687,1
4,6,319,"Matching","self","Self","Self",359,0.359,1
4,6,320,"Matching","stranger","Stranger","Stranger",677,0.677,1
4,6,321,"Matching","stranger","Stranger","Stranger",599,0.599,1
4,6,322,"Nonmatching","stranger","Stranger","Stranger",498,0.498,1
4,6,323,"Matching","stranger","Stranger","Stranger",562,0.562,1
4,6,324,"Matching","self","Self","Self",367,0.367,1
4,6,325,"Nonmatching","self","Self","Self",942,0.942,1
4,6,326,"Nonmatching","self","Self","Self",485,0.485,1
4,6,327,"Nonmatching","stranger","Stranger","Stranger",922,0.922,1
4,6,328,"Nonmatching","self","Self","Self",460,0.46,1
4,6,329,"Matching","stranger","Stranger","Stranger",684,0.684,1
4,6,330,"Matching","stranger","Stranger","Stranger",472,0.472,1
4,6,331,"Nonmatching","mother","Mother","Close",569,0.569,1
4,6,332,"Matching","self","Self","Self",390,0.39,1
4,6,333,"Nonmatching","mother","Mother","Close",722,0.722,1
4,6,334,"Matching","self","Self","Self",626,0.626,1
4,6,335,"Nonmatching","mother","Mother","Close",684,0.684,1
4,6,336,"Nonmatching","self","Self","Self",574,0.574,1
4,6,337,"Matching","self","Self","Self",476,0.476,1
4,6,338,"Matching","self","Self","Self",392,0.392,1
4,6,339,"Matching","stranger","Stranger","Stranger",441,0.441,1
4,6,340,"Nonmatching","stranger","Stranger","Stranger",499,0.499,1
4,6,341,"Nonmatching","stranger","Stranger","Stranger",705,0.705,1
4,6,342,"Nonmatching","stranger","Stranger","Stranger",585,0.585,1
4,6,343,"Nonmatching","mother","Mother","Close",574,0.574,1
4,6,344,"Nonmatching","self","Self","Self",483,0.483,1
4,6,345,"Matching","stranger","Stranger","Stranger",504,0.504,1
4,6,346,"Matching","stranger","Stranger","Stranger",636,0.636,1
4,6,347,"Nonmatching","stranger","Stranger","Stranger",516,0.516,1
4,6,348,"Matching","self","Self","Self",427,0.427,1
4,6,349,"Nonmatching","self","Self","Self",618,0.618,1
4,6,350,"Matching","self","Self","Self",441,0.441,1
4,6,351,"Nonmatching","mother","Mother","Close",573,0.573,1
4,6,352,"Nonmatching","stranger","Stranger","Stranger",912,0.912,1
4,6,353,"Matching","stranger","Stranger","Stranger",641,0.641,1
4,6,354,"Matching","self","Self","Self",431,0.431,1
4,6,355,"Matching","mother","Mother","Close",738,0.738,1
4,6,356,"Matching","stranger","Stranger","Stranger",690,0.69,1
4,6,357,"Nonmatching","mother","Mother","Close",631,0.631,1
4,6,358,"Nonmatching","self","Self","Self",550,0.55,1
4,6,359,"Matching","stranger","Stranger","Stranger",554,0.554,1
4,6,360,"Matching","self","Self","Self",407,0.407,1
5,1,1,"Nonmatching","mother","Mother","Close",709,0.709,1
5,1,3,"Matching","stranger","Stranger","Stranger",839,0.839,1
5,1,5,"Nonmatching","self","Self","Self",1130,1.13,1
5,1,6,"Nonmatching","self","Self","Self",664,0.664,1
5,1,7,"Nonmatching","stranger","Stranger","Stranger",620,0.62,1
5,1,8,"Nonmatching","self","Self","Self",508,0.508,1
5,1,9,"Matching","stranger","Stranger","Stranger",471,0.471,0
5,1,10,"Matching","stranger","Stranger","Stranger",588,0.588,1
5,1,11,"Nonmatching","mother","Mother","Close",624,0.624,1
5,1,12,"Nonmatching","mother","Mother","Close",1099,1.099,1
5,1,13,"Nonmatching","self","Self","Self",778,0.778,1
5,1,14,"Nonmatching","stranger","Stranger","Stranger",839,0.839,1
5,1,15,"Matching","stranger","Stranger","Stranger",604,0.604,1
5,1,16,"Matching","self","Self","Self",373,0.373,1
5,1,17,"Matching","self","Self","Self",346,0.346,1
5,1,18,"Matching","self","Self","Self",322,0.322,1
5,1,19,"Nonmatching","self","Self","Self",434,0.434,1
5,1,20,"Nonmatching","mother","Mother","Close",650,0.65,1
5,1,21,"Matching","mother","Mother","Close",712,0.712,1
5,1,22,"Matching","self","Self","Self",374,0.374,1
5,1,23,"Matching","stranger","Stranger","Stranger",708,0.708,0
5,1,24,"Nonmatching","mother","Mother","Close",823,0.823,1
5,1,25,"Nonmatching","self","Self","Self",588,0.588,1
5,1,26,"Nonmatching","self","Self","Self",769,0.769,1
5,1,27,"Matching","self","Self","Self",346,0.346,1
5,1,28,"Matching","self","Self","Self",483,0.483,1
5,1,29,"Matching","self","Self","Self",352,0.352,1
5,1,30,"Matching","self","Self","Self",348,0.348,1
5,1,31,"Nonmatching","mother","Mother","Close",882,0.882,1
5,1,32,"Matching","self","Self","Self",754,0.754,1
5,1,33,"Nonmatching","stranger","Stranger","Stranger",762,0.762,1
5,1,34,"Matching","stranger","Stranger","Stranger",1310,1.31,1
5,1,35,"Nonmatching","stranger","Stranger","Stranger",554,0.554,1
5,1,36,"Nonmatching","mother","Mother","Close",811,0.811,1
5,1,37,"Nonmatching","self","Self","Self",566,0.566,1
5,1,38,"Matching","mother","Mother","Close",577,0.577,1
5,1,39,"Matching","stranger","Stranger","Stranger",880,0.88,1
5,1,40,"Matching","self","Self","Self",476,0.476,1
5,1,41,"Nonmatching","stranger","Stranger","Stranger",641,0.641,1
5,1,42,"Nonmatching","mother","Mother","Close",732,0.732,1
5,1,43,"Nonmatching","stranger","Stranger","Stranger",591,0.591,1
5,1,44,"Matching","stranger","Stranger","Stranger",655,0.655,1
5,1,45,"Nonmatching","self","Self","Self",651,0.651,1
5,1,46,"Matching","self","Self","Self",797,0.797,1
5,1,47,"Nonmatching","stranger","Stranger","Stranger",544,0.544,1
5,1,48,"Nonmatching","stranger","Stranger","Stranger",776,0.776,1
5,1,49,"Matching","mother","Mother","Close",1002,1.002,1
5,1,50,"Matching","stranger","Stranger","Stranger",941,0.941,1
5,1,51,"Matching","stranger","Stranger","Stranger",413,0.413,1
5,1,52,"Matching","stranger","Stranger","Stranger",336,0.336,1
5,1,53,"Matching","mother","Mother","Close",670,0.67,1
5,1,54,"Nonmatching","mother","Mother","Close",621,0.621,1
5,1,55,"Nonmatching","stranger","Stranger","Stranger",1033,1.033,1
5,1,56,"Matching","self","Self","Self",353,0.353,1
5,1,57,"Matching","stranger","Stranger","Stranger",541,0.541,1
5,1,58,"Nonmatching","self","Self","Self",501,0.501,1
5,1,59,"Matching","self","Self","Self",366,0.366,1
5,1,60,"Nonmatching","mother","Mother","Close",658,0.658,1
5,2,61,"Matching","self","Self","Self",381,0.381,1
5,2,62,"Matching","stranger","Stranger","Stranger",736,0.736,1
5,2,63,"Matching","mother","Mother","Close",430,0.43,1
5,2,64,"Nonmatching","self","Self","Self",462,0.462,1
5,2,65,"Matching","stranger","Stranger","Stranger",442,0.442,1
5,2,66,"Matching","mother","Mother","Close",736,0.736,1
5,2,67,"Matching","stranger","Stranger","Stranger",425,0.425,1
5,2,68,"Nonmatching","self","Self","Self",683,0.683,1
5,2,69,"Nonmatching","self","Self","Self",685,0.685,1
5,2,70,"Nonmatching","stranger","Stranger","Stranger",635,0.635,1
5,2,71,"Matching","self","Self","Self",330,0.33,1
5,2,72,"Nonmatching","self","Self","Self",477,0.477,1
5,2,73,"Matching","self","Self","Self",362,0.362,1
5,2,74,"Matching","stranger","Stranger","Stranger",613,0.613,1
5,2,75,"Nonmatching","mother","Mother","Close",556,0.556,1
5,2,76,"Nonmatching","mother","Mother","Close",749,0.749,1
5,2,77,"Matching","self","Self","Self",360,0.36,1
5,2,78,"Nonmatching","mother","Mother","Close",584,0.584,1
5,2,79,"Nonmatching","mother","Mother","Close",779,0.779,1
5,2,80,"Matching","self","Self","Self",363,0.363,1
5,2,81,"Matching","mother","Mother","Close",768,0.768,1
5,2,82,"Nonmatching","mother","Mother","Close",466,0.466,1
5,2,83,"Nonmatching","stranger","Stranger","Stranger",759,0.759,1
5,2,84,"Nonmatching","stranger","Stranger","Stranger",679,0.679,1
5,2,85,"Matching","self","Self","Self",385,0.385,1
5,2,86,"Nonmatching","self","Self","Self",410,0.41,1
5,2,87,"Matching","self","Self","Self",814,0.814,1
5,2,88,"Matching","stranger","Stranger","Stranger",538,0.538,1
5,2,89,"Matching","stranger","Stranger","Stranger",333,0.333,1
5,2,90,"Nonmatching","mother","Mother","Close",514,0.514,1
5,2,91,"Nonmatching","stranger","Stranger","Stranger",661,0.661,1
5,2,92,"Nonmatching","self","Self","Self",461,0.461,1
5,2,93,"Matching","stranger","Stranger","Stranger",547,0.547,1
5,2,94,"Nonmatching","stranger","Stranger","Stranger",430,0.43,1
5,2,95,"Matching","self","Self","Self",339,0.339,1
5,2,96,"Nonmatching","stranger","Stranger","Stranger",494,0.494,1
5,2,97,"Matching","stranger","Stranger","Stranger",582,0.582,1
5,2,98,"Nonmatching","stranger","Stranger","Stranger",429,0.429,1
5,2,100,"Matching","mother","Mother","Close",465,0.465,1
5,2,101,"Matching","self","Self","Self",318,0.318,1
5,2,102,"Nonmatching","mother","Mother","Close",573,0.573,1
5,2,103,"Matching","stranger","Stranger","Stranger",585,0.585,1
5,2,104,"Nonmatching","self","Self","Self",519,0.519,1
5,2,105,"Nonmatching","mother","Mother","Close",517,0.517,1
5,2,106,"Nonmatching","mother","Mother","Close",646,0.646,1
5,2,107,"Matching","self","Self","Self",357,0.357,1
5,2,108,"Nonmatching","mother","Mother","Close",670,0.67,1
5,2,109,"Nonmatching","self","Self","Self",566,0.566,1
5,2,110,"Nonmatching","self","Self","Self",636,0.636,1
5,2,111,"Nonmatching","stranger","Stranger","Stranger",563,0.563,1
5,2,112,"Nonmatching","stranger","Stranger","Stranger",472,0.472,1
5,2,113,"Matching","self","Self","Self",352,0.352,1
5,2,114,"Matching","self","Self","Self",319,0.319,1
5,2,115,"Matching","self","Self","Self",320,0.32,1
5,2,116,"Matching","stranger","Stranger","Stranger",480,0.48,1
5,2,117,"Matching","stranger","Stranger","Stranger",352,0.352,1
5,2,118,"Nonmatching","self","Self","Self",437,0.437,1
5,2,119,"Nonmatching","stranger","Stranger","Stranger",974,0.974,1
5,2,120,"Matching","stranger","Stranger","Stranger",692,0.692,1
5,3,121,"Nonmatching","mother","Mother","Close",453,0.453,1
5,3,122,"Matching","stranger","Stranger","Stranger",573,0.573,1
5,3,123,"Matching","stranger","Stranger","Stranger",788,0.788,1
5,3,124,"Matching","stranger","Stranger","Stranger",336,0.336,1
5,3,125,"Nonmatching","self","Self","Self",625,0.625,1
5,3,126,"Matching","stranger","Stranger","Stranger",390,0.39,1
5,3,127,"Matching","self","Self","Self",758,0.758,1
5,3,128,"Matching","stranger","Stranger","Stranger",379,0.379,1
5,3,129,"Nonmatching","stranger","Stranger","Stranger",611,0.611,1
5,3,130,"Nonmatching","self","Self","Self",448,0.448,1
5,3,131,"Nonmatching","mother","Mother","Close",528,0.528,1
5,3,132,"Matching","self","Self","Self",356,0.356,1
5,3,133,"Matching","stranger","Stranger","Stranger",553,0.553,1
5,3,134,"Matching","mother","Mother","Close",422,0.422,1
5,3,135,"Nonmatching","stranger","Stranger","Stranger",621,0.621,1
5,3,136,"Matching","mother","Mother","Close",398,0.398,1
5,3,137,"Nonmatching","stranger","Stranger","Stranger",684,0.684,1
5,3,138,"Matching","self","Self","Self",740,0.74,1
5,3,139,"Matching","self","Self","Self",376,0.376,1
5,3,140,"Nonmatching","stranger","Stranger","Stranger",472,0.472,1
5,3,141,"Matching","stranger","Stranger","Stranger",533,0.533,1
5,3,142,"Nonmatching","mother","Mother","Close",540,0.54,1
5,3,143,"Nonmatching","self","Self","Self",774,0.774,1
5,3,144,"Nonmatching","self","Self","Self",495,0.495,1
5,3,145,"Nonmatching","self","Self","Self",669,0.669,1
5,3,146,"Matching","self","Self","Self",379,0.379,1
5,3,147,"Matching","self","Self","Self",347,0.347,1
5,3,148,"Nonmatching","mother","Mother","Close",426,0.426,1
5,3,149,"Nonmatching","mother","Mother","Close",675,0.675,1
5,3,150,"Matching","self","Self","Self",489,0.489,1
5,3,151,"Matching","stranger","Stranger","Stranger",532,0.532,0
5,3,152,"Nonmatching","self","Self","Self",798,0.798,1
5,3,153,"Matching","stranger","Stranger","Stranger",935,0.935,1
5,3,154,"Nonmatching","mother","Mother","Close",688,0.688,1
5,3,155,"Matching","self","Self","Self",551,0.551,1
5,3,156,"Matching","self","Self","Self",347,0.347,1
5,3,157,"Nonmatching","stranger","Stranger","Stranger",602,0.602,1
5,3,158,"Matching","stranger","Stranger","Stranger",543,0.543,1
5,3,159,"Nonmatching","stranger","Stranger","Stranger",635,0.635,1
5,3,160,"Nonmatching","stranger","Stranger","Stranger",544,0.544,1
5,3,161,"Nonmatching","self","Self","Self",478,0.478,1
5,3,162,"Matching","mother","Mother","Close",717,0.717,1
5,3,163,"Matching","self","Self","Self",377,0.377,1
5,3,164,"Matching","stranger","Stranger","Stranger",803,0.803,1
5,3,165,"Matching","self","Self","Self",352,0.352,1
5,3,166,"Matching","self","Self","Self",349,0.349,1
5,3,167,"Matching","stranger","Stranger","Stranger",447,0.447,1
5,3,168,"Nonmatching","stranger","Stranger","Stranger",475,0.475,1
5,3,169,"Matching","mother","Mother","Close",391,0.391,1
5,3,170,"Nonmatching","self","Self","Self",563,0.563,1
5,3,171,"Nonmatching","stranger","Stranger","Stranger",964,0.964,1
5,3,172,"Nonmatching","mother","Mother","Close",458,0.458,1
5,3,173,"Nonmatching","self","Self","Self",467,0.467,1
5,3,174,"Matching","self","Self","Self",345,0.345,1
5,3,175,"Nonmatching","stranger","Stranger","Stranger",594,0.594,1
5,3,176,"Nonmatching","mother","Mother","Close",628,0.628,1
5,3,177,"Nonmatching","mother","Mother","Close",641,0.641,1
5,3,178,"Nonmatching","mother","Mother","Close",579,0.579,1
5,3,179,"Nonmatching","self","Self","Self",498,0.498,1
5,3,180,"Matching","stranger","Stranger","Stranger",460,0.46,1
5,4,181,"Matching","mother","Mother","Close",510,0.51,0
5,4,182,"Nonmatching","mother","Mother","Close",605,0.605,1
5,4,183,"Nonmatching","mother","Mother","Close",655,0.655,1
5,4,184,"Matching","self","Self","Self",359,0.359,1
5,4,185,"Matching","stranger","Stranger","Stranger",1045,1.045,0
5,4,186,"Matching","mother","Mother","Close",564,0.564,1
5,4,187,"Nonmatching","stranger","Stranger","Stranger",941,0.941,1
5,4,188,"Nonmatching","stranger","Stranger","Stranger",1114,1.114,1
5,4,189,"Nonmatching","stranger","Stranger","Stranger",533,0.533,1
5,4,190,"Nonmatching","self","Self","Self",459,0.459,1
5,4,191,"Nonmatching","stranger","Stranger","Stranger",625,0.625,1
5,4,192,"Matching","self","Self","Self",321,0.321,1
5,4,193,"Matching","stranger","Stranger","Stranger",710,0.71,1
5,4,194,"Nonmatching","self","Self","Self",656,0.656,1
5,4,195,"Matching","self","Self","Self",779,0.779,1
5,4,196,"Matching","mother","Mother","Close",643,0.643,1
5,4,197,"Matching","self","Self","Self",456,0.456,1
5,4,198,"Nonmatching","stranger","Stranger","Stranger",725,0.725,1
5,4,199,"Nonmatching","self","Self","Self",416,0.416,1
5,4,200,"Nonmatching","mother","Mother","Close",782,0.782,1
5,4,201,"Nonmatching","self","Self","Self",954,0.954,1
5,4,202,"Matching","self","Self","Self",406,0.406,1
5,4,203,"Matching","self","Self","Self",354,0.354,1
5,4,204,"Matching","stranger","Stranger","Stranger",608,0.608,1
5,4,205,"Nonmatching","stranger","Stranger","Stranger",477,0.477,1
5,4,206,"Matching","stranger","Stranger","Stranger",729,0.729,1
5,4,207,"Nonmatching","mother","Mother","Close",486,0.486,1
5,4,208,"Nonmatching","stranger","Stranger","Stranger",653,0.653,1
5,4,209,"Matching","stranger","Stranger","Stranger",886,0.886,1
5,4,210,"Matching","stranger","Stranger","Stranger",374,0.374,1
5,4,211,"Nonmatching","stranger","Stranger","Stranger",410,0.41,1
5,4,212,"Matching","stranger","Stranger","Stranger",416,0.416,1
5,4,213,"Nonmatching","mother","Mother","Close",484,0.484,1
5,4,214,"Matching","self","Self","Self",527,0.527,1
5,4,215,"Matching","stranger","Stranger","Stranger",566,0.566,1
5,4,216,"Matching","self","Self","Self",448,0.448,1
5,4,217,"Matching","self","Self","Self",330,0.33,1
5,4,218,"Matching","self","Self","Self",390,0.39,1
5,4,219,"Matching","stranger","Stranger","Stranger",407,0.407,1
5,4,220,"Nonmatching","stranger","Stranger","Stranger",565,0.565,1
5,4,221,"Nonmatching","self","Self","Self",468,0.468,1
5,4,222,"Nonmatching","self","Self","Self",556,0.556,1
5,4,223,"Nonmatching","self","Self","Self",678,0.678,1
5,4,224,"Nonmatching","stranger","Stranger","Stranger",645,0.645,1
5,4,225,"Nonmatching","mother","Mother","Close",622,0.622,1
5,4,226,"Nonmatching","self","Self","Self",765,0.765,1
5,4,227,"Nonmatching","self","Self","Self",800,0.8,1
5,4,228,"Matching","mother","Mother","Close",800,0.8,1
5,4,229,"Nonmatching","self","Self","Self",814,0.814,1
5,4,230,"Matching","stranger","Stranger","Stranger",727,0.727,1
5,4,231,"Nonmatching","mother","Mother","Close",653,0.653,1
5,4,232,"Matching","self","Self","Self",696,0.696,1
5,4,233,"Matching","self","Self","Self",380,0.38,1
5,4,234,"Matching","self","Self","Self",334,0.334,1
5,4,235,"Matching","stranger","Stranger","Stranger",497,0.497,1
5,4,236,"Nonmatching","mother","Mother","Close",636,0.636,1
5,4,237,"Matching","stranger","Stranger","Stranger",560,0.56,1
5,4,238,"Nonmatching","mother","Mother","Close",535,0.535,0
5,4,239,"Nonmatching","mother","Mother","Close",876,0.876,1
5,4,240,"Matching","stranger","Stranger","Stranger",593,0.593,1
5,5,241,"Nonmatching","stranger","Stranger","Stranger",531,0.531,1
5,5,242,"Nonmatching","mother","Mother","Close",814,0.814,1
5,5,243,"Matching","self","Self","Self",638,0.638,1
5,5,244,"Nonmatching","self","Self","Self",421,0.421,1
5,5,245,"Matching","self","Self","Self",356,0.356,1
5,5,246,"Nonmatching","self","Self","Self",941,0.941,1
5,5,247,"Nonmatching","stranger","Stranger","Stranger",539,0.539,1
5,5,248,"Matching","self","Self","Self",547,0.547,1
5,5,249,"Matching","stranger","Stranger","Stranger",411,0.411,1
5,5,250,"Matching","self","Self","Self",377,0.377,1
5,5,251,"Matching","self","Self","Self",346,0.346,1
5,5,252,"Matching","stranger","Stranger","Stranger",556,0.556,1
5,5,253,"Nonmatching","self","Self","Self",473,0.473,1
5,5,254,"Matching","stranger","Stranger","Stranger",617,0.617,1
5,5,255,"Matching","stranger","Stranger","Stranger",339,0.339,1
5,5,256,"Matching","mother","Mother","Close",487,0.487,1
5,5,257,"Nonmatching","stranger","Stranger","Stranger",504,0.504,1
5,5,258,"Nonmatching","self","Self","Self",490,0.49,1
5,5,259,"Nonmatching","stranger","Stranger","Stranger",661,0.661,1
5,5,260,"Nonmatching","mother","Mother","Close",591,0.591,1
5,5,261,"Nonmatching","stranger","Stranger","Stranger",653,0.653,1
5,5,262,"Nonmatching","mother","Mother","Close",640,0.64,1
5,5,263,"Nonmatching","stranger","Stranger","Stranger",732,0.732,1
5,5,264,"Matching","stranger","Stranger","Stranger",862,0.862,1
5,5,265,"Nonmatching","mother","Mother","Close",825,0.825,1
5,5,266,"Nonmatching","stranger","Stranger","Stranger",933,0.933,1
5,5,267,"Matching","self","Self","Self",384,0.384,1
5,5,268,"Nonmatching","mother","Mother","Close",542,0.542,1
5,5,269,"Matching","self","Self","Self",443,0.443,1
5,5,270,"Nonmatching","self","Self","Self",502,0.502,1
5,5,271,"Matching","self","Self","Self",480,0.48,1
5,5,272,"Matching","mother","Mother","Close",748,0.748,1
5,5,273,"Matching","self","Self","Self",526,0.526,0
5,5,274,"Matching","stranger","Stranger","Stranger",630,0.63,1
5,5,275,"Matching","stranger","Stranger","Stranger",1045,1.045,1
5,5,276,"Matching","stranger","Stranger","Stranger",621,0.621,1
5,5,277,"Nonmatching","self","Self","Self",511,0.511,1
