"Subject","Block","Trial","Trial_type","Age","Gender","Handedness","Shape","Label","Matching","Origin_Identity","English_Identity","Standarlized_Identity","Response","RT_ms","RT_sec","ACC"
101,1,1,"TrainList1",23,"Mann","links","circle.png","Ich","Matching","Self","Self","Self",NA,0,0,0
101,1,2,"TrainList1",23,"Mann","links","circle.png","Fremder","Nonmatching","Self","Self","Self",NA,0,0,0
101,1,3,"TrainList1",23,"Mann","links","circle.png","Ich","Matching","Self","Self","Self",1,351,0.351,1
101,1,4,"TrainList1",23,"Mann","links","circle.png","Fremder","Nonmatching","Self","Self","Self",5,677,0.677,1
101,1,5,"TrainList1",23,"Mann","links","triangle.png","Ich","Nonmatching","Stranger","Stranger","Stranger",5,415,0.415,1
101,1,6,"TrainList1",23,"Mann","links","triangle.png","Fremder","Matching","Stranger","Stranger","Stranger",5,412,0.412,0
101,1,7,"TrainList1",23,"Mann","links","triangle.png","Fremder","Matching","Stranger","Stranger","Stranger",5,819,0.819,0
101,1,8,"TrainList1",23,"Mann","links","triangle.png","Fremder","Matching","Stranger","Stranger","Stranger",1,663,0.663,1
101,1,9,"TrainList1",23,"Mann","links","triangle.png","Ich","Nonmatching","Stranger","Stranger","Stranger",5,911,0.911,1
101,1,10,"TrainList1",23,"Mann","links","triangle.png","Ich","Nonmatching","Stranger","Stranger","Stranger",5,614,0.614,1
101,1,11,"TrainList1",23,"Mann","links","triangle.png","Fremder","Matching","Stranger","Stranger","Stranger",1,675,0.675,1
101,1,12,"TrainList1",23,"Mann","links","circle.png","Fremder","Nonmatching","Self","Self","Self",5,709,0.709,1
101,1,13,"TrainList1",23,"Mann","links","circle.png","Ich","Matching","Self","Self","Self",1,448,0.448,1
101,1,14,"TrainList1",23,"Mann","links","triangle.png","Fremder","Matching","Stranger","Stranger","Stranger",1,580,0.58,1
101,1,15,"TrainList1",23,"Mann","links","triangle.png","Fremder","Matching","Stranger","Stranger","Stranger",1,793,0.793,1
101,1,16,"TrainList1",23,"Mann","links","circle.png","Ich","Matching","Self","Self","Self",1,585,0.585,1
101,1,17,"TrainList1",23,"Mann","links","triangle.png","Ich","Nonmatching","Stranger","Stranger","Stranger",5,840,0.84,1
101,1,18,"TrainList1",23,"Mann","links","circle.png","Fremder","Nonmatching","Self","Self","Self",5,798,0.798,1
101,1,19,"TrainList1",23,"Mann","links","circle.png","Fremder","Nonmatching","Self","Self","Self",5,611,0.611,1
101,1,20,"TrainList1",23,"Mann","links","circle.png","Ich","Matching","Self","Self","Self",1,446,0.446,1
101,1,21,"TrainList1",23,"Mann","links","circle.png","Fremder","Nonmatching","Self","Self","Self",5,691,0.691,1
101,1,22,"TrainList1",23,"Mann","links","triangle.png","Ich","Nonmatching","Stranger","Stranger","Stranger",1,1077,1.077,0
101,1,23,"TrainList1",23,"Mann","links","circle.png","Ich","Matching","Self","Self","Self",1,518,0.518,1
101,1,24,"TrainList1",23,"Mann","links","triangle.png","Ich","Nonmatching","Stranger","Stranger","Stranger",5,538,0.538,1
101,2,1,"ExpList",23,"Mann","links","circle.png","Ich","Matching","Self","Self","Self",1,499,0.499,1
101,2,2,"ExpList",23,"Mann","links","triangle.png","Fremder","Matching","Stranger","Stranger","Stranger",5,644,0.644,0
101,2,3,"ExpList",23,"Mann","links","circle.png","Ich","Matching","Self","Self","Self",1,425,0.425,1
101,2,4,"ExpList",23,"Mann","links","circle.png","Fremder","Nonmatching","Self","Self","Self",5,603,0.603,1
101,2,5,"ExpList",23,"Mann","links","triangle.png","Fremder","Matching","Stranger","Stranger","Stranger",1,636,0.636,1
101,2,6,"ExpList",23,"Mann","links","triangle.png","Fremder","Matching","Stranger","Stranger","Stranger",1,662,0.662,1
101,2,7,"ExpList",23,"Mann","links","circle.png","Ich","Matching","Self","Self","Self",1,450,0.45,1
101,2,8,"ExpList",23,"Mann","links","triangle.png","Ich","Nonmatching","Stranger","Stranger","Stranger",5,527,0.527,1
101,2,9,"ExpList",23,"Mann","links","circle.png","Fremder","Nonmatching","Self","Self","Self",1,499,0.499,0
101,2,10,"ExpList",23,"Mann","links","circle.png","Ich","Matching","Self","Self","Self",1,433,0.433,1
101,2,11,"ExpList",23,"Mann","links","triangle.png","Ich","Nonmatching","Stranger","Stranger","Stranger",5,580,0.58,1
101,2,12,"ExpList",23,"Mann","links","triangle.png","Ich","Nonmatching","Stranger","Stranger","Stranger",5,617,0.617,1
101,2,13,"ExpList",23,"Mann","links","triangle.png","Ich","Nonmatching","Stranger","Stranger","Stranger",5,505,0.505,1
101,2,14,"ExpList",23,"Mann","links","circle.png","Ich","Matching","Self","Self","Self",1,641,0.641,1
101,2,15,"ExpList",23,"Mann","links","triangle.png","Fremder","Matching","Stranger","Stranger","Stranger",1,431,0.431,1
101,2,16,"ExpList",23,"Mann","links","triangle.png","Fremder","Matching","Stranger","Stranger","Stranger",1,706,0.706,1
101,2,17,"ExpList",23,"Mann","links","circle.png","Fremder","Nonmatching","Self","Self","Self",5,552,0.552,1
101,2,18,"ExpList",23,"Mann","links","circle.png","Fremder","Nonmatching","Self","Self","Self",5,1161,1.161,1
101,2,19,"ExpList",23,"Mann","links","circle.png","Ich","Matching","Self","Self","Self",1,540,0.54,1
101,2,20,"ExpList",23,"Mann","links","triangle.png","Fremder","Matching","Stranger","Stranger","Stranger",1,695,0.695,1
101,2,21,"ExpList",23,"Mann","links","triangle.png","Ich","Nonmatching","Stranger","Stranger","Stranger",5,478,0.478,1
101,2,22,"ExpList",23,"Mann","links","circle.png","Ich","Matching","Self","Self","Self",1,429,0.429,1
101,2,23,"ExpList",23,"Mann","links","triangle.png","Ich","Nonmatching","Stranger","Stranger","Stranger",5,711,0.711,1
101,2,24,"ExpList",23,"Mann","links","triangle.png","Fremder","Matching","Stranger","Stranger","Stranger",1,654,0.654,1
101,2,25,"ExpList",23,"Mann","links","circle.png","Ich","Matching","Self","Self","Self",1,362,0.362,1
101,2,26,"ExpList",23,"Mann","links","circle.png","Fremder","Nonmatching","Self","Self","Self",1,696,0.696,0
101,2,27,"ExpList",23,"Mann","links","triangle.png","Ich","Nonmatching","Stranger","Stranger","Stranger",5,918,0.918,1
101,2,28,"ExpList",23,"Mann","links","circle.png","Fremder","Nonmatching","Self","Self","Self",5,623,0.623,1
101,2,29,"ExpList",23,"Mann","links","circle.png","Ich","Matching","Self","Self","Self",1,435,0.435,1
101,2,30,"ExpList",23,"Mann","links","circle.png","Ich","Matching","Self","Self","Self",1,448,0.448,1
101,2,31,"ExpList",23,"Mann","links","triangle.png","Fremder","Matching","Stranger","Stranger","Stranger",1,547,0.547,1
101,2,32,"ExpList",23,"Mann","links","circle.png","Fremder","Nonmatching","Self","Self","Self",5,531,0.531,1
101,2,33,"ExpList",23,"Mann","links","circle.png","Fremder","Nonmatching","Self","Self","Self",5,572,0.572,1
101,2,34,"ExpList",23,"Mann","links","circle.png","Ich","Matching","Self","Self","Self",1,482,0.482,1
101,2,35,"ExpList",23,"Mann","links","triangle.png","Ich","Nonmatching","Stranger","Stranger","Stranger",5,435,0.435,1
101,2,36,"ExpList",23,"Mann","links","circle.png","Fremder","Nonmatching","Self","Self","Self",5,528,0.528,1
101,2,37,"ExpList",23,"Mann","links","circle.png","Fremder","Nonmatching","Self","Self","Self",5,554,0.554,1
101,2,38,"ExpList",23,"Mann","links","circle.png","Ich","Matching","Self","Self","Self",1,624,0.624,1
101,2,39,"ExpList",23,"Mann","links","triangle.png","Ich","Nonmatching","Stranger","Stranger","Stranger",5,601,0.601,1
101,2,40,"ExpList",23,"Mann","links","circle.png","Ich","Matching","Self","Self","Self",1,587,0.587,1
101,2,41,"ExpList",23,"Mann","links","triangle.png","Fremder","Matching","Stranger","Stranger","Stranger",1,678,0.678,1
101,2,42,"ExpList",23,"Mann","links","triangle.png","Ich","Nonmatching","Stranger","Stranger","Stranger",5,521,0.521,1
101,2,43,"ExpList",23,"Mann","links","circle.png","Ich","Matching","Self","Self","Self",1,492,0.492,1
101,2,44,"ExpList",23,"Mann","links","triangle.png","Fremder","Matching","Stranger","Stranger","Stranger",1,835,0.835,1
101,2,45,"ExpList",23,"Mann","links","triangle.png","Ich","Nonmatching","Stranger","Stranger","Stranger",5,629,0.629,1
101,2,46,"ExpList",23,"Mann","links","circle.png","Fremder","Nonmatching","Self","Self","Self",5,790,0.79,1
101,2,47,"ExpList",23,"Mann","links","triangle.png","Fremder","Matching","Stranger","Stranger","Stranger",1,621,0.621,1
101,2,48,"ExpList",23,"Mann","links","triangle.png","Ich","Nonmatching","Stranger","Stranger","Stranger",5,626,0.626,1
101,2,49,"ExpList",23,"Mann","links","triangle.png","Fremder","Matching","Stranger","Stranger","Stranger",1,475,0.475,1
101,2,50,"ExpList",23,"Mann","links","circle.png","Fremder","Nonmatching","Self","Self","Self",5,372,0.372,1
101,2,51,"ExpList",23,"Mann","links","triangle.png","Ich","Nonmatching","Stranger","Stranger","Stranger",5,422,0.422,1
101,2,52,"ExpList",23,"Mann","links","circle.png","Ich","Matching","Self","Self","Self",1,452,0.452,1
101,2,53,"ExpList",23,"Mann","links","circle.png","Fremder","Nonmatching","Self","Self","Self",5,469,0.469,1
101,2,54,"ExpList",23,"Mann","links","triangle.png","Ich","Nonmatching","Stranger","Stranger","Stranger",5,727,0.727,1
101,2,55,"ExpList",23,"Mann","links","circle.png","Fremder","Nonmatching","Self","Self","Self",5,624,0.624,1
101,2,56,"ExpList",23,"Mann","links","triangle.png","Fremder","Matching","Stranger","Stranger","Stranger",1,551,0.551,1
101,2,57,"ExpList",23,"Mann","links","triangle.png","Ich","Nonmatching","Stranger","Stranger","Stranger",5,431,0.431,1
101,2,58,"ExpList",23,"Mann","links","circle.png","Fremder","Nonmatching","Self","Self","Self",5,537,0.537,1
101,2,59,"ExpList",23,"Mann","links","triangle.png","Fremder","Matching","Stranger","Stranger","Stranger",1,513,0.513,1
101,2,60,"ExpList",23,"Mann","links","triangle.png","Fremder","Matching","Stranger","Stranger","Stranger",1,950,0.95,1
101,3,1,"ExpList",23,"Mann","links","circle.png","Ich","Matching","Self","Self","Self",1,406,0.406,1
101,3,2,"ExpList",23,"Mann","links","circle.png","Ich","Matching","Self","Self","Self",1,373,0.373,1
101,3,3,"ExpList",23,"Mann","links","triangle.png","Ich","Nonmatching","Stranger","Stranger","Stranger",1,388,0.388,0
101,3,4,"ExpList",23,"Mann","links","circle.png","Fremder","Nonmatching","Self","Self","Self",5,658,0.658,1
101,3,5,"ExpList",23,"Mann","links","circle.png","Fremder","Nonmatching","Self","Self","Self",5,707,0.707,1
101,3,6,"ExpList",23,"Mann","links","circle.png","Ich","Matching","Self","Self","Self",1,391,0.391,1
101,3,7,"ExpList",23,"Mann","links","triangle.png","Ich","Nonmatching","Stranger","Stranger","Stranger",5,560,0.56,1
101,3,8,"ExpList",23,"Mann","links","circle.png","Fremder","Nonmatching","Self","Self","Self",5,600,0.6,1
101,3,9,"ExpList",23,"Mann","links","circle.png","Fremder","Nonmatching","Self","Self","Self",5,466,0.466,1
101,3,10,"ExpList",23,"Mann","links","triangle.png","Fremder","Matching","Stranger","Stranger","Stranger",1,575,0.575,1
101,3,11,"ExpList",23,"Mann","links","circle.png","Fremder","Nonmatching","Self","Self","Self",5,520,0.52,1
101,3,12,"ExpList",23,"Mann","links","circle.png","Fremder","Nonmatching","Self","Self","Self",5,424,0.424,1
101,3,13,"ExpList",23,"Mann","links","circle.png","Fremder","Nonmatching","Self","Self","Self",5,474,0.474,1
101,3,14,"ExpList",23,"Mann","links","triangle.png","Fremder","Matching","Stranger","Stranger","Stranger",1,582,0.582,1
101,3,15,"ExpList",23,"Mann","links","triangle.png","Ich","Nonmatching","Stranger","Stranger","Stranger",5,587,0.587,1
101,3,16,"ExpList",23,"Mann","links","triangle.png","Ich","Nonmatching","Stranger","Stranger","Stranger",5,552,0.552,1
101,3,17,"ExpList",23,"Mann","links","circle.png","Fremder","Nonmatching","Self","Self","Self",5,650,0.65,1
101,3,18,"ExpList",23,"Mann","links","circle.png","Ich","Matching","Self","Self","Self",1,376,0.376,1
101,3,19,"ExpList",23,"Mann","links","triangle.png","Ich","Nonmatching","Stranger","Stranger","Stranger",5,640,0.64,1
101,3,20,"ExpList",23,"Mann","links","triangle.png","Ich","Nonmatching","Stranger","Stranger","Stranger",5,408,0.408,1
101,3,21,"ExpList",23,"Mann","links","triangle.png","Ich","Nonmatching","Stranger","Stranger","Stranger",5,488,0.488,1
101,3,22,"ExpList",23,"Mann","links","circle.png","Ich","Matching","Self","Self","Self",5,311,0.311,0
101,3,23,"ExpList",23,"Mann","links","triangle.png","Fremder","Matching","Stranger","Stranger","Stranger",1,437,0.437,1
101,3,24,"ExpList",23,"Mann","links","triangle.png","Ich","Nonmatching","Stranger","Stranger","Stranger",5,439,0.439,1
101,3,25,"ExpList",23,"Mann","links","triangle.png","Fremder","Matching","Stranger","Stranger","Stranger",1,489,0.489,1
101,3,26,"ExpList",23,"Mann","links","circle.png","Fremder","Nonmatching","Self","Self","Self",5,554,0.554,1
101,3,27,"ExpList",23,"Mann","links","triangle.png","Ich","Nonmatching","Stranger","Stranger","Stranger",5,466,0.466,1
101,3,28,"ExpList",23,"Mann","links","triangle.png","Ich","Nonmatching","Stranger","Stranger","Stranger",5,706,0.706,1
101,3,29,"ExpList",23,"Mann","links","circle.png","Ich","Matching","Self","Self","Self",1,400,0.4,1
101,3,30,"ExpList",23,"Mann","links","triangle.png","Ich","Nonmatching","Stranger","Stranger","Stranger",5,500,0.5,1
101,3,31,"ExpList",23,"Mann","links","circle.png","Ich","Matching","Self","Self","Self",1,553,0.553,1
101,3,32,"ExpList",23,"Mann","links","triangle.png","Fremder","Matching","Stranger","Stranger","Stranger",5,830,0.83,0
101,3,33,"ExpList",23,"Mann","links","triangle.png","Fremder","Matching","Stranger","Stranger","Stranger",1,573,0.573,1
101,3,34,"ExpList",23,"Mann","links","circle.png","Fremder","Nonmatching","Self","Self","Self",1,443,0.443,0
101,3,35,"ExpList",23,"Mann","links","triangle.png","Fremder","Matching","Stranger","Stranger","Stranger",1,567,0.567,1
101,3,36,"ExpList",23,"Mann","links","circle.png","Ich","Matching","Self","Self","Self",1,425,0.425,1
101,3,37,"ExpList",23,"Mann","links","triangle.png","Fremder","Matching","Stranger","Stranger","Stranger",5,502,0.502,0
101,3,38,"ExpList",23,"Mann","links","circle.png","Fremder","Nonmatching","Self","Self","Self",5,812,0.812,1
101,3,39,"ExpList",23,"Mann","links","triangle.png","Fremder","Matching","Stranger","Stranger","Stranger",1,588,0.588,1
101,3,40,"ExpList",23,"Mann","links","circle.png","Ich","Matching","Self","Self","Self",1,445,0.445,1
101,3,41,"ExpList",23,"Mann","links","triangle.png","Fremder","Matching","Stranger","Stranger","Stranger",1,650,0.65,1
101,3,42,"ExpList",23,"Mann","links","triangle.png","Ich","Nonmatching","Stranger","Stranger","Stranger",5,523,0.523,1
101,3,43,"ExpList",23,"Mann","links","triangle.png","Fremder","Matching","Stranger","Stranger","Stranger",1,515,0.515,1
101,3,44,"ExpList",23,"Mann","links","circle.png","Ich","Matching","Self","Self","Self",1,416,0.416,1
101,3,45,"ExpList",23,"Mann","links","triangle.png","Fremder","Matching","Stranger","Stranger","Stranger",1,547,0.547,1
101,3,46,"ExpList",23,"Mann","links","circle.png","Fremder","Nonmatching","Self","Self","Self",5,700,0.7,1
101,3,47,"ExpList",23,"Mann","links","circle.png","Ich","Matching","Self","Self","Self",1,335,0.335,1
101,3,48,"ExpList",23,"Mann","links","triangle.png","Fremder","Matching","Stranger","Stranger","Stranger",1,500,0.5,1
101,3,49,"ExpList",23,"Mann","links","circle.png","Fremder","Nonmatching","Self","Self","Self",5,701,0.701,1
101,3,50,"ExpList",23,"Mann","links","circle.png","Ich","Matching","Self","Self","Self",1,445,0.445,1
101,3,51,"ExpList",23,"Mann","links","triangle.png","Ich","Nonmatching","Stranger","Stranger","Stranger",5,814,0.814,1
101,3,52,"ExpList",23,"Mann","links","triangle.png","Ich","Nonmatching","Stranger","Stranger","Stranger",5,782,0.782,1
101,3,53,"ExpList",23,"Mann","links","circle.png","Ich","Matching","Self","Self","Self",1,374,0.374,1
101,3,54,"ExpList",23,"Mann","links","circle.png","Fremder","Nonmatching","Self","Self","Self",5,674,0.674,1
101,3,55,"ExpList",23,"Mann","links","triangle.png","Fremder","Matching","Stranger","Stranger","Stranger",1,687,0.687,1
101,3,56,"ExpList",23,"Mann","links","triangle.png","Ich","Nonmatching","Stranger","Stranger","Stranger",5,503,0.503,1
101,3,57,"ExpList",23,"Mann","links","circle.png","Fremder","Nonmatching","Self","Self","Self",5,862,0.862,1
101,3,58,"ExpList",23,"Mann","links","circle.png","Ich","Matching","Self","Self","Self",1,457,0.457,1
101,3,59,"ExpList",23,"Mann","links","triangle.png","Fremder","Matching","Stranger","Stranger","Stranger",5,604,0.604,0
101,3,60,"ExpList",23,"Mann","links","circle.png","Ich","Matching","Self","Self","Self",1,413,0.413,1
101,4,1,"ExpList",23,"Mann","links","triangle.png","Fremder","Matching","Stranger","Stranger","Stranger",1,645,0.645,1
101,4,2,"ExpList",23,"Mann","links","circle.png","Fremder","Nonmatching","Self","Self","Self",5,564,0.564,1
101,4,3,"ExpList",23,"Mann","links","triangle.png","Ich","Nonmatching","Stranger","Stranger","Stranger",5,515,0.515,1
101,4,4,"ExpList",23,"Mann","links","triangle.png","Fremder","Matching","Stranger","Stranger","Stranger",1,485,0.485,1
101,4,5,"ExpList",23,"Mann","links","circle.png","Fremder","Nonmatching","Self","Self","Self",5,473,0.473,1
101,4,6,"ExpList",23,"Mann","links","triangle.png","Fremder","Matching","Stranger","Stranger","Stranger",1,493,0.493,1
101,4,7,"ExpList",23,"Mann","links","circle.png","Fremder","Nonmatching","Self","Self","Self",5,487,0.487,1
101,4,8,"ExpList",23,"Mann","links","circle.png","Ich","Matching","Self","Self","Self",1,345,0.345,1
101,4,9,"ExpList",23,"Mann","links","circle.png","Ich","Matching","Self","Self","Self",1,423,0.423,1
101,4,10,"ExpList",23,"Mann","links","triangle.png","Ich","Nonmatching","Stranger","Stranger","Stranger",5,489,0.489,1
101,4,11,"ExpList",23,"Mann","links","circle.png","Fremder","Nonmatching","Self","Self","Self",5,605,0.605,1
101,4,12,"ExpList",23,"Mann","links","triangle.png","Ich","Nonmatching","Stranger","Stranger","Stranger",5,543,0.543,1
101,4,13,"ExpList",23,"Mann","links","circle.png","Ich","Matching","Self","Self","Self",1,466,0.466,1
101,4,14,"ExpList",23,"Mann","links","triangle.png","Ich","Nonmatching","Stranger","Stranger","Stranger",5,457,0.457,1
101,4,15,"ExpList",23,"Mann","links","triangle.png","Ich","Nonmatching","Stranger","Stranger","Stranger",5,596,0.596,1
101,4,16,"ExpList",23,"Mann","links","circle.png","Fremder","Nonmatching","Self","Self","Self",5,650,0.65,1
101,4,17,"ExpList",23,"Mann","links","circle.png","Ich","Matching","Self","Self","Self",1,341,0.341,1
101,4,18,"ExpList",23,"Mann","links","triangle.png","Ich","Nonmatching","Stranger","Stranger","Stranger",5,488,0.488,1
101,4,19,"ExpList",23,"Mann","links","circle.png","Fremder","Nonmatching","Self","Self","Self",5,594,0.594,1
101,4,20,"ExpList",23,"Mann","links","circle.png","Fremder","Nonmatching","Self","Self","Self",5,655,0.655,1
101,4,21,"ExpList",23,"Mann","links","triangle.png","Fremder","Matching","Stranger","Stranger","Stranger",1,533,0.533,1
101,4,22,"ExpList",23,"Mann","links","triangle.png","Ich","Nonmatching","Stranger","Stranger","Stranger",5,717,0.717,1
101,4,23,"ExpList",23,"Mann","links","circle.png","Ich","Matching","Self","Self","Self",1,484,0.484,1
101,4,24,"ExpList",23,"Mann","links","triangle.png","Fremder","Matching","Stranger","Stranger","Stranger",1,606,0.606,1
101,4,25,"ExpList",23,"Mann","links","triangle.png","Fremder","Matching","Stranger","Stranger","Stranger",1,512,0.512,1
101,4,26,"ExpList",23,"Mann","links","triangle.png","Ich","Nonmatching","Stranger","Stranger","Stranger",5,526,0.526,1
101,4,27,"ExpList",23,"Mann","links","circle.png","Ich","Matching","Self","Self","Self",1,426,0.426,1
101,4,28,"ExpList",23,"Mann","links","triangle.png","Fremder","Matching","Stranger","Stranger","Stranger",1,577,0.577,1
101,4,29,"ExpList",23,"Mann","links","triangle.png","Ich","Nonmatching","Stranger","Stranger","Stranger",5,782,0.782,1
101,4,30,"ExpList",23,"Mann","links","triangle.png","Fremder","Matching","Stranger","Stranger","Stranger",1,543,0.543,1
101,4,31,"ExpList",23,"Mann","links","circle.png","Fremder","Nonmatching","Self","Self","Self",5,458,0.458,1
101,4,32,"ExpList",23,"Mann","links","triangle.png","Ich","Nonmatching","Stranger","Stranger","Stranger",5,791,0.791,1
101,4,33,"ExpList",23,"Mann","links","circle.png","Ich","Matching","Self","Self","Self",1,468,0.468,1
101,4,34,"ExpList",23,"Mann","links","triangle.png","Fremder","Matching","Stranger","Stranger","Stranger",1,788,0.788,1
101,4,35,"ExpList",23,"Mann","links","circle.png","Ich","Matching","Self","Self","Self",1,513,0.513,1
101,4,36,"ExpList",23,"Mann","links","circle.png","Fremder","Nonmatching","Self","Self","Self",5,556,0.556,1
101,4,37,"ExpList",23,"Mann","links","triangle.png","Fremder","Matching","Stranger","Stranger","Stranger",1,548,0.548,1
101,4,38,"ExpList",23,"Mann","links","circle.png","Ich","Matching","Self","Self","Self",1,554,0.554,1
101,4,39,"ExpList",23,"Mann","links","circle.png","Ich","Matching","Self","Self","Self",1,612,0.612,1
101,4,40,"ExpList",23,"Mann","links","triangle.png","Ich","Nonmatching","Stranger","Stranger","Stranger",5,583,0.583,1
101,4,41,"ExpList",23,"Mann","links","circle.png","Ich","Matching","Self","Self","Self",1,474,0.474,1
101,4,42,"ExpList",23,"Mann","links","circle.png","Fremder","Nonmatching","Self","Self","Self",5,752,0.752,1
101,4,43,"ExpList",23,"Mann","links","circle.png","Ich","Matching","Self","Self","Self",1,668,0.668,1
101,4,44,"ExpList",23,"Mann","links","triangle.png","Fremder","Matching","Stranger","Stranger","Stranger",1,837,0.837,1
101,4,45,"ExpList",23,"Mann","links","circle.png","Fremder","Nonmatching","Self","Self","Self",5,435,0.435,1
101,4,46,"ExpList",23,"Mann","links","circle.png","Ich","Matching","Self","Self","Self",1,481,0.481,1
101,4,47,"ExpList",23,"Mann","links","circle.png","Fremder","Nonmatching","Self","Self","Self",5,570,0.57,1
101,4,48,"ExpList",23,"Mann","links","triangle.png","Fremder","Matching","Stranger","Stranger","Stranger",1,645,0.645,1
101,4,49,"ExpList",23,"Mann","links","circle.png","Ich","Matching","Self","Self","Self",1,428,0.428,1
101,4,50,"ExpList",23,"Mann","links","circle.png","Fremder","Nonmatching","Self","Self","Self",5,825,0.825,1
101,4,51,"ExpList",23,"Mann","links","triangle.png","Ich","Nonmatching","Stranger","Stranger","Stranger",5,497,0.497,1
101,4,52,"ExpList",23,"Mann","links","triangle.png","Fremder","Matching","Stranger","Stranger","Stranger",1,558,0.558,1
101,4,53,"ExpList",23,"Mann","links","triangle.png","Ich","Nonmatching","Stranger","Stranger","Stranger",5,559,0.559,1
101,4,54,"ExpList",23,"Mann","links","circle.png","Fremder","Nonmatching","Self","Self","Self",5,719,0.719,1
101,4,55,"ExpList",23,"Mann","links","triangle.png","Fremder","Matching","Stranger","Stranger","Stranger",1,696,0.696,1
101,4,56,"ExpList",23,"Mann","links","triangle.png","Fremder","Matching","Stranger","Stranger","Stranger",1,918,0.918,1
101,4,57,"ExpList",23,"Mann","links","triangle.png","Ich","Nonmatching","Stranger","Stranger","Stranger",5,712,0.712,1
101,4,58,"ExpList",23,"Mann","links","circle.png","Fremder","Nonmatching","Self","Self","Self",5,810,0.81,1
101,4,59,"ExpList",23,"Mann","links","triangle.png","Ich","Nonmatching","Stranger","Stranger","Stranger",5,435,0.435,1
101,4,60,"ExpList",23,"Mann","links","circle.png","Ich","Matching","Self","Self","Self",1,495,0.495,1
101,5,1,"ExpList",23,"Mann","links","triangle.png","Fremder","Matching","Stranger","Stranger","Stranger",1,1348,1.348,1
101,5,2,"ExpList",23,"Mann","links","triangle.png","Fremder","Matching","Stranger","Stranger","Stranger",1,509,0.509,1
101,5,3,"ExpList",23,"Mann","links","triangle.png","Ich","Nonmatching","Stranger","Stranger","Stranger",5,527,0.527,1
101,5,4,"ExpList",23,"Mann","links","circle.png","Fremder","Nonmatching","Self","Self","Self",5,542,0.542,1
101,5,5,"ExpList",23,"Mann","links","triangle.png","Fremder","Matching","Stranger","Stranger","Stranger",1,552,0.552,1
101,5,6,"ExpList",23,"Mann","links","circle.png","Ich","Matching","Self","Self","Self",1,486,0.486,1
101,5,7,"ExpList",23,"Mann","links","triangle.png","Fremder","Matching","Stranger","Stranger","Stranger",1,637,0.637,1
101,5,8,"ExpList",23,"Mann","links","circle.png","Fremder","Nonmatching","Self","Self","Self",1,435,0.435,0
101,5,9,"ExpList",23,"Mann","links","triangle.png","Ich","Nonmatching","Stranger","Stranger","Stranger",5,802,0.802,1
101,5,10,"ExpList",23,"Mann","links","circle.png","Fremder","Nonmatching","Self","Self","Self",5,570,0.57,1
101,5,11,"ExpList",23,"Mann","links","circle.png","Ich","Matching","Self","Self","Self",1,433,0.433,1
101,5,12,"ExpList",23,"Mann","links","triangle.png","Ich","Nonmatching","Stranger","Stranger","Stranger",5,399,0.399,1
101,5,13,"ExpList",23,"Mann","links","triangle.png","Fremder","Matching","Stranger","Stranger","Stranger",1,583,0.583,1
101,5,14,"ExpList",23,"Mann","links","circle.png","Ich","Matching","Self","Self","Self",1,568,0.568,1
101,5,15,"ExpList",23,"Mann","links","triangle.png","Ich","Nonmatching","Stranger","Stranger","Stranger",5,566,0.566,1
101,5,16,"ExpList",23,"Mann","links","triangle.png","Ich","Nonmatching","Stranger","Stranger","Stranger",5,915,0.915,1
101,5,17,"ExpList",23,"Mann","links","circle.png","Fremder","Nonmatching","Self","Self","Self",5,830,0.83,1
101,5,18,"ExpList",23,"Mann","links","circle.png","Ich","Matching","Self","Self","Self",1,482,0.482,1
101,5,19,"ExpList",23,"Mann","links","circle.png","Fremder","Nonmatching","Self","Self","Self",5,821,0.821,1
101,5,20,"ExpList",23,"Mann","links","triangle.png","Ich","Nonmatching","Stranger","Stranger","Stranger",5,543,0.543,1
101,5,21,"ExpList",23,"Mann","links","triangle.png","Fremder","Matching","Stranger","Stranger","Stranger",1,428,0.428,1
101,5,22,"ExpList",23,"Mann","links","circle.png","Fremder","Nonmatching","Self","Self","Self",5,403,0.403,1
101,5,23,"ExpList",23,"Mann","links","circle.png","Ich","Matching","Self","Self","Self",1,478,0.478,1
101,5,24,"ExpList",23,"Mann","links","circle.png","Fremder","Nonmatching","Self","Self","Self",5,492,0.492,1
101,5,25,"ExpList",23,"Mann","links","triangle.png","Fremder","Matching","Stranger","Stranger","Stranger",1,805,0.805,1
101,5,26,"ExpList",23,"Mann","links","circle.png","Ich","Matching","Self","Self","Self",5,511,0.511,0
101,5,27,"ExpList",23,"Mann","links","circle.png","Ich","Matching","Self","Self","Self",1,369,0.369,1
101,5,28,"ExpList",23,"Mann","links","circle.png","Fremder","Nonmatching","Self","Self","Self",5,727,0.727,1
101,5,29,"ExpList",23,"Mann","links","triangle.png","Ich","Nonmatching","Stranger","Stranger","Stranger",1,599,0.599,0
101,5,30,"ExpList",23,"Mann","links","triangle.png","Ich","Nonmatching","Stranger","Stranger","Stranger",5,593,0.593,1
101,5,31,"ExpList",23,"Mann","links","triangle.png","Fremder","Matching","Stranger","Stranger","Stranger",5,683,0.683,0
101,5,32,"ExpList",23,"Mann","links","circle.png","Fremder","Nonmatching","Self","Self","Self",5,520,0.52,1
101,5,33,"ExpList",23,"Mann","links","triangle.png","Ich","Nonmatching","Stranger","Stranger","Stranger",5,587,0.587,1
101,5,34,"ExpList",23,"Mann","links","circle.png","Ich","Matching","Self","Self","Self",1,426,0.426,1
101,5,35,"ExpList",23,"Mann","links","circle.png","Fremder","Nonmatching","Self","Self","Self",5,582,0.582,1
101,5,36,"ExpList",23,"Mann","links","triangle.png","Fremder","Matching","Stranger","Stranger","Stranger",1,739,0.739,1
101,5,37,"ExpList",23,"Mann","links","circle.png","Fremder","Nonmatching","Self","Self","Self",5,729,0.729,1
101,5,38,"ExpList",23,"Mann","links","circle.png","Ich","Matching","Self","Self","Self",1,478,0.478,1
101,5,39,"ExpList",23,"Mann","links","circle.png","Ich","Matching","Self","Self","Self",1,436,0.436,1
101,5,40,"ExpList",23,"Mann","links","triangle.png","Ich","Nonmatching","Stranger","Stranger","Stranger",5,542,0.542,1
101,5,41,"ExpList",23,"Mann","links","circle.png","Fremder","Nonmatching","Self","Self","Self",5,787,0.787,1
101,5,42,"ExpList",23,"Mann","links","circle.png","Ich","Matching","Self","Self","Self",1,473,0.473,1
101,5,43,"ExpList",23,"Mann","links","circle.png","Fremder","Nonmatching","Self","Self","Self",5,558,0.558,1
101,5,44,"ExpList",23,"Mann","links","triangle.png","Ich","Nonmatching","Stranger","Stranger","Stranger",5,448,0.448,1
101,5,45,"ExpList",23,"Mann","links","triangle.png","Fremder","Matching","Stranger","Stranger","Stranger",1,541,0.541,1
101,5,46,"ExpList",23,"Mann","links","triangle.png","Ich","Nonmatching","Stranger","Stranger","Stranger",5,614,0.614,1
101,5,47,"ExpList",23,"Mann","links","circle.png","Ich","Matching","Self","Self","Self",1,584,0.584,1
101,5,48,"ExpList",23,"Mann","links","triangle.png","Fremder","Matching","Stranger","Stranger","Stranger",1,595,0.595,1
101,5,49,"ExpList",23,"Mann","links","circle.png","Ich","Matching","Self","Self","Self",1,485,0.485,1
101,5,50,"ExpList",23,"Mann","links","circle.png","Fremder","Nonmatching","Self","Self","Self",5,561,0.561,1
101,5,51,"ExpList",23,"Mann","links","triangle.png","Ich","Nonmatching","Stranger","Stranger","Stranger",5,573,0.573,1
101,5,52,"ExpList",23,"Mann","links","circle.png","Fremder","Nonmatching","Self","Self","Self",5,545,0.545,1
101,5,53,"ExpList",23,"Mann","links","triangle.png","Fremder","Matching","Stranger","Stranger","Stranger",1,728,0.728,1
101,5,54,"ExpList",23,"Mann","links","triangle.png","Ich","Nonmatching","Stranger","Stranger","Stranger",5,546,0.546,1
101,5,55,"ExpList",23,"Mann","links","triangle.png","Fremder","Matching","Stranger","Stranger","Stranger",1,494,0.494,1
101,5,56,"ExpList",23,"Mann","links","circle.png","Ich","Matching","Self","Self","Self",1,715,0.715,1
101,5,57,"ExpList",23,"Mann","links","triangle.png","Fremder","Matching","Stranger","Stranger","Stranger",1,646,0.646,1
101,5,58,"ExpList",23,"Mann","links","triangle.png","Ich","Nonmatching","Stranger","Stranger","Stranger",5,383,0.383,1
101,5,59,"ExpList",23,"Mann","links","triangle.png","Fremder","Matching","Stranger","Stranger","Stranger",1,558,0.558,1
101,5,60,"ExpList",23,"Mann","links","circle.png","Ich","Matching","Self","Self","Self",1,486,0.486,1
102,1,1,"TrainList1",28,"Frau","rechts","circle.png","Ich","Matching","Self","Self","Self",1,437,0.437,1
102,1,2,"TrainList1",28,"Frau","rechts","circle.png","Ich","Matching","Self","Self","Self",1,1357,1.357,1
102,1,3,"TrainList1",28,"Frau","rechts","triangle.png","Ich","Nonmatching","Stranger","Stranger","Stranger",5,766,0.766,1
102,1,4,"TrainList1",28,"Frau","rechts","triangle.png","Ich","Nonmatching","Stranger","Stranger","Stranger",5,610,0.61,1
102,1,5,"TrainList1",28,"Frau","rechts","triangle.png","Fremder","Matching","Stranger","Stranger","Stranger",1,631,0.631,1
102,1,6,"TrainList1",28,"Frau","rechts","triangle.png","Fremder","Matching","Stranger","Stranger","Stranger",1,355,0.355,1
102,1,7,"TrainList1",28,"Frau","rechts","triangle.png","Ich","Nonmatching","Stranger","Stranger","Stranger",5,542,0.542,1
102,1,8,"TrainList1",28,"Frau","rechts","circle.png","Fremder","Nonmatching","Self","Self","Self",5,815,0.815,1
102,1,9,"TrainList1",28,"Frau","rechts","circle.png","Ich","Matching","Self","Self","Self",1,393,0.393,1
102,1,10,"TrainList1",28,"Frau","rechts","triangle.png","Fremder","Matching","Stranger","Stranger","Stranger",5,399,0.399,0
102,1,11,"TrainList1",28,"Frau","rechts","triangle.png","Fremder","Matching","Stranger","Stranger","Stranger",1,773,0.773,1
102,1,12,"TrainList1",28,"Frau","rechts","circle.png","Fremder","Nonmatching","Self","Self","Self",5,640,0.64,1
102,1,13,"TrainList1",28,"Frau","rechts","triangle.png","Ich","Nonmatching","Stranger","Stranger","Stranger",5,718,0.718,1
102,1,14,"TrainList1",28,"Frau","rechts","triangle.png","Fremder","Matching","Stranger","Stranger","Stranger",5,434,0.434,0
102,1,15,"TrainList1",28,"Frau","rechts","circle.png","Ich","Matching","Self","Self","Self",1,496,0.496,1
102,1,16,"TrainList1",28,"Frau","rechts","circle.png","Fremder","Nonmatching","Self","Self","Self",5,618,0.618,1
102,1,17,"TrainList1",28,"Frau","rechts","circle.png","Fremder","Nonmatching","Self","Self","Self",5,578,0.578,1
102,1,18,"TrainList1",28,"Frau","rechts","triangle.png","Fremder","Matching","Stranger","Stranger","Stranger",1,665,0.665,1
102,1,19,"TrainList1",28,"Frau","rechts","circle.png","Ich","Matching","Self","Self","Self",1,270,0.27,1
102,1,20,"TrainList1",28,"Frau","rechts","circle.png","Ich","Matching","Self","Self","Self",1,515,0.515,1
102,1,21,"TrainList1",28,"Frau","rechts","circle.png","Fremder","Nonmatching","Self","Self","Self",5,800,0.8,1
102,1,22,"TrainList1",28,"Frau","rechts","triangle.png","Ich","Nonmatching","Stranger","Stranger","Stranger",5,1309,1.309,1
102,1,23,"TrainList1",28,"Frau","rechts","circle.png","Fremder","Nonmatching","Self","Self","Self",5,616,0.616,1
102,1,24,"TrainList1",28,"Frau","rechts","triangle.png","Ich","Nonmatching","Stranger","Stranger","Stranger",5,623,0.623,1
102,2,1,"ExpList",28,"Frau","rechts","circle.png","Fremder","Nonmatching","Self","Self","Self",5,579,0.579,1
102,2,2,"ExpList",28,"Frau","rechts","triangle.png","Fremder","Matching","Stranger","Stranger","Stranger",1,598,0.598,1
102,2,3,"ExpList",28,"Frau","rechts","circle.png","Fremder","Nonmatching","Self","Self","Self",5,367,0.367,1
102,2,4,"ExpList",28,"Frau","rechts","triangle.png","Ich","Nonmatching","Stranger","Stranger","Stranger",5,524,0.524,1
102,2,5,"ExpList",28,"Frau","rechts","circle.png","Ich","Matching","Self","Self","Self",1,374,0.374,1
102,2,6,"ExpList",28,"Frau","rechts","triangle.png","Fremder","Matching","Stranger","Stranger","Stranger",1,573,0.573,1
102,2,7,"ExpList",28,"Frau","rechts","circle.png","Ich","Matching","Self","Self","Self",1,450,0.45,1
102,2,8,"ExpList",28,"Frau","rechts","circle.png","Fremder","Nonmatching","Self","Self","Self",5,485,0.485,1
102,2,9,"ExpList",28,"Frau","rechts","triangle.png","Ich","Nonmatching","Stranger","Stranger","Stranger",5,668,0.668,1
102,2,10,"ExpList",28,"Frau","rechts","circle.png","Ich","Matching","Self","Self","Self",1,467,0.467,1
102,2,11,"ExpList",28,"Frau","rechts","triangle.png","Ich","Nonmatching","Stranger","Stranger","Stranger",5,415,0.415,1
102,2,12,"ExpList",28,"Frau","rechts","circle.png","Ich","Matching","Self","Self","Self",1,491,0.491,1
102,2,13,"ExpList",28,"Frau","rechts","triangle.png","Fremder","Matching","Stranger","Stranger","Stranger",1,972,0.972,1
102,2,14,"ExpList",28,"Frau","rechts","circle.png","Fremder","Nonmatching","Self","Self","Self",5,444,0.444,1
102,2,15,"ExpList",28,"Frau","rechts","triangle.png","Ich","Nonmatching","Stranger","Stranger","Stranger",5,600,0.6,1
102,2,16,"ExpList",28,"Frau","rechts","triangle.png","Fremder","Matching","Stranger","Stranger","Stranger",1,573,0.573,1
102,2,17,"ExpList",28,"Frau","rechts","triangle.png","Ich","Nonmatching","Stranger","Stranger","Stranger",5,901,0.901,1
102,2,18,"ExpList",28,"Frau","rechts","circle.png","Ich","Matching","Self","Self","Self",1,434,0.434,1
102,2,19,"ExpList",28,"Frau","rechts","triangle.png","Fremder","Matching","Stranger","Stranger","Stranger",5,649,0.649,0
102,2,20,"ExpList",28,"Frau","rechts","triangle.png","Ich","Nonmatching","Stranger","Stranger","Stranger",5,794,0.794,1
102,2,21,"ExpList",28,"Frau","rechts","circle.png","Ich","Matching","Self","Self","Self",1,395,0.395,1
102,2,22,"ExpList",28,"Frau","rechts","circle.png","Fremder","Nonmatching","Self","Self","Self",5,552,0.552,1
102,2,23,"ExpList",28,"Frau","rechts","circle.png","Ich","Matching","Self","Self","Self",1,465,0.465,1
102,2,24,"ExpList",28,"Frau","rechts","triangle.png","Ich","Nonmatching","Stranger","Stranger","Stranger",5,592,0.592,1
102,2,25,"ExpList",28,"Frau","rechts","circle.png","Ich","Matching","Self","Self","Self",1,433,0.433,1
102,2,26,"ExpList",28,"Frau","rechts","circle.png","Fremder","Nonmatching","Self","Self","Self",5,406,0.406,1
102,2,27,"ExpList",28,"Frau","rechts","triangle.png","Ich","Nonmatching","Stranger","Stranger","Stranger",5,515,0.515,1
102,2,28,"ExpList",28,"Frau","rechts","circle.png","Fremder","Nonmatching","Self","Self","Self",5,520,0.52,1
102,2,29,"ExpList",28,"Frau","rechts","triangle.png","Fremder","Matching","Stranger","Stranger","Stranger",5,556,0.556,0
102,2,30,"ExpList",28,"Frau","rechts","triangle.png","Fremder","Matching","Stranger","Stranger","Stranger",1,510,0.51,1
102,2,31,"ExpList",28,"Frau","rechts","triangle.png","Fremder","Matching","Stranger","Stranger","Stranger",1,676,0.676,1
102,2,32,"ExpList",28,"Frau","rechts","circle.png","Fremder","Nonmatching","Self","Self","Self",5,524,0.524,1
102,2,33,"ExpList",28,"Frau","rechts","circle.png","Ich","Matching","Self","Self","Self",1,436,0.436,1
102,2,34,"ExpList",28,"Frau","rechts","circle.png","Ich","Matching","Self","Self","Self",1,542,0.542,1
102,2,35,"ExpList",28,"Frau","rechts","triangle.png","Ich","Nonmatching","Stranger","Stranger","Stranger",5,558,0.558,1
102,2,36,"ExpList",28,"Frau","rechts","circle.png","Fremder","Nonmatching","Self","Self","Self",5,528,0.528,1
102,2,37,"ExpList",28,"Frau","rechts","triangle.png","Ich","Nonmatching","Stranger","Stranger","Stranger",5,466,0.466,1
102,2,38,"ExpList",28,"Frau","rechts","circle.png","Ich","Matching","Self","Self","Self",1,400,0.4,1
102,2,39,"ExpList",28,"Frau","rechts","circle.png","Fremder","Nonmatching","Self","Self","Self",1,424,0.424,0
102,2,40,"ExpList",28,"Frau","rechts","triangle.png","Fremder","Matching","Stranger","Stranger","Stranger",1,657,0.657,1
102,2,41,"ExpList",28,"Frau","rechts","circle.png","Ich","Matching","Self","Self","Self",1,427,0.427,1
102,2,42,"ExpList",28,"Frau","rechts","triangle.png","Fremder","Matching","Stranger","Stranger","Stranger",1,525,0.525,1
102,2,43,"ExpList",28,"Frau","rechts","circle.png","Fremder","Nonmatching","Self","Self","Self",5,672,0.672,1
102,2,44,"ExpList",28,"Frau","rechts","triangle.png","Fremder","Matching","Stranger","Stranger","Stranger",1,447,0.447,1
102,2,45,"ExpList",28,"Frau","rechts","triangle.png","Fremder","Matching","Stranger","Stranger","Stranger",1,570,0.57,1
102,2,46,"ExpList",28,"Frau","rechts","circle.png","Fremder","Nonmatching","Self","Self","Self",5,680,0.68,1
102,2,47,"ExpList",28,"Frau","rechts","triangle.png","Ich","Nonmatching","Stranger","Stranger","Stranger",1,451,0.451,0
102,2,48,"ExpList",28,"Frau","rechts","triangle.png","Fremder","Matching","Stranger","Stranger","Stranger",1,514,0.514,1
102,2,49,"ExpList",28,"Frau","rechts","triangle.png","Ich","Nonmatching","Stranger","Stranger","Stranger",5,576,0.576,1
102,2,50,"ExpList",28,"Frau","rechts","circle.png","Ich","Matching","Self","Self","Self",1,397,0.397,1
102,2,51,"ExpList",28,"Frau","rechts","triangle.png","Fremder","Matching","Stranger","Stranger","Stranger",1,829,0.829,1
102,2,52,"ExpList",28,"Frau","rechts","circle.png","Ich","Matching","Self","Self","Self",1,444,0.444,1
102,2,53,"ExpList",28,"Frau","rechts","triangle.png","Ich","Nonmatching","Stranger","Stranger","Stranger",5,714,0.714,1
102,2,54,"ExpList",28,"Frau","rechts","circle.png","Fremder","Nonmatching","Self","Self","Self",1,411,0.411,0
102,2,55,"ExpList",28,"Frau","rechts","circle.png","Fremder","Nonmatching","Self","Self","Self",5,559,0.559,1
102,2,56,"ExpList",28,"Frau","rechts","triangle.png","Fremder","Matching","Stranger","Stranger","Stranger",1,495,0.495,1
102,2,57,"ExpList",28,"Frau","rechts","triangle.png","Ich","Nonmatching","Stranger","Stranger","Stranger",5,598,0.598,1
102,2,58,"ExpList",28,"Frau","rechts","circle.png","Fremder","Nonmatching","Self","Self","Self",5,527,0.527,1
102,2,59,"ExpList",28,"Frau","rechts","triangle.png","Ich","Nonmatching","Stranger","Stranger","Stranger",5,583,0.583,1
102,2,60,"ExpList",28,"Frau","rechts","circle.png","Ich","Matching","Self","Self","Self",1,252,0.252,1
102,3,1,"ExpList",28,"Frau","rechts","triangle.png","Ich","Nonmatching","Stranger","Stranger","Stranger",5,516,0.516,1
102,3,2,"ExpList",28,"Frau","rechts","triangle.png","Ich","Nonmatching","Stranger","Stranger","Stranger",5,400,0.4,1
102,3,3,"ExpList",28,"Frau","rechts","circle.png","Fremder","Nonmatching","Self","Self","Self",1,336,0.336,0
102,3,4,"ExpList",28,"Frau","rechts","circle.png","Ich","Matching","Self","Self","Self",1,292,0.292,1
102,3,5,"ExpList",28,"Frau","rechts","circle.png","Fremder","Nonmatching","Self","Self","Self",5,617,0.617,1
102,3,6,"ExpList",28,"Frau","rechts","triangle.png","Fremder","Matching","Stranger","Stranger","Stranger",1,522,0.522,1
102,3,7,"ExpList",28,"Frau","rechts","circle.png","Fremder","Nonmatching","Self","Self","Self",5,465,0.465,1
102,3,8,"ExpList",28,"Frau","rechts","circle.png","Ich","Matching","Self","Self","Self",1,408,0.408,1
102,3,9,"ExpList",28,"Frau","rechts","circle.png","Ich","Matching","Self","Self","Self",1,252,0.252,1
102,3,10,"ExpList",28,"Frau","rechts","triangle.png","Ich","Nonmatching","Stranger","Stranger","Stranger",5,326,0.326,1
102,3,11,"ExpList",28,"Frau","rechts","triangle.png","Fremder","Matching","Stranger","Stranger","Stranger",1,484,0.484,1
102,3,12,"ExpList",28,"Frau","rechts","circle.png","Fremder","Nonmatching","Self","Self","Self",5,435,0.435,1
102,3,13,"ExpList",28,"Frau","rechts","triangle.png","Ich","Nonmatching","Stranger","Stranger","Stranger",5,651,0.651,1
102,3,14,"ExpList",28,"Frau","rechts","triangle.png","Ich","Nonmatching","Stranger","Stranger","Stranger",5,489,0.489,1
102,3,15,"ExpList",28,"Frau","rechts","triangle.png","Fremder","Matching","Stranger","Stranger","Stranger",5,489,0.489,0
102,3,16,"ExpList",28,"Frau","rechts","circle.png","Ich","Matching","Self","Self","Self",1,400,0.4,1
102,3,17,"ExpList",28,"Frau","rechts","circle.png","Fremder","Nonmatching","Self","Self","Self",5,481,0.481,1
102,3,18,"ExpList",28,"Frau","rechts","triangle.png","Fremder","Matching","Stranger","Stranger","Stranger",1,519,0.519,1
102,3,19,"ExpList",28,"Frau","rechts","circle.png","Ich","Matching","Self","Self","Self",1,325,0.325,1
102,3,20,"ExpList",28,"Frau","rechts","circle.png","Fremder","Nonmatching","Self","Self","Self",5,548,0.548,1
102,3,21,"ExpList",28,"Frau","rechts","triangle.png","Fremder","Matching","Stranger","Stranger","Stranger",1,648,0.648,1
102,3,22,"ExpList",28,"Frau","rechts","triangle.png","Fremder","Matching","Stranger","Stranger","Stranger",1,670,0.67,1
102,3,23,"ExpList",28,"Frau","rechts","triangle.png","Fremder","Matching","Stranger","Stranger","Stranger",1,422,0.422,1
102,3,24,"ExpList",28,"Frau","rechts","circle.png","Fremder","Nonmatching","Self","Self","Self",5,460,0.46,1
102,3,25,"ExpList",28,"Frau","rechts","circle.png","Ich","Matching","Self","Self","Self",1,433,0.433,1
102,3,26,"ExpList",28,"Frau","rechts","triangle.png","Fremder","Matching","Stranger","Stranger","Stranger",1,384,0.384,1
102,3,27,"ExpList",28,"Frau","rechts","triangle.png","Ich","Nonmatching","Stranger","Stranger","Stranger",5,417,0.417,1
102,3,28,"ExpList",28,"Frau","rechts","triangle.png","Fremder","Matching","Stranger","Stranger","Stranger",1,546,0.546,1
102,3,29,"ExpList",28,"Frau","rechts","circle.png","Fremder","Nonmatching","Self","Self","Self",5,555,0.555,1
102,3,30,"ExpList",28,"Frau","rechts","circle.png","Fremder","Nonmatching","Self","Self","Self",5,310,0.31,1
102,3,31,"ExpList",28,"Frau","rechts","triangle.png","Ich","Nonmatching","Stranger","Stranger","Stranger",5,552,0.552,1
102,3,32,"ExpList",28,"Frau","rechts","circle.png","Ich","Matching","Self","Self","Self",1,304,0.304,1
102,3,33,"ExpList",28,"Frau","rechts","triangle.png","Ich","Nonmatching","Stranger","Stranger","Stranger",5,568,0.568,1
102,3,34,"ExpList",28,"Frau","rechts","circle.png","Ich","Matching","Self","Self","Self",1,347,0.347,1
102,3,35,"ExpList",28,"Frau","rechts","circle.png","Ich","Matching","Self","Self","Self",1,326,0.326,1
102,3,36,"ExpList",28,"Frau","rechts","circle.png","Fremder","Nonmatching","Self","Self","Self",5,454,0.454,1
102,3,37,"ExpList",28,"Frau","rechts","triangle.png","Ich","Nonmatching","Stranger","Stranger","Stranger",5,587,0.587,1
102,3,38,"ExpList",28,"Frau","rechts","circle.png","Ich","Matching","Self","Self","Self",1,443,0.443,1
102,3,39,"ExpList",28,"Frau","rechts","triangle.png","Ich","Nonmatching","Stranger","Stranger","Stranger",5,397,0.397,1
102,3,40,"ExpList",28,"Frau","rechts","circle.png","Ich","Matching","Self","Self","Self",1,400,0.4,1
102,3,41,"ExpList",28,"Frau","rechts","triangle.png","Fremder","Matching","Stranger","Stranger","Stranger",1,539,0.539,1
102,3,42,"ExpList",28,"Frau","rechts","circle.png","Ich","Matching","Self","Self","Self",1,496,0.496,1
102,3,43,"ExpList",28,"Frau","rechts","circle.png","Fremder","Nonmatching","Self","Self","Self",5,456,0.456,1
102,3,44,"ExpList",28,"Frau","rechts","triangle.png","Fremder","Matching","Stranger","Stranger","Stranger",1,534,0.534,1
102,3,45,"ExpList",28,"Frau","rechts","triangle.png","Ich","Nonmatching","Stranger","Stranger","Stranger",5,461,0.461,1
102,3,46,"ExpList",28,"Frau","rechts","circle.png","Ich","Matching","Self","Self","Self",1,398,0.398,1
102,3,47,"ExpList",28,"Frau","rechts","triangle.png","Fremder","Matching","Stranger","Stranger","Stranger",1,368,0.368,1
102,3,48,"ExpList",28,"Frau","rechts","circle.png","Fremder","Nonmatching","Self","Self","Self",1,353,0.353,0
102,3,49,"ExpList",28,"Frau","rechts","triangle.png","Ich","Nonmatching","Stranger","Stranger","Stranger",5,604,0.604,1
102,3,50,"ExpList",28,"Frau","rechts","circle.png","Ich","Matching","Self","Self","Self",1,368,0.368,1
102,3,51,"ExpList",28,"Frau","rechts","triangle.png","Ich","Nonmatching","Stranger","Stranger","Stranger",5,415,0.415,1
102,3,52,"ExpList",28,"Frau","rechts","circle.png","Ich","Matching","Self","Self","Self",1,450,0.45,1
102,3,53,"ExpList",28,"Frau","rechts","circle.png","Fremder","Nonmatching","Self","Self","Self",1,393,0.393,0
102,3,54,"ExpList",28,"Frau","rechts","triangle.png","Ich","Nonmatching","Stranger","Stranger","Stranger",5,569,0.569,1
102,3,55,"ExpList",28,"Frau","rechts","triangle.png","Fremder","Matching","Stranger","Stranger","Stranger",1,573,0.573,1
102,3,56,"ExpList",28,"Frau","rechts","triangle.png","Fremder","Matching","Stranger","Stranger","Stranger",1,493,0.493,1
102,3,57,"ExpList",28,"Frau","rechts","circle.png","Fremder","Nonmatching","Self","Self","Self",5,517,0.517,1
102,3,58,"ExpList",28,"Frau","rechts","triangle.png","Ich","Nonmatching","Stranger","Stranger","Stranger",5,677,0.677,1
102,3,59,"ExpList",28,"Frau","rechts","circle.png","Fremder","Nonmatching","Self","Self","Self",5,430,0.43,1
102,3,60,"ExpList",28,"Frau","rechts","triangle.png","Fremder","Matching","Stranger","Stranger","Stranger",1,622,0.622,1
102,4,1,"ExpList",28,"Frau","rechts","circle.png","Ich","Matching","Self","Self","Self",1,375,0.375,1
102,4,2,"ExpList",28,"Frau","rechts","circle.png","Ich","Matching","Self","Self","Self",1,303,0.303,1
102,4,3,"ExpList",28,"Frau","rechts","circle.png","Ich","Matching","Self","Self","Self",1,296,0.296,1
102,4,4,"ExpList",28,"Frau","rechts","triangle.png","Ich","Nonmatching","Stranger","Stranger","Stranger",5,279,0.279,1
102,4,5,"ExpList",28,"Frau","rechts","circle.png","Fremder","Nonmatching","Self","Self","Self",5,447,0.447,1
102,4,6,"ExpList",28,"Frau","rechts","triangle.png","Ich","Nonmatching","Stranger","Stranger","Stranger",5,535,0.535,1
102,4,7,"ExpList",28,"Frau","rechts","triangle.png","Fremder","Matching","Stranger","Stranger","Stranger",1,479,0.479,1
102,4,8,"ExpList",28,"Frau","rechts","triangle.png","Fremder","Matching","Stranger","Stranger","Stranger",1,540,0.54,1
102,4,9,"ExpList",28,"Frau","rechts","circle.png","Fremder","Nonmatching","Self","Self","Self",5,445,0.445,1
102,4,10,"ExpList",28,"Frau","rechts","triangle.png","Ich","Nonmatching","Stranger","Stranger","Stranger",1,601,0.601,0
102,4,11,"ExpList",28,"Frau","rechts","circle.png","Ich","Matching","Self","Self","Self",1,484,0.484,1
102,4,12,"ExpList",28,"Frau","rechts","circle.png","Fremder","Nonmatching","Self","Self","Self",5,488,0.488,1
102,4,13,"ExpList",28,"Frau","rechts","triangle.png","Fremder","Matching","Stranger","Stranger","Stranger",1,489,0.489,1
102,4,14,"ExpList",28,"Frau","rechts","triangle.png","Ich","Nonmatching","Stranger","Stranger","Stranger",5,386,0.386,1
102,4,15,"ExpList",28,"Frau","rechts","triangle.png","Fremder","Matching","Stranger","Stranger","Stranger",1,515,0.515,1
102,4,16,"ExpList",28,"Frau","rechts","circle.png","Ich","Matching","Self","Self","Self",1,402,0.402,1
102,4,17,"ExpList",28,"Frau","rechts","triangle.png","Ich","Nonmatching","Stranger","Stranger","Stranger",5,465,0.465,1
102,4,18,"ExpList",28,"Frau","rechts","triangle.png","Ich","Nonmatching","Stranger","Stranger","Stranger",5,538,0.538,1
102,4,19,"ExpList",28,"Frau","rechts","triangle.png","Ich","Nonmatching","Stranger","Stranger","Stranger",5,489,0.489,1
102,4,20,"ExpList",28,"Frau","rechts","circle.png","Ich","Matching","Self","Self","Self",1,405,0.405,1
102,4,21,"ExpList",28,"Frau","rechts","triangle.png","Fremder","Matching","Stranger","Stranger","Stranger",1,623,0.623,1
102,4,22,"ExpList",28,"Frau","rechts","triangle.png","Ich","Nonmatching","Stranger","Stranger","Stranger",5,423,0.423,1
102,4,23,"ExpList",28,"Frau","rechts","triangle.png","Fremder","Matching","Stranger","Stranger","Stranger",1,490,0.49,1
102,4,24,"ExpList",28,"Frau","rechts","circle.png","Ich","Matching","Self","Self","Self",1,462,0.462,1
102,4,25,"ExpList",28,"Frau","rechts","circle.png","Fremder","Nonmatching","Self","Self","Self",5,412,0.412,1
102,4,26,"ExpList",28,"Frau","rechts","circle.png","Ich","Matching","Self","Self","Self",1,375,0.375,1
102,4,27,"ExpList",28,"Frau","rechts","triangle.png","Fremder","Matching","Stranger","Stranger","Stranger",1,441,0.441,1
102,4,28,"ExpList",28,"Frau","rechts","circle.png","Fremder","Nonmatching","Self","Self","Self",5,467,0.467,1
102,4,29,"ExpList",28,"Frau","rechts","circle.png","Ich","Matching","Self","Self","Self",1,411,0.411,1
102,4,30,"ExpList",28,"Frau","rechts","triangle.png","Fremder","Matching","Stranger","Stranger","Stranger",1,468,0.468,1
102,4,31,"ExpList",28,"Frau","rechts","triangle.png","Ich","Nonmatching","Stranger","Stranger","Stranger",5,627,0.627,1
102,4,32,"ExpList",28,"Frau","rechts","circle.png","Fremder","Nonmatching","Self","Self","Self",1,387,0.387,0
102,4,33,"ExpList",28,"Frau","rechts","circle.png","Fremder","Nonmatching","Self","Self","Self",5,668,0.668,1
102,4,34,"ExpList",28,"Frau","rechts","triangle.png","Fremder","Matching","Stranger","Stranger","Stranger",1,633,0.633,1
102,4,35,"ExpList",28,"Frau","rechts","circle.png","Fremder","Nonmatching","Self","Self","Self",5,545,0.545,1
102,4,36,"ExpList",28,"Frau","rechts","circle.png","Fremder","Nonmatching","Self","Self","Self",5,713,0.713,1
102,4,37,"ExpList",28,"Frau","rechts","circle.png","Fremder","Nonmatching","Self","Self","Self",5,708,0.708,1
102,4,38,"ExpList",28,"Frau","rechts","triangle.png","Fremder","Matching","Stranger","Stranger","Stranger",1,551,0.551,1
102,4,39,"ExpList",28,"Frau","rechts","circle.png","Ich","Matching","Self","Self","Self",1,440,0.44,1
102,4,40,"ExpList",28,"Frau","rechts","circle.png","Fremder","Nonmatching","Self","Self","Self",5,579,0.579,1
102,4,41,"ExpList",28,"Frau","rechts","circle.png","Fremder","Nonmatching","Self","Self","Self",5,584,0.584,1
102,4,42,"ExpList",28,"Frau","rechts","triangle.png","Ich","Nonmatching","Stranger","Stranger","Stranger",5,594,0.594,1
102,4,43,"ExpList",28,"Frau","rechts","circle.png","Ich","Matching","Self","Self","Self",1,649,0.649,1
102,4,44,"ExpList",28,"Frau","rechts","circle.png","Fremder","Nonmatching","Self","Self","Self",5,553,0.553,1
102,4,45,"ExpList",28,"Frau","rechts","triangle.png","Ich","Nonmatching","Stranger","Stranger","Stranger",5,470,0.47,1
102,4,46,"ExpList",28,"Frau","rechts","circle.png","Ich","Matching","Self","Self","Self",5,600,0.6,0
102,4,47,"ExpList",28,"Frau","rechts","triangle.png","Ich","Nonmatching","Stranger","Stranger","Stranger",5,533,0.533,1
102,4,48,"ExpList",28,"Frau","rechts","circle.png","Ich","Matching","Self","Self","Self",1,641,0.641,1
102,4,49,"ExpList",28,"Frau","rechts","triangle.png","Fremder","Matching","Stranger","Stranger","Stranger",5,373,0.373,0
102,4,50,"ExpList",28,"Frau","rechts","circle.png","Fremder","Nonmatching","Self","Self","Self",5,652,0.652,1
102,4,51,"ExpList",28,"Frau","rechts","triangle.png","Fremder","Matching","Stranger","Stranger","Stranger",1,664,0.664,1
102,4,52,"ExpList",28,"Frau","rechts","circle.png","Fremder","Nonmatching","Self","Self","Self",5,528,0.528,1
102,4,53,"ExpList",28,"Frau","rechts","circle.png","Ich","Matching","Self","Self","Self",1,514,0.514,1
102,4,54,"ExpList",28,"Frau","rechts","triangle.png","Ich","Nonmatching","Stranger","Stranger","Stranger",5,414,0.414,1
102,4,55,"ExpList",28,"Frau","rechts","triangle.png","Ich","Nonmatching","Stranger","Stranger","Stranger",5,415,0.415,1
102,4,56,"ExpList",28,"Frau","rechts","triangle.png","Fremder","Matching","Stranger","Stranger","Stranger",1,379,0.379,1
102,4,57,"ExpList",28,"Frau","rechts","circle.png","Ich","Matching","Self","Self","Self",1,423,0.423,1
102,4,58,"ExpList",28,"Frau","rechts","triangle.png","Fremder","Matching","Stranger","Stranger","Stranger",5,501,0.501,0
102,4,59,"ExpList",28,"Frau","rechts","triangle.png","Ich","Nonmatching","Stranger","Stranger","Stranger",5,442,0.442,1
102,4,60,"ExpList",28,"Frau","rechts","triangle.png","Fremder","Matching","Stranger","Stranger","Stranger",1,505,0.505,1
102,5,1,"ExpList",28,"Frau","rechts","circle.png","Fremder","Nonmatching","Self","Self","Self",5,661,0.661,1
102,5,2,"ExpList",28,"Frau","rechts","circle.png","Ich","Matching","Self","Self","Self",1,393,0.393,1
102,5,3,"ExpList",28,"Frau","rechts","circle.png","Ich","Matching","Self","Self","Self",1,391,0.391,1
102,5,4,"ExpList",28,"Frau","rechts","triangle.png","Ich","Nonmatching","Stranger","Stranger","Stranger",5,392,0.392,1
102,5,5,"ExpList",28,"Frau","rechts","circle.png","Ich","Matching","Self","Self","Self",1,384,0.384,1
102,5,6,"ExpList",28,"Frau","rechts","triangle.png","Fremder","Matching","Stranger","Stranger","Stranger",1,412,0.412,1
102,5,7,"ExpList",28,"Frau","rechts","circle.png","Fremder","Nonmatching","Self","Self","Self",5,482,0.482,1
102,5,8,"ExpList",28,"Frau","rechts","triangle.png","Ich","Nonmatching","Stranger","Stranger","Stranger",5,510,0.51,1
102,5,9,"ExpList",28,"Frau","rechts","triangle.png","Ich","Nonmatching","Stranger","Stranger","Stranger",1,638,0.638,0
102,5,10,"ExpList",28,"Frau","rechts","triangle.png","Fremder","Matching","Stranger","Stranger","Stranger",1,484,0.484,1
102,5,11,"ExpList",28,"Frau","rechts","circle.png","Fremder","Nonmatching","Self","Self","Self",5,595,0.595,1
102,5,12,"ExpList",28,"Frau","rechts","triangle.png","Ich","Nonmatching","Stranger","Stranger","Stranger",5,784,0.784,1
102,5,13,"ExpList",28,"Frau","rechts","circle.png","Fremder","Nonmatching","Self","Self","Self",1,537,0.537,0
102,5,14,"ExpList",28,"Frau","rechts","triangle.png","Fremder","Matching","Stranger","Stranger","Stranger",1,515,0.515,1
102,5,15,"ExpList",28,"Frau","rechts","circle.png","Fremder","Nonmatching","Self","Self","Self",5,639,0.639,1
102,5,16,"ExpList",28,"Frau","rechts","circle.png","Ich","Matching","Self","Self","Self",1,423,0.423,1
102,5,17,"ExpList",28,"Frau","rechts","circle.png","Fremder","Nonmatching","Self","Self","Self",5,481,0.481,1
102,5,18,"ExpList",28,"Frau","rechts","triangle.png","Ich","Nonmatching","Stranger","Stranger","Stranger",5,546,0.546,1
102,5,19,"ExpList",28,"Frau","rechts","circle.png","Ich","Matching","Self","Self","Self",1,396,0.396,1
102,5,20,"ExpList",28,"Frau","rechts","triangle.png","Fremder","Matching","Stranger","Stranger","Stranger",1,474,0.474,1
102,5,21,"ExpList",28,"Frau","rechts","triangle.png","Fremder","Matching","Stranger","Stranger","Stranger",1,569,0.569,1
102,5,22,"ExpList",28,"Frau","rechts","triangle.png","Ich","Nonmatching","Stranger","Stranger","Stranger",5,524,0.524,1
102,5,23,"ExpList",28,"Frau","rechts","circle.png","Fremder","Nonmatching","Self","Self","Self",5,590,0.59,1
102,5,24,"ExpList",28,"Frau","rechts","triangle.png","Fremder","Matching","Stranger","Stranger","Stranger",1,461,0.461,1
102,5,25,"ExpList",28,"Frau","rechts","triangle.png","Fremder","Matching","Stranger","Stranger","Stranger",1,571,0.571,1
102,5,26,"ExpList",28,"Frau","rechts","triangle.png","Fremder","Matching","Stranger","Stranger","Stranger",1,356,0.356,1
102,5,27,"ExpList",28,"Frau","rechts","circle.png","Fremder","Nonmatching","Self","Self","Self",5,438,0.438,1
102,5,28,"ExpList",28,"Frau","rechts","circle.png","Ich","Matching","Self","Self","Self",1,370,0.37,1
102,5,29,"ExpList",28,"Frau","rechts","circle.png","Ich","Matching","Self","Self","Self",1,485,0.485,1
102,5,30,"ExpList",28,"Frau","rechts","triangle.png","Fremder","Matching","Stranger","Stranger","Stranger",1,404,0.404,1
102,5,31,"ExpList",28,"Frau","rechts","triangle.png","Ich","Nonmatching","Stranger","Stranger","Stranger",5,769,0.769,1
102,5,32,"ExpList",28,"Frau","rechts","triangle.png","Ich","Nonmatching","Stranger","Stranger","Stranger",5,509,0.509,1
102,5,33,"ExpList",28,"Frau","rechts","circle.png","Ich","Matching","Self","Self","Self",1,381,0.381,1
102,5,34,"ExpList",28,"Frau","rechts","circle.png","Fremder","Nonmatching","Self","Self","Self",5,489,0.489,1
102,5,35,"ExpList",28,"Frau","rechts","circle.png","Ich","Matching","Self","Self","Self",1,387,0.387,1
102,5,36,"ExpList",28,"Frau","rechts","triangle.png","Ich","Nonmatching","Stranger","Stranger","Stranger",5,430,0.43,1
102,5,37,"ExpList",28,"Frau","rechts","circle.png","Ich","Matching","Self","Self","Self",1,432,0.432,1
102,5,38,"ExpList",28,"Frau","rechts","triangle.png","Fremder","Matching","Stranger","Stranger","Stranger",1,439,0.439,1
102,5,39,"ExpList",28,"Frau","rechts","triangle.png","Ich","Nonmatching","Stranger","Stranger","Stranger",5,511,0.511,1
102,5,40,"ExpList",28,"Frau","rechts","circle.png","Ich","Matching","Self","Self","Self",1,417,0.417,1
102,5,41,"ExpList",28,"Frau","rechts","circle.png","Fremder","Nonmatching","Self","Self","Self",1,404,0.404,0
102,5,42,"ExpList",28,"Frau","rechts","triangle.png","Ich","Nonmatching","Stranger","Stranger","Stranger",5,909,0.909,1
102,5,43,"ExpList",28,"Frau","rechts","circle.png","Fremder","Nonmatching","Self","Self","Self",5,526,0.526,1
102,5,44,"ExpList",28,"Frau","rechts","circle.png","Ich","Matching","Self","Self","Self",1,403,0.403,1
102,5,45,"ExpList",28,"Frau","rechts","triangle.png","Fremder","Matching","Stranger","Stranger","Stranger",1,631,0.631,1
102,5,46,"ExpList",28,"Frau","rechts","circle.png","Ich","Matching","Self","Self","Self",1,525,0.525,1
102,5,47,"ExpList",28,"Frau","rechts","circle.png","Fremder","Nonmatching","Self","Self","Self",5,482,0.482,1
102,5,48,"ExpList",28,"Frau","rechts","triangle.png","Ich","Nonmatching","Stranger","Stranger","Stranger",5,543,0.543,1
102,5,49,"ExpList",28,"Frau","rechts","triangle.png","Fremder","Matching","Stranger","Stranger","Stranger",1,424,0.424,1
102,5,50,"ExpList",28,"Frau","rechts","triangle.png","Fremder","Matching","Stranger","Stranger","Stranger",1,563,0.563,1
102,5,51,"ExpList",28,"Frau","rechts","circle.png","Ich","Matching","Self","Self","Self",1,502,0.502,1
102,5,52,"ExpList",28,"Frau","rechts","triangle.png","Ich","Nonmatching","Stranger","Stranger","Stranger",5,838,0.838,1
102,5,53,"ExpList",28,"Frau","rechts","triangle.png","Fremder","Matching","Stranger","Stranger","Stranger",1,466,0.466,1
102,5,54,"ExpList",28,"Frau","rechts","triangle.png","Fremder","Matching","Stranger","Stranger","Stranger",1,662,0.662,1
102,5,55,"ExpList",28,"Frau","rechts","circle.png","Fremder","Nonmatching","Self","Self","Self",5,535,0.535,1
102,5,56,"ExpList",28,"Frau","rechts","triangle.png","Ich","Nonmatching","Stranger","Stranger","Stranger",5,646,0.646,1
102,5,57,"ExpList",28,"Frau","rechts","circle.png","Ich","Matching","Self","Self","Self",1,412,0.412,1
102,5,58,"ExpList",28,"Frau","rechts","circle.png","Fremder","Nonmatching","Self","Self","Self",5,519,0.519,1
102,5,59,"ExpList",28,"Frau","rechts","circle.png","Fremder","Nonmatching","Self","Self","Self",5,441,0.441,1
102,5,60,"ExpList",28,"Frau","rechts","triangle.png","Ich","Nonmatching","Stranger","Stranger","Stranger",5,729,0.729,1
103,1,1,"TrainList1",22,"Frau","rechts","circle.png","Ich","Matching","Self","Self","Self",5,753,0.753,1
103,1,2,"TrainList1",22,"Frau","rechts","triangle.png","Ich","Nonmatching","Stranger","Stranger","Stranger",1,565,0.565,1
103,1,3,"TrainList1",22,"Frau","rechts","triangle.png","Fremder","Matching","Stranger","Stranger","Stranger",1,418,0.418,0
103,1,4,"TrainList1",22,"Frau","rechts","circle.png","Ich","Matching","Self","Self","Self",5,460,0.46,1
103,1,5,"TrainList1",22,"Frau","rechts","circle.png","Ich","Matching","Self","Self","Self",5,530,0.53,1
103,1,6,"TrainList1",22,"Frau","rechts","circle.png","Fremder","Nonmatching","Self","Self","Self",1,485,0.485,1
103,1,7,"TrainList1",22,"Frau","rechts","triangle.png","Ich","Nonmatching","Stranger","Stranger","Stranger",1,693,0.693,1
103,1,8,"TrainList1",22,"Frau","rechts","circle.png","Fremder","Nonmatching","Self","Self","Self",1,636,0.636,1
103,1,9,"TrainList1",22,"Frau","rechts","circle.png","Ich","Matching","Self","Self","Self",5,516,0.516,1
103,1,10,"TrainList1",22,"Frau","rechts","circle.png","Ich","Matching","Self","Self","Self",5,427,0.427,1
103,1,11,"TrainList1",22,"Frau","rechts","triangle.png","Ich","Nonmatching","Stranger","Stranger","Stranger",1,625,0.625,1
103,1,12,"TrainList1",22,"Frau","rechts","triangle.png","Fremder","Matching","Stranger","Stranger","Stranger",5,517,0.517,1
103,1,13,"TrainList1",22,"Frau","rechts","circle.png","Fremder","Nonmatching","Self","Self","Self",1,604,0.604,1
103,1,14,"TrainList1",22,"Frau","rechts","circle.png","Fremder","Nonmatching","Self","Self","Self",1,578,0.578,1
103,1,15,"TrainList1",22,"Frau","rechts","triangle.png","Ich","Nonmatching","Stranger","Stranger","Stranger",1,536,0.536,1
103,1,16,"TrainList1",22,"Frau","rechts","circle.png","Fremder","Nonmatching","Self","Self","Self",1,507,0.507,1
103,1,17,"TrainList1",22,"Frau","rechts","triangle.png","Ich","Nonmatching","Stranger","Stranger","Stranger",1,440,0.44,1
103,1,18,"TrainList1",22,"Frau","rechts","circle.png","Fremder","Nonmatching","Self","Self","Self",1,544,0.544,1
103,1,19,"TrainList1",22,"Frau","rechts","triangle.png","Fremder","Matching","Stranger","Stranger","Stranger",5,617,0.617,1
103,1,20,"TrainList1",22,"Frau","rechts","triangle.png","Fremder","Matching","Stranger","Stranger","Stranger",5,525,0.525,1
103,1,21,"TrainList1",22,"Frau","rechts","triangle.png","Fremder","Matching","Stranger","Stranger","Stranger",5,401,0.401,1
103,1,22,"TrainList1",22,"Frau","rechts","triangle.png","Ich","Nonmatching","Stranger","Stranger","Stranger",1,398,0.398,1
103,1,23,"TrainList1",22,"Frau","rechts","triangle.png","Fremder","Matching","Stranger","Stranger","Stranger",5,689,0.689,1
103,1,24,"TrainList1",22,"Frau","rechts","circle.png","Ich","Matching","Self","Self","Self",5,372,0.372,1
103,2,1,"ExpList",22,"Frau","rechts","triangle.png","Ich","Nonmatching","Stranger","Stranger","Stranger",1,468,0.468,1
103,2,2,"ExpList",22,"Frau","rechts","circle.png","Fremder","Nonmatching","Self","Self","Self",1,541,0.541,1
103,2,3,"ExpList",22,"Frau","rechts","triangle.png","Fremder","Matching","Stranger","Stranger","Stranger",5,398,0.398,1
103,2,4,"ExpList",22,"Frau","rechts","triangle.png","Fremder","Matching","Stranger","Stranger","Stranger",5,359,0.359,1
103,2,5,"ExpList",22,"Frau","rechts","circle.png","Ich","Matching","Self","Self","Self",5,394,0.394,1
103,2,6,"ExpList",22,"Frau","rechts","triangle.png","Ich","Nonmatching","Stranger","Stranger","Stranger",1,387,0.387,1
103,2,7,"ExpList",22,"Frau","rechts","circle.png","Ich","Matching","Self","Self","Self",5,411,0.411,1
103,2,8,"ExpList",22,"Frau","rechts","circle.png","Fremder","Nonmatching","Self","Self","Self",1,465,0.465,1
103,2,9,"ExpList",22,"Frau","rechts","circle.png","Fremder","Nonmatching","Self","Self","Self",1,515,0.515,1
103,2,10,"ExpList",22,"Frau","rechts","triangle.png","Ich","Nonmatching","Stranger","Stranger","Stranger",5,430,0.43,0
103,2,11,"ExpList",22,"Frau","rechts","circle.png","Ich","Matching","Self","Self","Self",5,450,0.45,1
103,2,12,"ExpList",22,"Frau","rechts","triangle.png","Ich","Nonmatching","Stranger","Stranger","Stranger",1,403,0.403,1
103,2,13,"ExpList",22,"Frau","rechts","triangle.png","Ich","Nonmatching","Stranger","Stranger","Stranger",1,471,0.471,1
103,2,14,"ExpList",22,"Frau","rechts","circle.png","Ich","Matching","Self","Self","Self",5,397,0.397,1
103,2,15,"ExpList",22,"Frau","rechts","triangle.png","Ich","Nonmatching","Stranger","Stranger","Stranger",1,437,0.437,1
103,2,16,"ExpList",22,"Frau","rechts","triangle.png","Ich","Nonmatching","Stranger","Stranger","Stranger",1,389,0.389,1
103,2,17,"ExpList",22,"Frau","rechts","triangle.png","Fremder","Matching","Stranger","Stranger","Stranger",5,590,0.59,1
103,2,18,"ExpList",22,"Frau","rechts","circle.png","Fremder","Nonmatching","Self","Self","Self",1,508,0.508,1
103,2,19,"ExpList",22,"Frau","rechts","triangle.png","Fremder","Matching","Stranger","Stranger","Stranger",5,533,0.533,1
103,2,20,"ExpList",22,"Frau","rechts","triangle.png","Fremder","Matching","Stranger","Stranger","Stranger",5,493,0.493,1
103,2,21,"ExpList",22,"Frau","rechts","circle.png","Fremder","Nonmatching","Self","Self","Self",1,454,0.454,1
103,2,22,"ExpList",22,"Frau","rechts","circle.png","Ich","Matching","Self","Self","Self",5,333,0.333,1
103,2,23,"ExpList",22,"Frau","rechts","triangle.png","Fremder","Matching","Stranger","Stranger","Stranger",5,475,0.475,1
103,2,24,"ExpList",22,"Frau","rechts","circle.png","Fremder","Nonmatching","Self","Self","Self",1,457,0.457,1
103,2,25,"ExpList",22,"Frau","rechts","triangle.png","Fremder","Matching","Stranger","Stranger","Stranger",5,459,0.459,1
103,2,26,"ExpList",22,"Frau","rechts","triangle.png","Fremder","Matching","Stranger","Stranger","Stranger",5,418,0.418,1
103,2,27,"ExpList",22,"Frau","rechts","circle.png","Ich","Matching","Self","Self","Self",5,410,0.41,1
103,2,28,"ExpList",22,"Frau","rechts","triangle.png","Ich","Nonmatching","Stranger","Stranger","Stranger",1,575,0.575,1
103,2,29,"ExpList",22,"Frau","rechts","circle.png","Ich","Matching","Self","Self","Self",5,496,0.496,1
103,2,30,"ExpList",22,"Frau","rechts","triangle.png","Fremder","Matching","Stranger","Stranger","Stranger",5,438,0.438,1
103,2,31,"ExpList",22,"Frau","rechts","triangle.png","Ich","Nonmatching","Stranger","Stranger","Stranger",1,473,0.473,1
103,2,32,"ExpList",22,"Frau","rechts","circle.png","Ich","Matching","Self","Self","Self",5,431,0.431,1
103,2,33,"ExpList",22,"Frau","rechts","triangle.png","Fremder","Matching","Stranger","Stranger","Stranger",5,423,0.423,1
103,2,34,"ExpList",22,"Frau","rechts","circle.png","Ich","Matching","Self","Self","Self",5,295,0.295,1
103,2,35,"ExpList",22,"Frau","rechts","triangle.png","Ich","Nonmatching","Stranger","Stranger","Stranger",1,460,0.46,1
103,2,36,"ExpList",22,"Frau","rechts","triangle.png","Fremder","Matching","Stranger","Stranger","Stranger",5,352,0.352,1
103,2,37,"ExpList",22,"Frau","rechts","circle.png","Fremder","Nonmatching","Self","Self","Self",1,440,0.44,1
103,2,38,"ExpList",22,"Frau","rechts","circle.png","Ich","Matching","Self","Self","Self",5,342,0.342,1
103,2,39,"ExpList",22,"Frau","rechts","circle.png","Fremder","Nonmatching","Self","Self","Self",1,488,0.488,1
103,2,40,"ExpList",22,"Frau","rechts","triangle.png","Ich","Nonmatching","Stranger","Stranger","Stranger",1,527,0.527,1
103,2,41,"ExpList",22,"Frau","rechts","triangle.png","Fremder","Matching","Stranger","Stranger","Stranger",5,535,0.535,1
103,2,42,"ExpList",22,"Frau","rechts","circle.png","Ich","Matching","Self","Self","Self",5,374,0.374,1
103,2,43,"ExpList",22,"Frau","rechts","circle.png","Ich","Matching","Self","Self","Self",5,335,0.335,1
103,2,44,"ExpList",22,"Frau","rechts","triangle.png","Ich","Nonmatching","Stranger","Stranger","Stranger",1,424,0.424,1
103,2,45,"ExpList",22,"Frau","rechts","circle.png","Ich","Matching","Self","Self","Self",5,429,0.429,1
103,2,46,"ExpList",22,"Frau","rechts","circle.png","Fremder","Nonmatching","Self","Self","Self",1,526,0.526,1
103,2,47,"ExpList",22,"Frau","rechts","triangle.png","Fremder","Matching","Stranger","Stranger","Stranger",5,377,0.377,1
103,2,48,"ExpList",22,"Frau","rechts","circle.png","Ich","Matching","Self","Self","Self",5,398,0.398,1
103,2,49,"ExpList",22,"Frau","rechts","circle.png","Fremder","Nonmatching","Self","Self","Self",1,701,0.701,1
103,2,50,"ExpList",22,"Frau","rechts","triangle.png","Ich","Nonmatching","Stranger","Stranger","Stranger",1,477,0.477,1
103,2,51,"ExpList",22,"Frau","rechts","circle.png","Fremder","Nonmatching","Self","Self","Self",1,605,0.605,1
103,2,52,"ExpList",22,"Frau","rechts","circle.png","Ich","Matching","Self","Self","Self",5,326,0.326,1
103,2,53,"ExpList",22,"Frau","rechts","circle.png","Fremder","Nonmatching","Self","Self","Self",1,476,0.476,1
103,2,54,"ExpList",22,"Frau","rechts","triangle.png","Ich","Nonmatching","Stranger","Stranger","Stranger",1,457,0.457,1
103,2,55,"ExpList",22,"Frau","rechts","triangle.png","Ich","Nonmatching","Stranger","Stranger","Stranger",1,415,0.415,1
103,2,56,"ExpList",22,"Frau","rechts","triangle.png","Fremder","Matching","Stranger","Stranger","Stranger",5,556,0.556,1
103,2,57,"ExpList",22,"Frau","rechts","circle.png","Fremder","Nonmatching","Self","Self","Self",1,474,0.474,1
103,2,58,"ExpList",22,"Frau","rechts","circle.png","Fremder","Nonmatching","Self","Self","Self",1,507,0.507,1
103,2,59,"ExpList",22,"Frau","rechts","circle.png","Fremder","Nonmatching","Self","Self","Self",1,462,0.462,1
103,2,60,"ExpList",22,"Frau","rechts","triangle.png","Fremder","Matching","Stranger","Stranger","Stranger",5,499,0.499,1
103,3,1,"ExpList",22,"Frau","rechts","triangle.png","Ich","Nonmatching","Stranger","Stranger","Stranger",1,371,0.371,1
103,3,2,"ExpList",22,"Frau","rechts","circle.png","Fremder","Nonmatching","Self","Self","Self",1,522,0.522,1
103,3,3,"ExpList",22,"Frau","rechts","circle.png","Ich","Matching","Self","Self","Self",5,424,0.424,1
103,3,4,"ExpList",22,"Frau","rechts","triangle.png","Fremder","Matching","Stranger","Stranger","Stranger",5,316,0.316,1
103,3,5,"ExpList",22,"Frau","rechts","circle.png","Fremder","Nonmatching","Self","Self","Self",1,482,0.482,1
103,3,6,"ExpList",22,"Frau","rechts","triangle.png","Fremder","Matching","Stranger","Stranger","Stranger",5,467,0.467,1
103,3,7,"ExpList",22,"Frau","rechts","triangle.png","Fremder","Matching","Stranger","Stranger","Stranger",5,415,0.415,1
103,3,8,"ExpList",22,"Frau","rechts","triangle.png","Ich","Nonmatching","Stranger","Stranger","Stranger",1,517,0.517,1
103,3,9,"ExpList",22,"Frau","rechts","circle.png","Fremder","Nonmatching","Self","Self","Self",1,450,0.45,1
103,3,10,"ExpList",22,"Frau","rechts","circle.png","Ich","Matching","Self","Self","Self",5,330,0.33,1
103,3,11,"ExpList",22,"Frau","rechts","triangle.png","Ich","Nonmatching","Stranger","Stranger","Stranger",1,321,0.321,1
103,3,12,"ExpList",22,"Frau","rechts","triangle.png","Ich","Nonmatching","Stranger","Stranger","Stranger",1,386,0.386,1
103,3,13,"ExpList",22,"Frau","rechts","circle.png","Ich","Matching","Self","Self","Self",5,453,0.453,1
103,3,14,"ExpList",22,"Frau","rechts","circle.png","Fremder","Nonmatching","Self","Self","Self",1,467,0.467,1
103,3,15,"ExpList",22,"Frau","rechts","triangle.png","Fremder","Matching","Stranger","Stranger","Stranger",5,453,0.453,1
103,3,16,"ExpList",22,"Frau","rechts","triangle.png","Ich","Nonmatching","Stranger","Stranger","Stranger",1,392,0.392,1
103,3,17,"ExpList",22,"Frau","rechts","triangle.png","Ich","Nonmatching","Stranger","Stranger","Stranger",1,373,0.373,1
103,3,18,"ExpList",22,"Frau","rechts","circle.png","Fremder","Nonmatching","Self","Self","Self",1,525,0.525,1
103,3,19,"ExpList",22,"Frau","rechts","triangle.png","Fremder","Matching","Stranger","Stranger","Stranger",1,330,0.33,0
103,3,20,"ExpList",22,"Frau","rechts","triangle.png","Ich","Nonmatching","Stranger","Stranger","Stranger",1,437,0.437,1
103,3,21,"ExpList",22,"Frau","rechts","circle.png","Fremder","Nonmatching","Self","Self","Self",1,502,0.502,1
103,3,22,"ExpList",22,"Frau","rechts","circle.png","Ich","Matching","Self","Self","Self",5,400,0.4,1
103,3,23,"ExpList",22,"Frau","rechts","circle.png","Ich","Matching","Self","Self","Self",5,407,0.407,1
103,3,24,"ExpList",22,"Frau","rechts","triangle.png","Fremder","Matching","Stranger","Stranger","Stranger",5,439,0.439,1
103,3,25,"ExpList",22,"Frau","rechts","triangle.png","Ich","Nonmatching","Stranger","Stranger","Stranger",1,434,0.434,1
103,3,26,"ExpList",22,"Frau","rechts","circle.png","Ich","Matching","Self","Self","Self",5,401,0.401,1
103,3,27,"ExpList",22,"Frau","rechts","circle.png","Ich","Matching","Self","Self","Self",5,383,0.383,1
103,3,28,"ExpList",22,"Frau","rechts","triangle.png","Fremder","Matching","Stranger","Stranger","Stranger",5,420,0.42,1
103,3,29,"ExpList",22,"Frau","rechts","circle.png","Fremder","Nonmatching","Self","Self","Self",1,515,0.515,1
103,3,30,"ExpList",22,"Frau","rechts","triangle.png","Fremder","Matching","Stranger","Stranger","Stranger",5,434,0.434,1
103,3,31,"ExpList",22,"Frau","rechts","triangle.png","Ich","Nonmatching","Stranger","Stranger","Stranger",1,464,0.464,1
103,3,32,"ExpList",22,"Frau","rechts","triangle.png","Ich","Nonmatching","Stranger","Stranger","Stranger",1,478,0.478,1
103,3,33,"ExpList",22,"Frau","rechts","circle.png","Ich","Matching","Self","Self","Self",5,434,0.434,1
103,3,34,"ExpList",22,"Frau","rechts","triangle.png","Ich","Nonmatching","Stranger","Stranger","Stranger",1,419,0.419,1
103,3,35,"ExpList",22,"Frau","rechts","triangle.png","Ich","Nonmatching","Stranger","Stranger","Stranger",1,420,0.42,1
103,3,36,"ExpList",22,"Frau","rechts","triangle.png","Fremder","Matching","Stranger","Stranger","Stranger",5,571,0.571,1
103,3,37,"ExpList",22,"Frau","rechts","circle.png","Ich","Matching","Self","Self","Self",5,427,0.427,1
103,3,38,"ExpList",22,"Frau","rechts","triangle.png","Ich","Nonmatching","Stranger","Stranger","Stranger",1,402,0.402,1
103,3,39,"ExpList",22,"Frau","rechts","circle.png","Fremder","Nonmatching","Self","Self","Self",1,545,0.545,1
103,3,40,"ExpList",22,"Frau","rechts","triangle.png","Fremder","Matching","Stranger","Stranger","Stranger",5,775,0.775,1
103,3,41,"ExpList",22,"Frau","rechts","triangle.png","Ich","Nonmatching","Stranger","Stranger","Stranger",1,410,0.41,1
103,3,42,"ExpList",22,"Frau","rechts","circle.png","Fremder","Nonmatching","Self","Self","Self",1,502,0.502,1
103,3,43,"ExpList",22,"Frau","rechts","circle.png","Ich","Matching","Self","Self","Self",5,504,0.504,1
103,3,44,"ExpList",22,"Frau","rechts","circle.png","Ich","Matching","Self","Self","Self",5,495,0.495,1
103,3,45,"ExpList",22,"Frau","rechts","triangle.png","Fremder","Matching","Stranger","Stranger","Stranger",5,456,0.456,1
103,3,46,"ExpList",22,"Frau","rechts","circle.png","Fremder","Nonmatching","Self","Self","Self",1,380,0.38,1
103,3,47,"ExpList",22,"Frau","rechts","circle.png","Fremder","Nonmatching","Self","Self","Self",1,476,0.476,1
103,3,48,"ExpList",22,"Frau","rechts","circle.png","Fremder","Nonmatching","Self","Self","Self",1,412,0.412,1
103,3,49,"ExpList",22,"Frau","rechts","triangle.png","Fremder","Matching","Stranger","Stranger","Stranger",5,489,0.489,1
103,3,50,"ExpList",22,"Frau","rechts","circle.png","Fremder","Nonmatching","Self","Self","Self",1,372,0.372,1
103,3,51,"ExpList",22,"Frau","rechts","circle.png","Fremder","Nonmatching","Self","Self","Self",1,388,0.388,1
103,3,52,"ExpList",22,"Frau","rechts","circle.png","Ich","Matching","Self","Self","Self",5,423,0.423,1
103,3,53,"ExpList",22,"Frau","rechts","triangle.png","Fremder","Matching","Stranger","Stranger","Stranger",5,474,0.474,1
103,3,54,"ExpList",22,"Frau","rechts","circle.png","Ich","Matching","Self","Self","Self",5,371,0.371,1
103,3,55,"ExpList",22,"Frau","rechts","triangle.png","Ich","Nonmatching","Stranger","Stranger","Stranger",1,404,0.404,1
103,3,56,"ExpList",22,"Frau","rechts","circle.png","Ich","Matching","Self","Self","Self",5,447,0.447,1
103,3,57,"ExpList",22,"Frau","rechts","triangle.png","Fremder","Matching","Stranger","Stranger","Stranger",5,435,0.435,1
103,3,58,"ExpList",22,"Frau","rechts","circle.png","Ich","Matching","Self","Self","Self",5,343,0.343,1
103,3,59,"ExpList",22,"Frau","rechts","circle.png","Fremder","Nonmatching","Self","Self","Self",1,495,0.495,1
103,3,60,"ExpList",22,"Frau","rechts","triangle.png","Fremder","Matching","Stranger","Stranger","Stranger",5,415,0.415,1
103,4,1,"ExpList",22,"Frau","rechts","triangle.png","Fremder","Matching","Stranger","Stranger","Stranger",5,371,0.371,1
103,4,2,"ExpList",22,"Frau","rechts","triangle.png","Fremder","Matching","Stranger","Stranger","Stranger",5,391,0.391,1
103,4,3,"ExpList",22,"Frau","rechts","triangle.png","Fremder","Matching","Stranger","Stranger","Stranger",5,349,0.349,1
103,4,4,"ExpList",22,"Frau","rechts","circle.png","Fremder","Nonmatching","Self","Self","Self",1,537,0.537,1
103,4,5,"ExpList",22,"Frau","rechts","circle.png","Ich","Matching","Self","Self","Self",5,395,0.395,1
103,4,6,"ExpList",22,"Frau","rechts","circle.png","Ich","Matching","Self","Self","Self",5,322,0.322,1
103,4,7,"ExpList",22,"Frau","rechts","triangle.png","Fremder","Matching","Stranger","Stranger","Stranger",5,416,0.416,1
103,4,8,"ExpList",22,"Frau","rechts","triangle.png","Ich","Nonmatching","Stranger","Stranger","Stranger",1,442,0.442,1
103,4,9,"ExpList",22,"Frau","rechts","triangle.png","Fremder","Matching","Stranger","Stranger","Stranger",5,413,0.413,1
103,4,10,"ExpList",22,"Frau","rechts","circle.png","Ich","Matching","Self","Self","Self",5,417,0.417,1
103,4,11,"ExpList",22,"Frau","rechts","triangle.png","Fremder","Matching","Stranger","Stranger","Stranger",5,398,0.398,1
103,4,12,"ExpList",22,"Frau","rechts","triangle.png","Ich","Nonmatching","Stranger","Stranger","Stranger",1,398,0.398,1
103,4,13,"ExpList",22,"Frau","rechts","triangle.png","Fremder","Matching","Stranger","Stranger","Stranger",1,271,0.271,0
103,4,14,"ExpList",22,"Frau","rechts","circle.png","Ich","Matching","Self","Self","Self",5,401,0.401,1
103,4,15,"ExpList",22,"Frau","rechts","triangle.png","Ich","Nonmatching","Stranger","Stranger","Stranger",1,416,0.416,1
103,4,16,"ExpList",22,"Frau","rechts","circle.png","Ich","Matching","Self","Self","Self",5,388,0.388,1
103,4,17,"ExpList",22,"Frau","rechts","circle.png","Ich","Matching","Self","Self","Self",5,353,0.353,1
103,4,18,"ExpList",22,"Frau","rechts","triangle.png","Ich","Nonmatching","Stranger","Stranger","Stranger",1,450,0.45,1
103,4,19,"ExpList",22,"Frau","rechts","triangle.png","Fremder","Matching","Stranger","Stranger","Stranger",5,569,0.569,1
103,4,20,"ExpList",22,"Frau","rechts","circle.png","Ich","Matching","Self","Self","Self",5,432,0.432,1
103,4,21,"ExpList",22,"Frau","rechts","circle.png","Fremder","Nonmatching","Self","Self","Self",1,524,0.524,1
103,4,22,"ExpList",22,"Frau","rechts","triangle.png","Fremder","Matching","Stranger","Stranger","Stranger",5,730,0.73,1
103,4,23,"ExpList",22,"Frau","rechts","circle.png","Fremder","Nonmatching","Self","Self","Self",1,458,0.458,1
103,4,24,"ExpList",22,"Frau","rechts","circle.png","Fremder","Nonmatching","Self","Self","Self",1,504,0.504,1
103,4,25,"ExpList",22,"Frau","rechts","triangle.png","Fremder","Matching","Stranger","Stranger","Stranger",5,469,0.469,1
103,4,26,"ExpList",22,"Frau","rechts","circle.png","Fremder","Nonmatching","Self","Self","Self",1,451,0.451,1
103,4,27,"ExpList",22,"Frau","rechts","circle.png","Fremder","Nonmatching","Self","Self","Self",1,459,0.459,1
103,4,28,"ExpList",22,"Frau","rechts","circle.png","Ich","Matching","Self","Self","Self",5,435,0.435,1
103,4,29,"ExpList",22,"Frau","rechts","triangle.png","Ich","Nonmatching","Stranger","Stranger","Stranger",1,427,0.427,1
103,4,30,"ExpList",22,"Frau","rechts","circle.png","Fremder","Nonmatching","Self","Self","Self",1,433,0.433,1
103,4,31,"ExpList",22,"Frau","rechts","triangle.png","Ich","Nonmatching","Stranger","Stranger","Stranger",1,430,0.43,1
103,4,32,"ExpList",22,"Frau","rechts","circle.png","Ich","Matching","Self","Self","Self",5,351,0.351,1
103,4,33,"ExpList",22,"Frau","rechts","triangle.png","Ich","Nonmatching","Stranger","Stranger","Stranger",1,451,0.451,1
103,4,34,"ExpList",22,"Frau","rechts","circle.png","Ich","Matching","Self","Self","Self",5,374,0.374,1
103,4,35,"ExpList",22,"Frau","rechts","triangle.png","Fremder","Matching","Stranger","Stranger","Stranger",5,591,0.591,1
103,4,36,"ExpList",22,"Frau","rechts","triangle.png","Fremder","Matching","Stranger","Stranger","Stranger",5,460,0.46,1
103,4,37,"ExpList",22,"Frau","rechts","circle.png","Fremder","Nonmatching","Self","Self","Self",1,431,0.431,1
103,4,38,"ExpList",22,"Frau","rechts","circle.png","Ich","Matching","Self","Self","Self",5,405,0.405,1
103,4,39,"ExpList",22,"Frau","rechts","circle.png","Ich","Matching","Self","Self","Self",5,345,0.345,1
103,4,40,"ExpList",22,"Frau","rechts","triangle.png","Ich","Nonmatching","Stranger","Stranger","Stranger",1,497,0.497,1
103,4,41,"ExpList",22,"Frau","rechts","circle.png","Ich","Matching","Self","Self","Self",5,443,0.443,1
103,4,42,"ExpList",22,"Frau","rechts","triangle.png","Ich","Nonmatching","Stranger","Stranger","Stranger",1,429,0.429,1
103,4,43,"ExpList",22,"Frau","rechts","triangle.png","Fremder","Matching","Stranger","Stranger","Stranger",5,498,0.498,1
103,4,44,"ExpList",22,"Frau","rechts","circle.png","Fremder","Nonmatching","Self","Self","Self",1,376,0.376,1
103,4,45,"ExpList",22,"Frau","rechts","circle.png","Ich","Matching","Self","Self","Self",5,387,0.387,1
103,4,46,"ExpList",22,"Frau","rechts","circle.png","Fremder","Nonmatching","Self","Self","Self",1,330,0.33,1
103,4,47,"ExpList",22,"Frau","rechts","triangle.png","Ich","Nonmatching","Stranger","Stranger","Stranger",1,421,0.421,1
103,4,48,"ExpList",22,"Frau","rechts","triangle.png","Ich","Nonmatching","Stranger","Stranger","Stranger",1,437,0.437,1
103,4,49,"ExpList",22,"Frau","rechts","triangle.png","Fremder","Matching","Stranger","Stranger","Stranger",1,360,0.36,0
103,4,50,"ExpList",22,"Frau","rechts","circle.png","Fremder","Nonmatching","Self","Self","Self",1,578,0.578,1
103,4,51,"ExpList",22,"Frau","rechts","triangle.png","Ich","Nonmatching","Stranger","Stranger","Stranger",1,510,0.51,1
103,4,52,"ExpList",22,"Frau","rechts","circle.png","Fremder","Nonmatching","Self","Self","Self",1,655,0.655,1
103,4,53,"ExpList",22,"Frau","rechts","circle.png","Ich","Matching","Self","Self","Self",5,379,0.379,1
103,4,54,"ExpList",22,"Frau","rechts","triangle.png","Ich","Nonmatching","Stranger","Stranger","Stranger",1,454,0.454,1
103,4,55,"ExpList",22,"Frau","rechts","circle.png","Fremder","Nonmatching","Self","Self","Self",1,543,0.543,1
103,4,56,"ExpList",22,"Frau","rechts","circle.png","Fremder","Nonmatching","Self","Self","Self",1,427,0.427,1
103,4,57,"ExpList",22,"Frau","rechts","triangle.png","Fremder","Matching","Stranger","Stranger","Stranger",5,457,0.457,1
103,4,58,"ExpList",22,"Frau","rechts","circle.png","Fremder","Nonmatching","Self","Self","Self",1,436,0.436,1
103,4,59,"ExpList",22,"Frau","rechts","triangle.png","Ich","Nonmatching","Stranger","Stranger","Stranger",1,447,0.447,1
103,4,60,"ExpList",22,"Frau","rechts","triangle.png","Ich","Nonmatching","Stranger","Stranger","Stranger",1,381,0.381,1
103,5,1,"ExpList",22,"Frau","rechts","triangle.png","Ich","Nonmatching","Stranger","Stranger","Stranger",1,466,0.466,1
103,5,2,"ExpList",22,"Frau","rechts","circle.png","Fremder","Nonmatching","Self","Self","Self",1,678,0.678,1
103,5,3,"ExpList",22,"Frau","rechts","triangle.png","Fremder","Matching","Stranger","Stranger","Stranger",5,456,0.456,1
103,5,4,"ExpList",22,"Frau","rechts","triangle.png","Ich","Nonmatching","Stranger","Stranger","Stranger",1,360,0.36,1
103,5,5,"ExpList",22,"Frau","rechts","triangle.png","Fremder","Matching","Stranger","Stranger","Stranger",5,404,0.404,1
103,5,6,"ExpList",22,"Frau","rechts","circle.png","Ich","Matching","Self","Self","Self",5,386,0.386,1
103,5,7,"ExpList",22,"Frau","rechts","triangle.png","Fremder","Matching","Stranger","Stranger","Stranger",5,353,0.353,1
103,5,8,"ExpList",22,"Frau","rechts","triangle.png","Ich","Nonmatching","Stranger","Stranger","Stranger",1,370,0.37,1
103,5,9,"ExpList",22,"Frau","rechts","triangle.png","Fremder","Matching","Stranger","Stranger","Stranger",5,432,0.432,1
103,5,10,"ExpList",22,"Frau","rechts","circle.png","Fremder","Nonmatching","Self","Self","Self",1,417,0.417,1
103,5,11,"ExpList",22,"Frau","rechts","triangle.png","Fremder","Matching","Stranger","Stranger","Stranger",5,376,0.376,1
103,5,12,"ExpList",22,"Frau","rechts","circle.png","Fremder","Nonmatching","Self","Self","Self",1,394,0.394,1
103,5,13,"ExpList",22,"Frau","rechts","circle.png","Ich","Matching","Self","Self","Self",5,390,0.39,1
103,5,14,"ExpList",22,"Frau","rechts","triangle.png","Ich","Nonmatching","Stranger","Stranger","Stranger",1,432,0.432,1
103,5,15,"ExpList",22,"Frau","rechts","triangle.png","Fremder","Matching","Stranger","Stranger","Stranger",5,367,0.367,1
103,5,16,"ExpList",22,"Frau","rechts","triangle.png","Ich","Nonmatching","Stranger","Stranger","Stranger",1,464,0.464,1
103,5,17,"ExpList",22,"Frau","rechts","circle.png","Fremder","Nonmatching","Self","Self","Self",1,461,0.461,1
103,5,18,"ExpList",22,"Frau","rechts","triangle.png","Ich","Nonmatching","Stranger","Stranger","Stranger",1,461,0.461,1
103,5,19,"ExpList",22,"Frau","rechts","circle.png","Ich","Matching","Self","Self","Self",5,431,0.431,1
103,5,20,"ExpList",22,"Frau","rechts","triangle.png","Ich","Nonmatching","Stranger","Stranger","Stranger",1,364,0.364,1
103,5,21,"ExpList",22,"Frau","rechts","circle.png","Fremder","Nonmatching","Self","Self","Self",1,514,0.514,1
103,5,22,"ExpList",22,"Frau","rechts","circle.png","Fremder","Nonmatching","Self","Self","Self",1,396,0.396,1
103,5,23,"ExpList",22,"Frau","rechts","triangle.png","Fremder","Matching","Stranger","Stranger","Stranger",5,450,0.45,1
103,5,24,"ExpList",22,"Frau","rechts","circle.png","Fremder","Nonmatching","Self","Self","Self",1,371,0.371,1
103,5,25,"ExpList",22,"Frau","rechts","circle.png","Ich","Matching","Self","Self","Self",5,398,0.398,1
103,5,26,"ExpList",22,"Frau","rechts","triangle.png","Fremder","Matching","Stranger","Stranger","Stranger",5,365,0.365,1
103,5,27,"ExpList",22,"Frau","rechts","triangle.png","Fremder","Matching","Stranger","Stranger","Stranger",1,323,0.323,0
103,5,28,"ExpList",22,"Frau","rechts","circle.png","Fremder","Nonmatching","Self","Self","Self",1,447,0.447,1
103,5,29,"ExpList",22,"Frau","rechts","circle.png","Ich","Matching","Self","Self","Self",5,399,0.399,1
103,5,30,"ExpList",22,"Frau","rechts","circle.png","Ich","Matching","Self","Self","Self",5,346,0.346,1
103,5,31,"ExpList",22,"Frau","rechts","triangle.png","Ich","Nonmatching","Stranger","Stranger","Stranger",1,439,0.439,1
103,5,32,"ExpList",22,"Frau","rechts","triangle.png","Ich","Nonmatching","Stranger","Stranger","Stranger",1,361,0.361,1
103,5,33,"ExpList",22,"Frau","rechts","triangle.png","Fremder","Matching","Stranger","Stranger","Stranger",5,540,0.54,1
103,5,34,"ExpList",22,"Frau","rechts","circle.png","Ich","Matching","Self","Self","Self",5,337,0.337,1
103,5,35,"ExpList",22,"Frau","rechts","triangle.png","Fremder","Matching","Stranger","Stranger","Stranger",5,391,0.391,1
103,5,36,"ExpList",22,"Frau","rechts","circle.png","Fremder","Nonmatching","Self","Self","Self",1,470,0.47,1
103,5,37,"ExpList",22,"Frau","rechts","circle.png","Ich","Matching","Self","Self","Self",5,378,0.378,1
103,5,38,"ExpList",22,"Frau","rechts","circle.png","Ich","Matching","Self","Self","Self",5,505,0.505,1
103,5,39,"ExpList",22,"Frau","rechts","triangle.png","Ich","Nonmatching","Stranger","Stranger","Stranger",1,474,0.474,1
103,5,40,"ExpList",22,"Frau","rechts","circle.png","Fremder","Nonmatching","Self","Self","Self",1,505,0.505,1
103,5,41,"ExpList",22,"Frau","rechts","circle.png","Ich","Matching","Self","Self","Self",5,494,0.494,1
103,5,42,"ExpList",22,"Frau","rechts","triangle.png","Ich","Nonmatching","Stranger","Stranger","Stranger",1,439,0.439,1
103,5,43,"ExpList",22,"Frau","rechts","circle.png","Ich","Matching","Self","Self","Self",5,371,0.371,1
103,5,44,"ExpList",22,"Frau","rechts","circle.png","Fremder","Nonmatching","Self","Self","Self",1,546,0.546,1
103,5,45,"ExpList",22,"Frau","rechts","triangle.png","Fremder","Matching","Stranger","Stranger","Stranger",5,449,0.449,1
103,5,46,"ExpList",22,"Frau","rechts","circle.png","Ich","Matching","Self","Self","Self",5,415,0.415,1
103,5,47,"ExpList",22,"Frau","rechts","triangle.png","Ich","Nonmatching","Stranger","Stranger","Stranger",1,477,0.477,1
103,5,48,"ExpList",22,"Frau","rechts","triangle.png","Fremder","Matching","Stranger","Stranger","Stranger",5,438,0.438,1
103,5,49,"ExpList",22,"Frau","rechts","triangle.png","Ich","Nonmatching","Stranger","Stranger","Stranger",1,347,0.347,1
103,5,50,"ExpList",22,"Frau","rechts","circle.png","Fremder","Nonmatching","Self","Self","Self",1,454,0.454,1
103,5,51,"ExpList",22,"Frau","rechts","triangle.png","Fremder","Matching","Stranger","Stranger","Stranger",5,551,0.551,1
103,5,52,"ExpList",22,"Frau","rechts","circle.png","Ich","Matching","Self","Self","Self",5,310,0.31,1
103,5,53,"ExpList",22,"Frau","rechts","triangle.png","Ich","Nonmatching","Stranger","Stranger","Stranger",1,415,0.415,1
103,5,54,"ExpList",22,"Frau","rechts","circle.png","Ich","Matching","Self","Self","Self",5,433,0.433,1
103,5,55,"ExpList",22,"Frau","rechts","circle.png","Fremder","Nonmatching","Self","Self","Self",1,393,0.393,1
103,5,56,"ExpList",22,"Frau","rechts","triangle.png","Ich","Nonmatching","Stranger","Stranger","Stranger",1,464,0.464,1
103,5,57,"ExpList",22,"Frau","rechts","circle.png","Fremder","Nonmatching","Self","Self","Self",1,474,0.474,1
103,5,58,"ExpList",22,"Frau","rechts","circle.png","Ich","Matching","Self","Self","Self",5,435,0.435,1
103,5,59,"ExpList",22,"Frau","rechts","triangle.png","Fremder","Matching","Stranger","Stranger","Stranger",5,410,0.41,1
103,5,60,"ExpList",22,"Frau","rechts","circle.png","Fremder","Nonmatching","Self","Self","Self",1,563,0.563,1
104,1,1,"TrainList1",28,"Frau","rechts","triangle.png","Ich","Nonmatching","Stranger","Stranger","Stranger",NA,0,0,0
104,1,2,"TrainList1",28,"Frau","rechts","triangle.png","Fremder","Matching","Stranger","Stranger","Stranger",1,865,0.865,0
104,1,3,"TrainList1",28,"Frau","rechts","circle.png","Ich","Matching","Self","Self","Self",5,882,0.882,1
104,1,4,"TrainList1",28,"Frau","rechts","circle.png","Fremder","Nonmatching","Self","Self","Self",5,732,0.732,0
104,1,5,"TrainList1",28,"Frau","rechts","triangle.png","Fremder","Matching","Stranger","Stranger","Stranger",1,653,0.653,0
104,1,6,"TrainList1",28,"Frau","rechts","circle.png","Ich","Matching","Self","Self","Self",5,474,0.474,1
104,1,7,"TrainList1",28,"Frau","rechts","circle.png","Fremder","Nonmatching","Self","Self","Self",1,569,0.569,1
104,1,8,"TrainList1",28,"Frau","rechts","circle.png","Fremder","Nonmatching","Self","Self","Self",1,816,0.816,1
104,1,9,"TrainList1",28,"Frau","rechts","triangle.png","Fremder","Matching","Stranger","Stranger","Stranger",5,802,0.802,1
104,1,10,"TrainList1",28,"Frau","rechts","circle.png","Ich","Matching","Self","Self","Self",5,1085,1.085,1
104,1,11,"TrainList1",28,"Frau","rechts","triangle.png","Ich","Nonmatching","Stranger","Stranger","Stranger",1,685,0.685,1
104,1,12,"TrainList1",28,"Frau","rechts","circle.png","Ich","Matching","Self","Self","Self",5,668,0.668,1
104,1,13,"TrainList1",28,"Frau","rechts","circle.png","Ich","Matching","Self","Self","Self",5,1042,1.042,1
104,1,14,"TrainList1",28,"Frau","rechts","circle.png","Fremder","Nonmatching","Self","Self","Self",1,744,0.744,1
104,1,15,"TrainList1",28,"Frau","rechts","triangle.png","Fremder","Matching","Stranger","Stranger","Stranger",5,841,0.841,1
104,1,16,"TrainList1",28,"Frau","rechts","triangle.png","Ich","Nonmatching","Stranger","Stranger","Stranger",1,708,0.708,1
104,1,17,"TrainList1",28,"Frau","rechts","circle.png","Fremder","Nonmatching","Self","Self","Self",1,529,0.529,1
104,1,18,"TrainList1",28,"Frau","rechts","triangle.png","Fremder","Matching","Stranger","Stranger","Stranger",5,924,0.924,1
104,1,19,"TrainList1",28,"Frau","rechts","circle.png","Ich","Matching","Self","Self","Self",5,1002,1.002,1
104,1,20,"TrainList1",28,"Frau","rechts","triangle.png","Ich","Nonmatching","Stranger","Stranger","Stranger",1,727,0.727,1
104,1,21,"TrainList1",28,"Frau","rechts","triangle.png","Fremder","Matching","Stranger","Stranger","Stranger",5,1256,1.256,1
104,1,22,"TrainList1",28,"Frau","rechts","triangle.png","Ich","Nonmatching","Stranger","Stranger","Stranger",1,755,0.755,1
104,1,23,"TrainList1",28,"Frau","rechts","triangle.png","Ich","Nonmatching","Stranger","Stranger","Stranger",1,678,0.678,1
104,1,24,"TrainList1",28,"Frau","rechts","circle.png","Fremder","Nonmatching","Self","Self","Self",5,988,0.988,0
104,2,1,"ExpList",28,"Frau","rechts","circle.png","Fremder","Nonmatching","Self","Self","Self",1,826,0.826,1
104,2,2,"ExpList",28,"Frau","rechts","triangle.png","Fremder","Matching","Stranger","Stranger","Stranger",5,827,0.827,1
104,2,3,"ExpList",28,"Frau","rechts","circle.png","Fremder","Nonmatching","Self","Self","Self",1,659,0.659,1
104,2,4,"ExpList",28,"Frau","rechts","triangle.png","Ich","Nonmatching","Stranger","Stranger","Stranger",1,867,0.867,1
104,2,5,"ExpList",28,"Frau","rechts","circle.png","Ich","Matching","Self","Self","Self",5,676,0.676,1
104,2,6,"ExpList",28,"Frau","rechts","triangle.png","Ich","Nonmatching","Stranger","Stranger","Stranger",1,721,0.721,1
104,2,7,"ExpList",28,"Frau","rechts","circle.png","Ich","Matching","Self","Self","Self",5,921,0.921,1
104,2,8,"ExpList",28,"Frau","rechts","circle.png","Ich","Matching","Self","Self","Self",5,577,0.577,1
104,2,9,"ExpList",28,"Frau","rechts","triangle.png","Ich","Nonmatching","Stranger","Stranger","Stranger",1,526,0.526,1
104,2,10,"ExpList",28,"Frau","rechts","circle.png","Fremder","Nonmatching","Self","Self","Self",5,709,0.709,0
104,2,11,"ExpList",28,"Frau","rechts","circle.png","Ich","Matching","Self","Self","Self",5,738,0.738,1
104,2,12,"ExpList",28,"Frau","rechts","triangle.png","Ich","Nonmatching","Stranger","Stranger","Stranger",1,770,0.77,1
104,2,13,"ExpList",28,"Frau","rechts","triangle.png","Ich","Nonmatching","Stranger","Stranger","Stranger",1,708,0.708,1
104,2,14,"ExpList",28,"Frau","rechts","triangle.png","Fremder","Matching","Stranger","Stranger","Stranger",5,841,0.841,1
104,2,15,"ExpList",28,"Frau","rechts","circle.png","Fremder","Nonmatching","Self","Self","Self",1,847,0.847,1
104,2,16,"ExpList",28,"Frau","rechts","triangle.png","Fremder","Matching","Stranger","Stranger","Stranger",5,1484,1.484,1
104,2,17,"ExpList",28,"Frau","rechts","triangle.png","Ich","Nonmatching","Stranger","Stranger","Stranger",NA,0,0,0
104,2,18,"ExpList",28,"Frau","rechts","circle.png","Ich","Matching","Self","Self","Self",5,888,0.888,1
104,2,19,"ExpList",28,"Frau","rechts","triangle.png","Fremder","Matching","Stranger","Stranger","Stranger",5,854,0.854,1
104,2,20,"ExpList",28,"Frau","rechts","triangle.png","Fremder","Matching","Stranger","Stranger","Stranger",5,858,0.858,1
104,2,21,"ExpList",28,"Frau","rechts","triangle.png","Ich","Nonmatching","Stranger","Stranger","Stranger",1,715,0.715,1
104,2,22,"ExpList",28,"Frau","rechts","circle.png","Ich","Matching","Self","Self","Self",5,585,0.585,1
104,2,23,"ExpList",28,"Frau","rechts","triangle.png","Ich","Nonmatching","Stranger","Stranger","Stranger",1,1039,1.039,1
104,2,24,"ExpList",28,"Frau","rechts","triangle.png","Fremder","Matching","Stranger","Stranger","Stranger",5,819,0.819,1
104,2,25,"ExpList",28,"Frau","rechts","circle.png","Ich","Matching","Self","Self","Self",5,713,0.713,1
104,2,26,"ExpList",28,"Frau","rechts","triangle.png","Fremder","Matching","Stranger","Stranger","Stranger",5,1188,1.188,1
104,2,27,"ExpList",28,"Frau","rechts","triangle.png","Ich","Nonmatching","Stranger","Stranger","Stranger",1,580,0.58,1
104,2,28,"ExpList",28,"Frau","rechts","triangle.png","Fremder","Matching","Stranger","Stranger","Stranger",5,659,0.659,1
104,2,29,"ExpList",28,"Frau","rechts","circle.png","Ich","Matching","Self","Self","Self",5,808,0.808,1
104,2,30,"ExpList",28,"Frau","rechts","circle.png","Ich","Matching","Self","Self","Self",5,826,0.826,1
104,2,31,"ExpList",28,"Frau","rechts","triangle.png","Ich","Nonmatching","Stranger","Stranger","Stranger",1,564,0.564,1
104,2,32,"ExpList",28,"Frau","rechts","circle.png","Ich","Matching","Self","Self","Self",5,467,0.467,1
104,2,33,"ExpList",28,"Frau","rechts","triangle.png","Fremder","Matching","Stranger","Stranger","Stranger",5,666,0.666,1
104,2,34,"ExpList",28,"Frau","rechts","circle.png","Ich","Matching","Self","Self","Self",5,734,0.734,1
104,2,35,"ExpList",28,"Frau","rechts","triangle.png","Ich","Nonmatching","Stranger","Stranger","Stranger",1,686,0.686,1
104,2,36,"ExpList",28,"Frau","rechts","triangle.png","Fremder","Matching","Stranger","Stranger","Stranger",5,833,0.833,1
104,2,37,"ExpList",28,"Frau","rechts","circle.png","Fremder","Nonmatching","Self","Self","Self",1,603,0.603,1
104,2,38,"ExpList",28,"Frau","rechts","triangle.png","Fremder","Matching","Stranger","Stranger","Stranger",5,964,0.964,1
104,2,39,"ExpList",28,"Frau","rechts","circle.png","Ich","Matching","Self","Self","Self",5,806,0.806,1
104,2,40,"ExpList",28,"Frau","rechts","circle.png","Fremder","Nonmatching","Self","Self","Self",1,651,0.651,1
104,2,41,"ExpList",28,"Frau","rechts","triangle.png","Fremder","Matching","Stranger","Stranger","Stranger",5,908,0.908,1
104,2,42,"ExpList",28,"Frau","rechts","circle.png","Ich","Matching","Self","Self","Self",5,739,0.739,1
104,2,43,"ExpList",28,"Frau","rechts","triangle.png","Fremder","Matching","Stranger","Stranger","Stranger",5,1039,1.039,1
104,2,44,"ExpList",28,"Frau","rechts","triangle.png","Ich","Nonmatching","Stranger","Stranger","Stranger",1,840,0.84,1
104,2,45,"ExpList",28,"Frau","rechts","circle.png","Fremder","Nonmatching","Self","Self","Self",1,937,0.937,1
104,2,46,"ExpList",28,"Frau","rechts","circle.png","Fremder","Nonmatching","Self","Self","Self",1,777,0.777,1
104,2,47,"ExpList",28,"Frau","rechts","circle.png","Ich","Matching","Self","Self","Self",5,604,0.604,1
104,2,48,"ExpList",28,"Frau","rechts","triangle.png","Ich","Nonmatching","Stranger","Stranger","Stranger",1,554,0.554,1
104,2,49,"ExpList",28,"Frau","rechts","circle.png","Fremder","Nonmatching","Self","Self","Self",NA,0,0,0
104,2,50,"ExpList",28,"Frau","rechts","circle.png","Fremder","Nonmatching","Self","Self","Self",1,1139,1.139,1
104,2,51,"ExpList",28,"Frau","rechts","circle.png","Ich","Matching","Self","Self","Self",5,640,0.64,1
104,2,52,"ExpList",28,"Frau","rechts","triangle.png","Ich","Nonmatching","Stranger","Stranger","Stranger",1,737,0.737,1
104,2,53,"ExpList",28,"Frau","rechts","circle.png","Fremder","Nonmatching","Self","Self","Self",1,797,0.797,1
104,2,54,"ExpList",28,"Frau","rechts","triangle.png","Ich","Nonmatching","Stranger","Stranger","Stranger",1,829,0.829,1
104,2,55,"ExpList",28,"Frau","rechts","triangle.png","Fremder","Matching","Stranger","Stranger","Stranger",5,1009,1.009,1
104,2,56,"ExpList",28,"Frau","rechts","circle.png","Fremder","Nonmatching","Self","Self","Self",1,560,0.56,1
104,2,57,"ExpList",28,"Frau","rechts","circle.png","Fremder","Nonmatching","Self","Self","Self",1,1083,1.083,1
104,2,58,"ExpList",28,"Frau","rechts","circle.png","Fremder","Nonmatching","Self","Self","Self",1,716,0.716,1
104,2,59,"ExpList",28,"Frau","rechts","triangle.png","Fremder","Matching","Stranger","Stranger","Stranger",5,810,0.81,1
104,2,60,"ExpList",28,"Frau","rechts","circle.png","Fremder","Nonmatching","Self","Self","Self",1,679,0.679,1
104,3,1,"ExpList",28,"Frau","rechts","triangle.png","Ich","Nonmatching","Stranger","Stranger","Stranger",1,587,0.587,1
104,3,2,"ExpList",28,"Frau","rechts","triangle.png","Ich","Nonmatching","Stranger","Stranger","Stranger",1,627,0.627,1
104,3,3,"ExpList",28,"Frau","rechts","circle.png","Ich","Matching","Self","Self","Self",5,490,0.49,1
104,3,4,"ExpList",28,"Frau","rechts","triangle.png","Fremder","Matching","Stranger","Stranger","Stranger",5,710,0.71,1
104,3,5,"ExpList",28,"Frau","rechts","triangle.png","Ich","Nonmatching","Stranger","Stranger","Stranger",1,794,0.794,1
