"","Subject","Block","Trial","Trial_type","Age","Gender","Handedness","Shape","Label","Matching","Origin_Identity","English_Identity","Standarlized_Identity","Response","RT_ms","RT_sec","ACC"
"1",101,1,1,"TrainList1",23,"Mann","links","circle.png","Ich","Matching","Self","Self","Self",NA,0,0,0
"2",101,1,2,"TrainList1",23,"Mann","links","circle.png","Fremder","Nonmatching","Self","Self","Self",NA,0,0,0
"3",101,1,3,"TrainList1",23,"Mann","links","circle.png","Ich","Matching","Self","Self","Self",1,351,0.351,1
"4",101,1,4,"TrainList1",23,"Mann","links","circle.png","Fremder","Nonmatching","Self","Self","Self",5,677,0.677,1
"5",101,1,5,"TrainList1",23,"Mann","links","triangle.png","Ich","Nonmatching","Stranger","Stranger","Stranger",5,415,0.415,1
"6",101,1,6,"TrainList1",23,"Mann","links","triangle.png","Fremder","Matching","Stranger","Stranger","Stranger",5,412,0.412,0
"7",101,1,7,"TrainList1",23,"Mann","links","triangle.png","Fremder","Matching","Stranger","Stranger","Stranger",5,819,0.819,0
"8",101,1,8,"TrainList1",23,"Mann","links","triangle.png","Fremder","Matching","Stranger","Stranger","Stranger",1,663,0.663,1
"9",101,1,9,"TrainList1",23,"Mann","links","triangle.png","Ich","Nonmatching","Stranger","Stranger","Stranger",5,911,0.911,1
"10",101,1,10,"TrainList1",23,"Mann","links","triangle.png","Ich","Nonmatching","Stranger","Stranger","Stranger",5,614,0.614,1
"11",101,1,11,"TrainList1",23,"Mann","links","triangle.png","Fremder","Matching","Stranger","Stranger","Stranger",1,675,0.675,1
"12",101,1,12,"TrainList1",23,"Mann","links","circle.png","Fremder","Nonmatching","Self","Self","Self",5,709,0.709,1
"13",101,1,13,"TrainList1",23,"Mann","links","circle.png","Ich","Matching","Self","Self","Self",1,448,0.448,1
"14",101,1,14,"TrainList1",23,"Mann","links","triangle.png","Fremder","Matching","Stranger","Stranger","Stranger",1,580,0.58,1
"15",101,1,15,"TrainList1",23,"Mann","links","triangle.png","Fremder","Matching","Stranger","Stranger","Stranger",1,793,0.793,1
"16",101,1,16,"TrainList1",23,"Mann","links","circle.png","Ich","Matching","Self","Self","Self",1,585,0.585,1
"17",101,1,17,"TrainList1",23,"Mann","links","triangle.png","Ich","Nonmatching","Stranger","Stranger","Stranger",5,840,0.84,1
"18",101,1,18,"TrainList1",23,"Mann","links","circle.png","Fremder","Nonmatching","Self","Self","Self",5,798,0.798,1
"19",101,1,19,"TrainList1",23,"Mann","links","circle.png","Fremder","Nonmatching","Self","Self","Self",5,611,0.611,1
"20",101,1,20,"TrainList1",23,"Mann","links","circle.png","Ich","Matching","Self","Self","Self",1,446,0.446,1
"21",101,1,21,"TrainList1",23,"Mann","links","circle.png","Fremder","Nonmatching","Self","Self","Self",5,691,0.691,1
"22",101,1,22,"TrainList1",23,"Mann","links","triangle.png","Ich","Nonmatching","Stranger","Stranger","Stranger",1,1077,1.077,0
"23",101,1,23,"TrainList1",23,"Mann","links","circle.png","Ich","Matching","Self","Self","Self",1,518,0.518,1
"24",101,1,24,"TrainList1",23,"Mann","links","triangle.png","Ich","Nonmatching","Stranger","Stranger","Stranger",5,538,0.538,1
"25",101,2,1,"ExpList",23,"Mann","links","circle.png","Ich","Matching","Self","Self","Self",1,499,0.499,1
"26",101,2,2,"ExpList",23,"Mann","links","triangle.png","Fremder","Matching","Stranger","Stranger","Stranger",5,644,0.644,0
"27",101,2,3,"ExpList",23,"Mann","links","circle.png","Ich","Matching","Self","Self","Self",1,425,0.425,1
"28",101,2,4,"ExpList",23,"Mann","links","circle.png","Fremder","Nonmatching","Self","Self","Self",5,603,0.603,1
"29",101,2,5,"ExpList",23,"Mann","links","triangle.png","Fremder","Matching","Stranger","Stranger","Stranger",1,636,0.636,1
"30",101,2,6,"ExpList",23,"Mann","links","triangle.png","Fremder","Matching","Stranger","Stranger","Stranger",1,662,0.662,1
"31",101,2,7,"ExpList",23,"Mann","links","circle.png","Ich","Matching","Self","Self","Self",1,450,0.45,1
"32",101,2,8,"ExpList",23,"Mann","links","triangle.png","Ich","Nonmatching","Stranger","Stranger","Stranger",5,527,0.527,1
"33",101,2,9,"ExpList",23,"Mann","links","circle.png","Fremder","Nonmatching","Self","Self","Self",1,499,0.499,0
"34",101,2,10,"ExpList",23,"Mann","links","circle.png","Ich","Matching","Self","Self","Self",1,433,0.433,1
"35",101,2,11,"ExpList",23,"Mann","links","triangle.png","Ich","Nonmatching","Stranger","Stranger","Stranger",5,580,0.58,1
"36",101,2,12,"ExpList",23,"Mann","links","triangle.png","Ich","Nonmatching","Stranger","Stranger","Stranger",5,617,0.617,1
"37",101,2,13,"ExpList",23,"Mann","links","triangle.png","Ich","Nonmatching","Stranger","Stranger","Stranger",5,505,0.505,1
"38",101,2,14,"ExpList",23,"Mann","links","circle.png","Ich","Matching","Self","Self","Self",1,641,0.641,1
"39",101,2,15,"ExpList",23,"Mann","links","triangle.png","Fremder","Matching","Stranger","Stranger","Stranger",1,431,0.431,1
"40",101,2,16,"ExpList",23,"Mann","links","triangle.png","Fremder","Matching","Stranger","Stranger","Stranger",1,706,0.706,1
"41",101,2,17,"ExpList",23,"Mann","links","circle.png","Fremder","Nonmatching","Self","Self","Self",5,552,0.552,1
"42",101,2,18,"ExpList",23,"Mann","links","circle.png","Fremder","Nonmatching","Self","Self","Self",5,1161,1.161,1
"43",101,2,19,"ExpList",23,"Mann","links","circle.png","Ich","Matching","Self","Self","Self",1,540,0.54,1
"44",101,2,20,"ExpList",23,"Mann","links","triangle.png","Fremder","Matching","Stranger","Stranger","Stranger",1,695,0.695,1
"45",101,2,21,"ExpList",23,"Mann","links","triangle.png","Ich","Nonmatching","Stranger","Stranger","Stranger",5,478,0.478,1
"46",101,2,22,"ExpList",23,"Mann","links","circle.png","Ich","Matching","Self","Self","Self",1,429,0.429,1
"47",101,2,23,"ExpList",23,"Mann","links","triangle.png","Ich","Nonmatching","Stranger","Stranger","Stranger",5,711,0.711,1
"48",101,2,24,"ExpList",23,"Mann","links","triangle.png","Fremder","Matching","Stranger","Stranger","Stranger",1,654,0.654,1
"49",101,2,25,"ExpList",23,"Mann","links","circle.png","Ich","Matching","Self","Self","Self",1,362,0.362,1
"50",101,2,26,"ExpList",23,"Mann","links","circle.png","Fremder","Nonmatching","Self","Self","Self",1,696,0.696,0
"51",101,2,27,"ExpList",23,"Mann","links","triangle.png","Ich","Nonmatching","Stranger","Stranger","Stranger",5,918,0.918,1
"52",101,2,28,"ExpList",23,"Mann","links","circle.png","Fremder","Nonmatching","Self","Self","Self",5,623,0.623,1
"53",101,2,29,"ExpList",23,"Mann","links","circle.png","Ich","Matching","Self","Self","Self",1,435,0.435,1
"54",101,2,30,"ExpList",23,"Mann","links","circle.png","Ich","Matching","Self","Self","Self",1,448,0.448,1
"55",101,2,31,"ExpList",23,"Mann","links","triangle.png","Fremder","Matching","Stranger","Stranger","Stranger",1,547,0.547,1
"56",101,2,32,"ExpList",23,"Mann","links","circle.png","Fremder","Nonmatching","Self","Self","Self",5,531,0.531,1
"57",101,2,33,"ExpList",23,"Mann","links","circle.png","Fremder","Nonmatching","Self","Self","Self",5,572,0.572,1
"58",101,2,34,"ExpList",23,"Mann","links","circle.png","Ich","Matching","Self","Self","Self",1,482,0.482,1
"59",101,2,35,"ExpList",23,"Mann","links","triangle.png","Ich","Nonmatching","Stranger","Stranger","Stranger",5,435,0.435,1
"60",101,2,36,"ExpList",23,"Mann","links","circle.png","Fremder","Nonmatching","Self","Self","Self",5,528,0.528,1
"61",101,2,37,"ExpList",23,"Mann","links","circle.png","Fremder","Nonmatching","Self","Self","Self",5,554,0.554,1
"62",101,2,38,"ExpList",23,"Mann","links","circle.png","Ich","Matching","Self","Self","Self",1,624,0.624,1
"63",101,2,39,"ExpList",23,"Mann","links","triangle.png","Ich","Nonmatching","Stranger","Stranger","Stranger",5,601,0.601,1
"64",101,2,40,"ExpList",23,"Mann","links","circle.png","Ich","Matching","Self","Self","Self",1,587,0.587,1
"65",101,2,41,"ExpList",23,"Mann","links","triangle.png","Fremder","Matching","Stranger","Stranger","Stranger",1,678,0.678,1
"66",101,2,42,"ExpList",23,"Mann","links","triangle.png","Ich","Nonmatching","Stranger","Stranger","Stranger",5,521,0.521,1
"67",101,2,43,"ExpList",23,"Mann","links","circle.png","Ich","Matching","Self","Self","Self",1,492,0.492,1
"68",101,2,44,"ExpList",23,"Mann","links","triangle.png","Fremder","Matching","Stranger","Stranger","Stranger",1,835,0.835,1
"69",101,2,45,"ExpList",23,"Mann","links","triangle.png","Ich","Nonmatching","Stranger","Stranger","Stranger",5,629,0.629,1
"70",101,2,46,"ExpList",23,"Mann","links","circle.png","Fremder","Nonmatching","Self","Self","Self",5,790,0.79,1
"71",101,2,47,"ExpList",23,"Mann","links","triangle.png","Fremder","Matching","Stranger","Stranger","Stranger",1,621,0.621,1
"72",101,2,48,"ExpList",23,"Mann","links","triangle.png","Ich","Nonmatching","Stranger","Stranger","Stranger",5,626,0.626,1
"73",101,2,49,"ExpList",23,"Mann","links","triangle.png","Fremder","Matching","Stranger","Stranger","Stranger",1,475,0.475,1
"74",101,2,50,"ExpList",23,"Mann","links","circle.png","Fremder","Nonmatching","Self","Self","Self",5,372,0.372,1
"75",101,2,51,"ExpList",23,"Mann","links","triangle.png","Ich","Nonmatching","Stranger","Stranger","Stranger",5,422,0.422,1
"76",101,2,52,"ExpList",23,"Mann","links","circle.png","Ich","Matching","Self","Self","Self",1,452,0.452,1
"77",101,2,53,"ExpList",23,"Mann","links","circle.png","Fremder","Nonmatching","Self","Self","Self",5,469,0.469,1
"78",101,2,54,"ExpList",23,"Mann","links","triangle.png","Ich","Nonmatching","Stranger","Stranger","Stranger",5,727,0.727,1
"79",101,2,55,"ExpList",23,"Mann","links","circle.png","Fremder","Nonmatching","Self","Self","Self",5,624,0.624,1
"80",101,2,56,"ExpList",23,"Mann","links","triangle.png","Fremder","Matching","Stranger","Stranger","Stranger",1,551,0.551,1
"81",101,2,57,"ExpList",23,"Mann","links","triangle.png","Ich","Nonmatching","Stranger","Stranger","Stranger",5,431,0.431,1
"82",101,2,58,"ExpList",23,"Mann","links","circle.png","Fremder","Nonmatching","Self","Self","Self",5,537,0.537,1
"83",101,2,59,"ExpList",23,"Mann","links","triangle.png","Fremder","Matching","Stranger","Stranger","Stranger",1,513,0.513,1
"84",101,2,60,"ExpList",23,"Mann","links","triangle.png","Fremder","Matching","Stranger","Stranger","Stranger",1,950,0.95,1
"85",101,3,1,"ExpList",23,"Mann","links","circle.png","Ich","Matching","Self","Self","Self",1,406,0.406,1
"86",101,3,2,"ExpList",23,"Mann","links","circle.png","Ich","Matching","Self","Self","Self",1,373,0.373,1
"87",101,3,3,"ExpList",23,"Mann","links","triangle.png","Ich","Nonmatching","Stranger","Stranger","Stranger",1,388,0.388,0
"88",101,3,4,"ExpList",23,"Mann","links","circle.png","Fremder","Nonmatching","Self","Self","Self",5,658,0.658,1
"89",101,3,5,"ExpList",23,"Mann","links","circle.png","Fremder","Nonmatching","Self","Self","Self",5,707,0.707,1
"90",101,3,6,"ExpList",23,"Mann","links","circle.png","Ich","Matching","Self","Self","Self",1,391,0.391,1
"91",101,3,7,"ExpList",23,"Mann","links","triangle.png","Ich","Nonmatching","Stranger","Stranger","Stranger",5,560,0.56,1
"92",101,3,8,"ExpList",23,"Mann","links","circle.png","Fremder","Nonmatching","Self","Self","Self",5,600,0.6,1
"93",101,3,9,"ExpList",23,"Mann","links","circle.png","Fremder","Nonmatching","Self","Self","Self",5,466,0.466,1
"94",101,3,10,"ExpList",23,"Mann","links","triangle.png","Fremder","Matching","Stranger","Stranger","Stranger",1,575,0.575,1
"95",101,3,11,"ExpList",23,"Mann","links","circle.png","Fremder","Nonmatching","Self","Self","Self",5,520,0.52,1
"96",101,3,12,"ExpList",23,"Mann","links","circle.png","Fremder","Nonmatching","Self","Self","Self",5,424,0.424,1
"97",101,3,13,"ExpList",23,"Mann","links","circle.png","Fremder","Nonmatching","Self","Self","Self",5,474,0.474,1
"98",101,3,14,"ExpList",23,"Mann","links","triangle.png","Fremder","Matching","Stranger","Stranger","Stranger",1,582,0.582,1
"99",101,3,15,"ExpList",23,"Mann","links","triangle.png","Ich","Nonmatching","Stranger","Stranger","Stranger",5,587,0.587,1
"100",101,3,16,"ExpList",23,"Mann","links","triangle.png","Ich","Nonmatching","Stranger","Stranger","Stranger",5,552,0.552,1
"101",101,3,17,"ExpList",23,"Mann","links","circle.png","Fremder","Nonmatching","Self","Self","Self",5,650,0.65,1
"102",101,3,18,"ExpList",23,"Mann","links","circle.png","Ich","Matching","Self","Self","Self",1,376,0.376,1
"103",101,3,19,"ExpList",23,"Mann","links","triangle.png","Ich","Nonmatching","Stranger","Stranger","Stranger",5,640,0.64,1
"104",101,3,20,"ExpList",23,"Mann","links","triangle.png","Ich","Nonmatching","Stranger","Stranger","Stranger",5,408,0.408,1
"105",101,3,21,"ExpList",23,"Mann","links","triangle.png","Ich","Nonmatching","Stranger","Stranger","Stranger",5,488,0.488,1
"106",101,3,22,"ExpList",23,"Mann","links","circle.png","Ich","Matching","Self","Self","Self",5,311,0.311,0
"107",101,3,23,"ExpList",23,"Mann","links","triangle.png","Fremder","Matching","Stranger","Stranger","Stranger",1,437,0.437,1
"108",101,3,24,"ExpList",23,"Mann","links","triangle.png","Ich","Nonmatching","Stranger","Stranger","Stranger",5,439,0.439,1
"109",101,3,25,"ExpList",23,"Mann","links","triangle.png","Fremder","Matching","Stranger","Stranger","Stranger",1,489,0.489,1
"110",101,3,26,"ExpList",23,"Mann","links","circle.png","Fremder","Nonmatching","Self","Self","Self",5,554,0.554,1
"111",101,3,27,"ExpList",23,"Mann","links","triangle.png","Ich","Nonmatching","Stranger","Stranger","Stranger",5,466,0.466,1
"112",101,3,28,"ExpList",23,"Mann","links","triangle.png","Ich","Nonmatching","Stranger","Stranger","Stranger",5,706,0.706,1
"113",101,3,29,"ExpList",23,"Mann","links","circle.png","Ich","Matching","Self","Self","Self",1,400,0.4,1
"114",101,3,30,"ExpList",23,"Mann","links","triangle.png","Ich","Nonmatching","Stranger","Stranger","Stranger",5,500,0.5,1
"115",101,3,31,"ExpList",23,"Mann","links","circle.png","Ich","Matching","Self","Self","Self",1,553,0.553,1
"116",101,3,32,"ExpList",23,"Mann","links","triangle.png","Fremder","Matching","Stranger","Stranger","Stranger",5,830,0.83,0
"117",101,3,33,"ExpList",23,"Mann","links","triangle.png","Fremder","Matching","Stranger","Stranger","Stranger",1,573,0.573,1
"118",101,3,34,"ExpList",23,"Mann","links","circle.png","Fremder","Nonmatching","Self","Self","Self",1,443,0.443,0
"119",101,3,35,"ExpList",23,"Mann","links","triangle.png","Fremder","Matching","Stranger","Stranger","Stranger",1,567,0.567,1
"120",101,3,36,"ExpList",23,"Mann","links","circle.png","Ich","Matching","Self","Self","Self",1,425,0.425,1
"121",101,3,37,"ExpList",23,"Mann","links","triangle.png","Fremder","Matching","Stranger","Stranger","Stranger",5,502,0.502,0
"122",101,3,38,"ExpList",23,"Mann","links","circle.png","Fremder","Nonmatching","Self","Self","Self",5,812,0.812,1
"123",101,3,39,"ExpList",23,"Mann","links","triangle.png","Fremder","Matching","Stranger","Stranger","Stranger",1,588,0.588,1
"124",101,3,40,"ExpList",23,"Mann","links","circle.png","Ich","Matching","Self","Self","Self",1,445,0.445,1
"125",101,3,41,"ExpList",23,"Mann","links","triangle.png","Fremder","Matching","Stranger","Stranger","Stranger",1,650,0.65,1
"126",101,3,42,"ExpList",23,"Mann","links","triangle.png","Ich","Nonmatching","Stranger","Stranger","Stranger",5,523,0.523,1
"127",101,3,43,"ExpList",23,"Mann","links","triangle.png","Fremder","Matching","Stranger","Stranger","Stranger",1,515,0.515,1
"128",101,3,44,"ExpList",23,"Mann","links","circle.png","Ich","Matching","Self","Self","Self",1,416,0.416,1
"129",101,3,45,"ExpList",23,"Mann","links","triangle.png","Fremder","Matching","Stranger","Stranger","Stranger",1,547,0.547,1
"130",101,3,46,"ExpList",23,"Mann","links","circle.png","Fremder","Nonmatching","Self","Self","Self",5,700,0.7,1
"131",101,3,47,"ExpList",23,"Mann","links","circle.png","Ich","Matching","Self","Self","Self",1,335,0.335,1
"132",101,3,48,"ExpList",23,"Mann","links","triangle.png","Fremder","Matching","Stranger","Stranger","Stranger",1,500,0.5,1
"133",101,3,49,"ExpList",23,"Mann","links","circle.png","Fremder","Nonmatching","Self","Self","Self",5,701,0.701,1
"134",101,3,50,"ExpList",23,"Mann","links","circle.png","Ich","Matching","Self","Self","Self",1,445,0.445,1
"135",101,3,51,"ExpList",23,"Mann","links","triangle.png","Ich","Nonmatching","Stranger","Stranger","Stranger",5,814,0.814,1
"136",101,3,52,"ExpList",23,"Mann","links","triangle.png","Ich","Nonmatching","Stranger","Stranger","Stranger",5,782,0.782,1
"137",101,3,53,"ExpList",23,"Mann","links","circle.png","Ich","Matching","Self","Self","Self",1,374,0.374,1
"138",101,3,54,"ExpList",23,"Mann","links","circle.png","Fremder","Nonmatching","Self","Self","Self",5,674,0.674,1
"139",101,3,55,"ExpList",23,"Mann","links","triangle.png","Fremder","Matching","Stranger","Stranger","Stranger",1,687,0.687,1
"140",101,3,56,"ExpList",23,"Mann","links","triangle.png","Ich","Nonmatching","Stranger","Stranger","Stranger",5,503,0.503,1
"141",101,3,57,"ExpList",23,"Mann","links","circle.png","Fremder","Nonmatching","Self","Self","Self",5,862,0.862,1
"142",101,3,58,"ExpList",23,"Mann","links","circle.png","Ich","Matching","Self","Self","Self",1,457,0.457,1
"143",101,3,59,"ExpList",23,"Mann","links","triangle.png","Fremder","Matching","Stranger","Stranger","Stranger",5,604,0.604,0
"144",101,3,60,"ExpList",23,"Mann","links","circle.png","Ich","Matching","Self","Self","Self",1,413,0.413,1
"145",101,4,1,"ExpList",23,"Mann","links","triangle.png","Fremder","Matching","Stranger","Stranger","Stranger",1,645,0.645,1
"146",101,4,2,"ExpList",23,"Mann","links","circle.png","Fremder","Nonmatching","Self","Self","Self",5,564,0.564,1
"147",101,4,3,"ExpList",23,"Mann","links","triangle.png","Ich","Nonmatching","Stranger","Stranger","Stranger",5,515,0.515,1
"148",101,4,4,"ExpList",23,"Mann","links","triangle.png","Fremder","Matching","Stranger","Stranger","Stranger",1,485,0.485,1
"149",101,4,5,"ExpList",23,"Mann","links","circle.png","Fremder","Nonmatching","Self","Self","Self",5,473,0.473,1
"150",101,4,6,"ExpList",23,"Mann","links","triangle.png","Fremder","Matching","Stranger","Stranger","Stranger",1,493,0.493,1
"151",101,4,7,"ExpList",23,"Mann","links","circle.png","Fremder","Nonmatching","Self","Self","Self",5,487,0.487,1
"152",101,4,8,"ExpList",23,"Mann","links","circle.png","Ich","Matching","Self","Self","Self",1,345,0.345,1
"153",101,4,9,"ExpList",23,"Mann","links","circle.png","Ich","Matching","Self","Self","Self",1,423,0.423,1
"154",101,4,10,"ExpList",23,"Mann","links","triangle.png","Ich","Nonmatching","Stranger","Stranger","Stranger",5,489,0.489,1
"155",101,4,11,"ExpList",23,"Mann","links","circle.png","Fremder","Nonmatching","Self","Self","Self",5,605,0.605,1
"156",101,4,12,"ExpList",23,"Mann","links","triangle.png","Ich","Nonmatching","Stranger","Stranger","Stranger",5,543,0.543,1
"157",101,4,13,"ExpList",23,"Mann","links","circle.png","Ich","Matching","Self","Self","Self",1,466,0.466,1
"158",101,4,14,"ExpList",23,"Mann","links","triangle.png","Ich","Nonmatching","Stranger","Stranger","Stranger",5,457,0.457,1
"159",101,4,15,"ExpList",23,"Mann","links","triangle.png","Ich","Nonmatching","Stranger","Stranger","Stranger",5,596,0.596,1
"160",101,4,16,"ExpList",23,"Mann","links","circle.png","Fremder","Nonmatching","Self","Self","Self",5,650,0.65,1
"161",101,4,17,"ExpList",23,"Mann","links","circle.png","Ich","Matching","Self","Self","Self",1,341,0.341,1
"162",101,4,18,"ExpList",23,"Mann","links","triangle.png","Ich","Nonmatching","Stranger","Stranger","Stranger",5,488,0.488,1
"163",101,4,19,"ExpList",23,"Mann","links","circle.png","Fremder","Nonmatching","Self","Self","Self",5,594,0.594,1
"164",101,4,20,"ExpList",23,"Mann","links","circle.png","Fremder","Nonmatching","Self","Self","Self",5,655,0.655,1
"165",101,4,21,"ExpList",23,"Mann","links","triangle.png","Fremder","Matching","Stranger","Stranger","Stranger",1,533,0.533,1
"166",101,4,22,"ExpList",23,"Mann","links","triangle.png","Ich","Nonmatching","Stranger","Stranger","Stranger",5,717,0.717,1
"167",101,4,23,"ExpList",23,"Mann","links","circle.png","Ich","Matching","Self","Self","Self",1,484,0.484,1
"168",101,4,24,"ExpList",23,"Mann","links","triangle.png","Fremder","Matching","Stranger","Stranger","Stranger",1,606,0.606,1
"169",101,4,25,"ExpList",23,"Mann","links","triangle.png","Fremder","Matching","Stranger","Stranger","Stranger",1,512,0.512,1
"170",101,4,26,"ExpList",23,"Mann","links","triangle.png","Ich","Nonmatching","Stranger","Stranger","Stranger",5,526,0.526,1
"171",101,4,27,"ExpList",23,"Mann","links","circle.png","Ich","Matching","Self","Self","Self",1,426,0.426,1
"172",101,4,28,"ExpList",23,"Mann","links","triangle.png","Fremder","Matching","Stranger","Stranger","Stranger",1,577,0.577,1
"173",101,4,29,"ExpList",23,"Mann","links","triangle.png","Ich","Nonmatching","Stranger","Stranger","Stranger",5,782,0.782,1
"174",101,4,30,"ExpList",23,"Mann","links","triangle.png","Fremder","Matching","Stranger","Stranger","Stranger",1,543,0.543,1
"175",101,4,31,"ExpList",23,"Mann","links","circle.png","Fremder","Nonmatching","Self","Self","Self",5,458,0.458,1
"176",101,4,32,"ExpList",23,"Mann","links","triangle.png","Ich","Nonmatching","Stranger","Stranger","Stranger",5,791,0.791,1
"177",101,4,33,"ExpList",23,"Mann","links","circle.png","Ich","Matching","Self","Self","Self",1,468,0.468,1
"178",101,4,34,"ExpList",23,"Mann","links","triangle.png","Fremder","Matching","Stranger","Stranger","Stranger",1,788,0.788,1
"179",101,4,35,"ExpList",23,"Mann","links","circle.png","Ich","Matching","Self","Self","Self",1,513,0.513,1
"180",101,4,36,"ExpList",23,"Mann","links","circle.png","Fremder","Nonmatching","Self","Self","Self",5,556,0.556,1
"181",101,4,37,"ExpList",23,"Mann","links","triangle.png","Fremder","Matching","Stranger","Stranger","Stranger",1,548,0.548,1
"182",101,4,38,"ExpList",23,"Mann","links","circle.png","Ich","Matching","Self","Self","Self",1,554,0.554,1
"183",101,4,39,"ExpList",23,"Mann","links","circle.png","Ich","Matching","Self","Self","Self",1,612,0.612,1
"184",101,4,40,"ExpList",23,"Mann","links","triangle.png","Ich","Nonmatching","Stranger","Stranger","Stranger",5,583,0.583,1
"185",101,4,41,"ExpList",23,"Mann","links","circle.png","Ich","Matching","Self","Self","Self",1,474,0.474,1
"186",101,4,42,"ExpList",23,"Mann","links","circle.png","Fremder","Nonmatching","Self","Self","Self",5,752,0.752,1
"187",101,4,43,"ExpList",23,"Mann","links","circle.png","Ich","Matching","Self","Self","Self",1,668,0.668,1
"188",101,4,44,"ExpList",23,"Mann","links","triangle.png","Fremder","Matching","Stranger","Stranger","Stranger",1,837,0.837,1
"189",101,4,45,"ExpList",23,"Mann","links","circle.png","Fremder","Nonmatching","Self","Self","Self",5,435,0.435,1
"190",101,4,46,"ExpList",23,"Mann","links","circle.png","Ich","Matching","Self","Self","Self",1,481,0.481,1
"191",101,4,47,"ExpList",23,"Mann","links","circle.png","Fremder","Nonmatching","Self","Self","Self",5,570,0.57,1
"192",101,4,48,"ExpList",23,"Mann","links","triangle.png","Fremder","Matching","Stranger","Stranger","Stranger",1,645,0.645,1
"193",101,4,49,"ExpList",23,"Mann","links","circle.png","Ich","Matching","Self","Self","Self",1,428,0.428,1
"194",101,4,50,"ExpList",23,"Mann","links","circle.png","Fremder","Nonmatching","Self","Self","Self",5,825,0.825,1
"195",101,4,51,"ExpList",23,"Mann","links","triangle.png","Ich","Nonmatching","Stranger","Stranger","Stranger",5,497,0.497,1
"196",101,4,52,"ExpList",23,"Mann","links","triangle.png","Fremder","Matching","Stranger","Stranger","Stranger",1,558,0.558,1
"197",101,4,53,"ExpList",23,"Mann","links","triangle.png","Ich","Nonmatching","Stranger","Stranger","Stranger",5,559,0.559,1
"198",101,4,54,"ExpList",23,"Mann","links","circle.png","Fremder","Nonmatching","Self","Self","Self",5,719,0.719,1
"199",101,4,55,"ExpList",23,"Mann","links","triangle.png","Fremder","Matching","Stranger","Stranger","Stranger",1,696,0.696,1
"200",101,4,56,"ExpList",23,"Mann","links","triangle.png","Fremder","Matching","Stranger","Stranger","Stranger",1,918,0.918,1
"201",101,4,57,"ExpList",23,"Mann","links","triangle.png","Ich","Nonmatching","Stranger","Stranger","Stranger",5,712,0.712,1
"202",101,4,58,"ExpList",23,"Mann","links","circle.png","Fremder","Nonmatching","Self","Self","Self",5,810,0.81,1
"203",101,4,59,"ExpList",23,"Mann","links","triangle.png","Ich","Nonmatching","Stranger","Stranger","Stranger",5,435,0.435,1
"204",101,4,60,"ExpList",23,"Mann","links","circle.png","Ich","Matching","Self","Self","Self",1,495,0.495,1
"205",101,5,1,"ExpList",23,"Mann","links","triangle.png","Fremder","Matching","Stranger","Stranger","Stranger",1,1348,1.348,1
"206",101,5,2,"ExpList",23,"Mann","links","triangle.png","Fremder","Matching","Stranger","Stranger","Stranger",1,509,0.509,1
"207",101,5,3,"ExpList",23,"Mann","links","triangle.png","Ich","Nonmatching","Stranger","Stranger","Stranger",5,527,0.527,1
"208",101,5,4,"ExpList",23,"Mann","links","circle.png","Fremder","Nonmatching","Self","Self","Self",5,542,0.542,1
"209",101,5,5,"ExpList",23,"Mann","links","triangle.png","Fremder","Matching","Stranger","Stranger","Stranger",1,552,0.552,1
"210",101,5,6,"ExpList",23,"Mann","links","circle.png","Ich","Matching","Self","Self","Self",1,486,0.486,1
"211",101,5,7,"ExpList",23,"Mann","links","triangle.png","Fremder","Matching","Stranger","Stranger","Stranger",1,637,0.637,1
"212",101,5,8,"ExpList",23,"Mann","links","circle.png","Fremder","Nonmatching","Self","Self","Self",1,435,0.435,0
"213",101,5,9,"ExpList",23,"Mann","links","triangle.png","Ich","Nonmatching","Stranger","Stranger","Stranger",5,802,0.802,1
"214",101,5,10,"ExpList",23,"Mann","links","circle.png","Fremder","Nonmatching","Self","Self","Self",5,570,0.57,1
"215",101,5,11,"ExpList",23,"Mann","links","circle.png","Ich","Matching","Self","Self","Self",1,433,0.433,1
"216",101,5,12,"ExpList",23,"Mann","links","triangle.png","Ich","Nonmatching","Stranger","Stranger","Stranger",5,399,0.399,1
"217",101,5,13,"ExpList",23,"Mann","links","triangle.png","Fremder","Matching","Stranger","Stranger","Stranger",1,583,0.583,1
"218",101,5,14,"ExpList",23,"Mann","links","circle.png","Ich","Matching","Self","Self","Self",1,568,0.568,1
"219",101,5,15,"ExpList",23,"Mann","links","triangle.png","Ich","Nonmatching","Stranger","Stranger","Stranger",5,566,0.566,1
"220",101,5,16,"ExpList",23,"Mann","links","triangle.png","Ich","Nonmatching","Stranger","Stranger","Stranger",5,915,0.915,1
"221",101,5,17,"ExpList",23,"Mann","links","circle.png","Fremder","Nonmatching","Self","Self","Self",5,830,0.83,1
"222",101,5,18,"ExpList",23,"Mann","links","circle.png","Ich","Matching","Self","Self","Self",1,482,0.482,1
"223",101,5,19,"ExpList",23,"Mann","links","circle.png","Fremder","Nonmatching","Self","Self","Self",5,821,0.821,1
"224",101,5,20,"ExpList",23,"Mann","links","triangle.png","Ich","Nonmatching","Stranger","Stranger","Stranger",5,543,0.543,1
"225",101,5,21,"ExpList",23,"Mann","links","triangle.png","Fremder","Matching","Stranger","Stranger","Stranger",1,428,0.428,1
"226",101,5,22,"ExpList",23,"Mann","links","circle.png","Fremder","Nonmatching","Self","Self","Self",5,403,0.403,1
"227",101,5,23,"ExpList",23,"Mann","links","circle.png","Ich","Matching","Self","Self","Self",1,478,0.478,1
"228",101,5,24,"ExpList",23,"Mann","links","circle.png","Fremder","Nonmatching","Self","Self","Self",5,492,0.492,1
"229",101,5,25,"ExpList",23,"Mann","links","triangle.png","Fremder","Matching","Stranger","Stranger","Stranger",1,805,0.805,1
"230",101,5,26,"ExpList",23,"Mann","links","circle.png","Ich","Matching","Self","Self","Self",5,511,0.511,0
"231",101,5,27,"ExpList",23,"Mann","links","circle.png","Ich","Matching","Self","Self","Self",1,369,0.369,1
"232",101,5,28,"ExpList",23,"Mann","links","circle.png","Fremder","Nonmatching","Self","Self","Self",5,727,0.727,1
"233",101,5,29,"ExpList",23,"Mann","links","triangle.png","Ich","Nonmatching","Stranger","Stranger","Stranger",1,599,0.599,0
"234",101,5,30,"ExpList",23,"Mann","links","triangle.png","Ich","Nonmatching","Stranger","Stranger","Stranger",5,593,0.593,1
"235",101,5,31,"ExpList",23,"Mann","links","triangle.png","Fremder","Matching","Stranger","Stranger","Stranger",5,683,0.683,0
"236",101,5,32,"ExpList",23,"Mann","links","circle.png","Fremder","Nonmatching","Self","Self","Self",5,520,0.52,1
"237",101,5,33,"ExpList",23,"Mann","links","triangle.png","Ich","Nonmatching","Stranger","Stranger","Stranger",5,587,0.587,1
"238",101,5,34,"ExpList",23,"Mann","links","circle.png","Ich","Matching","Self","Self","Self",1,426,0.426,1
"239",101,5,35,"ExpList",23,"Mann","links","circle.png","Fremder","Nonmatching","Self","Self","Self",5,582,0.582,1
"240",101,5,36,"ExpList",23,"Mann","links","triangle.png","Fremder","Matching","Stranger","Stranger","Stranger",1,739,0.739,1
"241",101,5,37,"ExpList",23,"Mann","links","circle.png","Fremder","Nonmatching","Self","Self","Self",5,729,0.729,1
"242",101,5,38,"ExpList",23,"Mann","links","circle.png","Ich","Matching","Self","Self","Self",1,478,0.478,1
"243",101,5,39,"ExpList",23,"Mann","links","circle.png","Ich","Matching","Self","Self","Self",1,436,0.436,1
"244",101,5,40,"ExpList",23,"Mann","links","triangle.png","Ich","Nonmatching","Stranger","Stranger","Stranger",5,542,0.542,1
"245",101,5,41,"ExpList",23,"Mann","links","circle.png","Fremder","Nonmatching","Self","Self","Self",5,787,0.787,1
"246",101,5,42,"ExpList",23,"Mann","links","circle.png","Ich","Matching","Self","Self","Self",1,473,0.473,1
"247",101,5,43,"ExpList",23,"Mann","links","circle.png","Fremder","Nonmatching","Self","Self","Self",5,558,0.558,1
"248",101,5,44,"ExpList",23,"Mann","links","triangle.png","Ich","Nonmatching","Stranger","Stranger","Stranger",5,448,0.448,1
"249",101,5,45,"ExpList",23,"Mann","links","triangle.png","Fremder","Matching","Stranger","Stranger","Stranger",1,541,0.541,1
"250",101,5,46,"ExpList",23,"Mann","links","triangle.png","Ich","Nonmatching","Stranger","Stranger","Stranger",5,614,0.614,1
"251",101,5,47,"ExpList",23,"Mann","links","circle.png","Ich","Matching","Self","Self","Self",1,584,0.584,1
"252",101,5,48,"ExpList",23,"Mann","links","triangle.png","Fremder","Matching","Stranger","Stranger","Stranger",1,595,0.595,1
"253",101,5,49,"ExpList",23,"Mann","links","circle.png","Ich","Matching","Self","Self","Self",1,485,0.485,1
"254",101,5,50,"ExpList",23,"Mann","links","circle.png","Fremder","Nonmatching","Self","Self","Self",5,561,0.561,1
"255",101,5,51,"ExpList",23,"Mann","links","triangle.png","Ich","Nonmatching","Stranger","Stranger","Stranger",5,573,0.573,1
"256",101,5,52,"ExpList",23,"Mann","links","circle.png","Fremder","Nonmatching","Self","Self","Self",5,545,0.545,1
"257",101,5,53,"ExpList",23,"Mann","links","triangle.png","Fremder","Matching","Stranger","Stranger","Stranger",1,728,0.728,1
"258",101,5,54,"ExpList",23,"Mann","links","triangle.png","Ich","Nonmatching","Stranger","Stranger","Stranger",5,546,0.546,1
"259",101,5,55,"ExpList",23,"Mann","links","triangle.png","Fremder","Matching","Stranger","Stranger","Stranger",1,494,0.494,1
"260",101,5,56,"ExpList",23,"Mann","links","circle.png","Ich","Matching","Self","Self","Self",1,715,0.715,1
"261",101,5,57,"ExpList",23,"Mann","links","triangle.png","Fremder","Matching","Stranger","Stranger","Stranger",1,646,0.646,1
"262",101,5,58,"ExpList",23,"Mann","links","triangle.png","Ich","Nonmatching","Stranger","Stranger","Stranger",5,383,0.383,1
"263",101,5,59,"ExpList",23,"Mann","links","triangle.png","Fremder","Matching","Stranger","Stranger","Stranger",1,558,0.558,1
"264",101,5,60,"ExpList",23,"Mann","links","circle.png","Ich","Matching","Self","Self","Self",1,486,0.486,1
"265",102,1,1,"TrainList1",28,"Frau","rechts","circle.png","Ich","Matching","Self","Self","Self",1,437,0.437,1
"266",102,1,2,"TrainList1",28,"Frau","rechts","circle.png","Ich","Matching","Self","Self","Self",1,1357,1.357,1
"267",102,1,3,"TrainList1",28,"Frau","rechts","triangle.png","Ich","Nonmatching","Stranger","Stranger","Stranger",5,766,0.766,1
"268",102,1,4,"TrainList1",28,"Frau","rechts","triangle.png","Ich","Nonmatching","Stranger","Stranger","Stranger",5,610,0.61,1
"269",102,1,5,"TrainList1",28,"Frau","rechts","triangle.png","Fremder","Matching","Stranger","Stranger","Stranger",1,631,0.631,1
"270",102,1,6,"TrainList1",28,"Frau","rechts","triangle.png","Fremder","Matching","Stranger","Stranger","Stranger",1,355,0.355,1
"271",102,1,7,"TrainList1",28,"Frau","rechts","triangle.png","Ich","Nonmatching","Stranger","Stranger","Stranger",5,542,0.542,1
"272",102,1,8,"TrainList1",28,"Frau","rechts","circle.png","Fremder","Nonmatching","Self","Self","Self",5,815,0.815,1
"273",102,1,9,"TrainList1",28,"Frau","rechts","circle.png","Ich","Matching","Self","Self","Self",1,393,0.393,1
"274",102,1,10,"TrainList1",28,"Frau","rechts","triangle.png","Fremder","Matching","Stranger","Stranger","Stranger",5,399,0.399,0
"275",102,1,11,"TrainList1",28,"Frau","rechts","triangle.png","Fremder","Matching","Stranger","Stranger","Stranger",1,773,0.773,1
"276",102,1,12,"TrainList1",28,"Frau","rechts","circle.png","Fremder","Nonmatching","Self","Self","Self",5,640,0.64,1
"277",102,1,13,"TrainList1",28,"Frau","rechts","triangle.png","Ich","Nonmatching","Stranger","Stranger","Stranger",5,718,0.718,1
"278",102,1,14,"TrainList1",28,"Frau","rechts","triangle.png","Fremder","Matching","Stranger","Stranger","Stranger",5,434,0.434,0
"279",102,1,15,"TrainList1",28,"Frau","rechts","circle.png","Ich","Matching","Self","Self","Self",1,496,0.496,1
"280",102,1,16,"TrainList1",28,"Frau","rechts","circle.png","Fremder","Nonmatching","Self","Self","Self",5,618,0.618,1
"281",102,1,17,"TrainList1",28,"Frau","rechts","circle.png","Fremder","Nonmatching","Self","Self","Self",5,578,0.578,1
"282",102,1,18,"TrainList1",28,"Frau","rechts","triangle.png","Fremder","Matching","Stranger","Stranger","Stranger",1,665,0.665,1
"283",102,1,19,"TrainList1",28,"Frau","rechts","circle.png","Ich","Matching","Self","Self","Self",1,270,0.27,1
"284",102,1,20,"TrainList1",28,"Frau","rechts","circle.png","Ich","Matching","Self","Self","Self",1,515,0.515,1
"285",102,1,21,"TrainList1",28,"Frau","rechts","circle.png","Fremder","Nonmatching","Self","Self","Self",5,800,0.8,1
"286",102,1,22,"TrainList1",28,"Frau","rechts","triangle.png","Ich","Nonmatching","Stranger","Stranger","Stranger",5,1309,1.309,1
"287",102,1,23,"TrainList1",28,"Frau","rechts","circle.png","Fremder","Nonmatching","Self","Self","Self",5,616,0.616,1
"288",102,1,24,"TrainList1",28,"Frau","rechts","triangle.png","Ich","Nonmatching","Stranger","Stranger","Stranger",5,623,0.623,1
"289",102,2,1,"ExpList",28,"Frau","rechts","circle.png","Fremder","Nonmatching","Self","Self","Self",5,579,0.579,1
"290",102,2,2,"ExpList",28,"Frau","rechts","triangle.png","Fremder","Matching","Stranger","Stranger","Stranger",1,598,0.598,1
"291",102,2,3,"ExpList",28,"Frau","rechts","circle.png","Fremder","Nonmatching","Self","Self","Self",5,367,0.367,1
"292",102,2,4,"ExpList",28,"Frau","rechts","triangle.png","Ich","Nonmatching","Stranger","Stranger","Stranger",5,524,0.524,1
"293",102,2,5,"ExpList",28,"Frau","rechts","circle.png","Ich","Matching","Self","Self","Self",1,374,0.374,1
"294",102,2,6,"ExpList",28,"Frau","rechts","triangle.png","Fremder","Matching","Stranger","Stranger","Stranger",1,573,0.573,1
"295",102,2,7,"ExpList",28,"Frau","rechts","circle.png","Ich","Matching","Self","Self","Self",1,450,0.45,1
"296",102,2,8,"ExpList",28,"Frau","rechts","circle.png","Fremder","Nonmatching","Self","Self","Self",5,485,0.485,1
"297",102,2,9,"ExpList",28,"Frau","rechts","triangle.png","Ich","Nonmatching","Stranger","Stranger","Stranger",5,668,0.668,1
"298",102,2,10,"ExpList",28,"Frau","rechts","circle.png","Ich","Matching","Self","Self","Self",1,467,0.467,1
"299",102,2,11,"ExpList",28,"Frau","rechts","triangle.png","Ich","Nonmatching","Stranger","Stranger","Stranger",5,415,0.415,1
"300",102,2,12,"ExpList",28,"Frau","rechts","circle.png","Ich","Matching","Self","Self","Self",1,491,0.491,1
"301",102,2,13,"ExpList",28,"Frau","rechts","triangle.png","Fremder","Matching","Stranger","Stranger","Stranger",1,972,0.972,1
"302",102,2,14,"ExpList",28,"Frau","rechts","circle.png","Fremder","Nonmatching","Self","Self","Self",5,444,0.444,1
"303",102,2,15,"ExpList",28,"Frau","rechts","triangle.png","Ich","Nonmatching","Stranger","Stranger","Stranger",5,600,0.6,1
"304",102,2,16,"ExpList",28,"Frau","rechts","triangle.png","Fremder","Matching","Stranger","Stranger","Stranger",1,573,0.573,1
"305",102,2,17,"ExpList",28,"Frau","rechts","triangle.png","Ich","Nonmatching","Stranger","Stranger","Stranger",5,901,0.901,1
"306",102,2,18,"ExpList",28,"Frau","rechts","circle.png","Ich","Matching","Self","Self","Self",1,434,0.434,1
"307",102,2,19,"ExpList",28,"Frau","rechts","triangle.png","Fremder","Matching","Stranger","Stranger","Stranger",5,649,0.649,0
"308",102,2,20,"ExpList",28,"Frau","rechts","triangle.png","Ich","Nonmatching","Stranger","Stranger","Stranger",5,794,0.794,1
"309",102,2,21,"ExpList",28,"Frau","rechts","circle.png","Ich","Matching","Self","Self","Self",1,395,0.395,1
"310",102,2,22,"ExpList",28,"Frau","rechts","circle.png","Fremder","Nonmatching","Self","Self","Self",5,552,0.552,1
"311",102,2,23,"ExpList",28,"Frau","rechts","circle.png","Ich","Matching","Self","Self","Self",1,465,0.465,1
"312",102,2,24,"ExpList",28,"Frau","rechts","triangle.png","Ich","Nonmatching","Stranger","Stranger","Stranger",5,592,0.592,1
"313",102,2,25,"ExpList",28,"Frau","rechts","circle.png","Ich","Matching","Self","Self","Self",1,433,0.433,1
"314",102,2,26,"ExpList",28,"Frau","rechts","circle.png","Fremder","Nonmatching","Self","Self","Self",5,406,0.406,1
"315",102,2,27,"ExpList",28,"Frau","rechts","triangle.png","Ich","Nonmatching","Stranger","Stranger","Stranger",5,515,0.515,1
"316",102,2,28,"ExpList",28,"Frau","rechts","circle.png","Fremder","Nonmatching","Self","Self","Self",5,520,0.52,1
"317",102,2,29,"ExpList",28,"Frau","rechts","triangle.png","Fremder","Matching","Stranger","Stranger","Stranger",5,556,0.556,0
"318",102,2,30,"ExpList",28,"Frau","rechts","triangle.png","Fremder","Matching","Stranger","Stranger","Stranger",1,510,0.51,1
"319",102,2,31,"ExpList",28,"Frau","rechts","triangle.png","Fremder","Matching","Stranger","Stranger","Stranger",1,676,0.676,1
"320",102,2,32,"ExpList",28,"Frau","rechts","circle.png","Fremder","Nonmatching","Self","Self","Self",5,524,0.524,1
"321",102,2,33,"ExpList",28,"Frau","rechts","circle.png","Ich","Matching","Self","Self","Self",1,436,0.436,1
"322",102,2,34,"ExpList",28,"Frau","rechts","circle.png","Ich","Matching","Self","Self","Self",1,542,0.542,1
"323",102,2,35,"ExpList",28,"Frau","rechts","triangle.png","Ich","Nonmatching","Stranger","Stranger","Stranger",5,558,0.558,1
"324",102,2,36,"ExpList",28,"Frau","rechts","circle.png","Fremder","Nonmatching","Self","Self","Self",5,528,0.528,1
"325",102,2,37,"ExpList",28,"Frau","rechts","triangle.png","Ich","Nonmatching","Stranger","Stranger","Stranger",5,466,0.466,1
"326",102,2,38,"ExpList",28,"Frau","rechts","circle.png","Ich","Matching","Self","Self","Self",1,400,0.4,1
"327",102,2,39,"ExpList",28,"Frau","rechts","circle.png","Fremder","Nonmatching","Self","Self","Self",1,424,0.424,0
"328",102,2,40,"ExpList",28,"Frau","rechts","triangle.png","Fremder","Matching","Stranger","Stranger","Stranger",1,657,0.657,1
"329",102,2,41,"ExpList",28,"Frau","rechts","circle.png","Ich","Matching","Self","Self","Self",1,427,0.427,1
"330",102,2,42,"ExpList",28,"Frau","rechts","triangle.png","Fremder","Matching","Stranger","Stranger","Stranger",1,525,0.525,1
"331",102,2,43,"ExpList",28,"Frau","rechts","circle.png","Fremder","Nonmatching","Self","Self","Self",5,672,0.672,1
"332",102,2,44,"ExpList",28,"Frau","rechts","triangle.png","Fremder","Matching","Stranger","Stranger","Stranger",1,447,0.447,1
"333",102,2,45,"ExpList",28,"Frau","rechts","triangle.png","Fremder","Matching","Stranger","Stranger","Stranger",1,570,0.57,1
"334",102,2,46,"ExpList",28,"Frau","rechts","circle.png","Fremder","Nonmatching","Self","Self","Self",5,680,0.68,1
"335",102,2,47,"ExpList",28,"Frau","rechts","triangle.png","Ich","Nonmatching","Stranger","Stranger","Stranger",1,451,0.451,0
"336",102,2,48,"ExpList",28,"Frau","rechts","triangle.png","Fremder","Matching","Stranger","Stranger","Stranger",1,514,0.514,1
"337",102,2,49,"ExpList",28,"Frau","rechts","triangle.png","Ich","Nonmatching","Stranger","Stranger","Stranger",5,576,0.576,1
"338",102,2,50,"ExpList",28,"Frau","rechts","circle.png","Ich","Matching","Self","Self","Self",1,397,0.397,1
"339",102,2,51,"ExpList",28,"Frau","rechts","triangle.png","Fremder","Matching","Stranger","Stranger","Stranger",1,829,0.829,1
"340",102,2,52,"ExpList",28,"Frau","rechts","circle.png","Ich","Matching","Self","Self","Self",1,444,0.444,1
"341",102,2,53,"ExpList",28,"Frau","rechts","triangle.png","Ich","Nonmatching","Stranger","Stranger","Stranger",5,714,0.714,1
"342",102,2,54,"ExpList",28,"Frau","rechts","circle.png","Fremder","Nonmatching","Self","Self","Self",1,411,0.411,0
"343",102,2,55,"ExpList",28,"Frau","rechts","circle.png","Fremder","Nonmatching","Self","Self","Self",5,559,0.559,1
"344",102,2,56,"ExpList",28,"Frau","rechts","triangle.png","Fremder","Matching","Stranger","Stranger","Stranger",1,495,0.495,1
"345",102,2,57,"ExpList",28,"Frau","rechts","triangle.png","Ich","Nonmatching","Stranger","Stranger","Stranger",5,598,0.598,1
"346",102,2,58,"ExpList",28,"Frau","rechts","circle.png","Fremder","Nonmatching","Self","Self","Self",5,527,0.527,1
"347",102,2,59,"ExpList",28,"Frau","rechts","triangle.png","Ich","Nonmatching","Stranger","Stranger","Stranger",5,583,0.583,1
"348",102,2,60,"ExpList",28,"Frau","rechts","circle.png","Ich","Matching","Self","Self","Self",1,252,0.252,1
"349",102,3,1,"ExpList",28,"Frau","rechts","triangle.png","Ich","Nonmatching","Stranger","Stranger","Stranger",5,516,0.516,1
"350",102,3,2,"ExpList",28,"Frau","rechts","triangle.png","Ich","Nonmatching","Stranger","Stranger","Stranger",5,400,0.4,1
"351",102,3,3,"ExpList",28,"Frau","rechts","circle.png","Fremder","Nonmatching","Self","Self","Self",1,336,0.336,0
"352",102,3,4,"ExpList",28,"Frau","rechts","circle.png","Ich","Matching","Self","Self","Self",1,292,0.292,1
"353",102,3,5,"ExpList",28,"Frau","rechts","circle.png","Fremder","Nonmatching","Self","Self","Self",5,617,0.617,1
"354",102,3,6,"ExpList",28,"Frau","rechts","triangle.png","Fremder","Matching","Stranger","Stranger","Stranger",1,522,0.522,1
"355",102,3,7,"ExpList",28,"Frau","rechts","circle.png","Fremder","Nonmatching","Self","Self","Self",5,465,0.465,1
"356",102,3,8,"ExpList",28,"Frau","rechts","circle.png","Ich","Matching","Self","Self","Self",1,408,0.408,1
"357",102,3,9,"ExpList",28,"Frau","rechts","circle.png","Ich","Matching","Self","Self","Self",1,252,0.252,1
"358",102,3,10,"ExpList",28,"Frau","rechts","triangle.png","Ich","Nonmatching","Stranger","Stranger","Stranger",5,326,0.326,1
"359",102,3,11,"ExpList",28,"Frau","rechts","triangle.png","Fremder","Matching","Stranger","Stranger","Stranger",1,484,0.484,1
"360",102,3,12,"ExpList",28,"Frau","rechts","circle.png","Fremder","Nonmatching","Self","Self","Self",5,435,0.435,1
"361",102,3,13,"ExpList",28,"Frau","rechts","triangle.png","Ich","Nonmatching","Stranger","Stranger","Stranger",5,651,0.651,1
"362",102,3,14,"ExpList",28,"Frau","rechts","triangle.png","Ich","Nonmatching","Stranger","Stranger","Stranger",5,489,0.489,1
"363",102,3,15,"ExpList",28,"Frau","rechts","triangle.png","Fremder","Matching","Stranger","Stranger","Stranger",5,489,0.489,0
"364",102,3,16,"ExpList",28,"Frau","rechts","circle.png","Ich","Matching","Self","Self","Self",1,400,0.4,1
"365",102,3,17,"ExpList",28,"Frau","rechts","circle.png","Fremder","Nonmatching","Self","Self","Self",5,481,0.481,1
"366",102,3,18,"ExpList",28,"Frau","rechts","triangle.png","Fremder","Matching","Stranger","Stranger","Stranger",1,519,0.519,1
"367",102,3,19,"ExpList",28,"Frau","rechts","circle.png","Ich","Matching","Self","Self","Self",1,325,0.325,1
"368",102,3,20,"ExpList",28,"Frau","rechts","circle.png","Fremder","Nonmatching","Self","Self","Self",5,548,0.548,1
"369",102,3,21,"ExpList",28,"Frau","rechts","triangle.png","Fremder","Matching","Stranger","Stranger","Stranger",1,648,0.648,1
"370",102,3,22,"ExpList",28,"Frau","rechts","triangle.png","Fremder","Matching","Stranger","Stranger","Stranger",1,670,0.67,1
"371",102,3,23,"ExpList",28,"Frau","rechts","triangle.png","Fremder","Matching","Stranger","Stranger","Stranger",1,422,0.422,1
"372",102,3,24,"ExpList",28,"Frau","rechts","circle.png","Fremder","Nonmatching","Self","Self","Self",5,460,0.46,1
"373",102,3,25,"ExpList",28,"Frau","rechts","circle.png","Ich","Matching","Self","Self","Self",1,433,0.433,1
"374",102,3,26,"ExpList",28,"Frau","rechts","triangle.png","Fremder","Matching","Stranger","Stranger","Stranger",1,384,0.384,1
"375",102,3,27,"ExpList",28,"Frau","rechts","triangle.png","Ich","Nonmatching","Stranger","Stranger","Stranger",5,417,0.417,1
"376",102,3,28,"ExpList",28,"Frau","rechts","triangle.png","Fremder","Matching","Stranger","Stranger","Stranger",1,546,0.546,1
"377",102,3,29,"ExpList",28,"Frau","rechts","circle.png","Fremder","Nonmatching","Self","Self","Self",5,555,0.555,1
"378",102,3,30,"ExpList",28,"Frau","rechts","circle.png","Fremder","Nonmatching","Self","Self","Self",5,310,0.31,1
"379",102,3,31,"ExpList",28,"Frau","rechts","triangle.png","Ich","Nonmatching","Stranger","Stranger","Stranger",5,552,0.552,1
"380",102,3,32,"ExpList",28,"Frau","rechts","circle.png","Ich","Matching","Self","Self","Self",1,304,0.304,1
"381",102,3,33,"ExpList",28,"Frau","rechts","triangle.png","Ich","Nonmatching","Stranger","Stranger","Stranger",5,568,0.568,1
"382",102,3,34,"ExpList",28,"Frau","rechts","circle.png","Ich","Matching","Self","Self","Self",1,347,0.347,1
"383",102,3,35,"ExpList",28,"Frau","rechts","circle.png","Ich","Matching","Self","Self","Self",1,326,0.326,1
"384",102,3,36,"ExpList",28,"Frau","rechts","circle.png","Fremder","Nonmatching","Self","Self","Self",5,454,0.454,1
"385",102,3,37,"ExpList",28,"Frau","rechts","triangle.png","Ich","Nonmatching","Stranger","Stranger","Stranger",5,587,0.587,1
"386",102,3,38,"ExpList",28,"Frau","rechts","circle.png","Ich","Matching","Self","Self","Self",1,443,0.443,1
"387",102,3,39,"ExpList",28,"Frau","rechts","triangle.png","Ich","Nonmatching","Stranger","Stranger","Stranger",5,397,0.397,1
"388",102,3,40,"ExpList",28,"Frau","rechts","circle.png","Ich","Matching","Self","Self","Self",1,400,0.4,1
"389",102,3,41,"ExpList",28,"Frau","rechts","triangle.png","Fremder","Matching","Stranger","Stranger","Stranger",1,539,0.539,1
"390",102,3,42,"ExpList",28,"Frau","rechts","circle.png","Ich","Matching","Self","Self","Self",1,496,0.496,1
"391",102,3,43,"ExpList",28,"Frau","rechts","circle.png","Fremder","Nonmatching","Self","Self","Self",5,456,0.456,1
"392",102,3,44,"ExpList",28,"Frau","rechts","triangle.png","Fremder","Matching","Stranger","Stranger","Stranger",1,534,0.534,1
"393",102,3,45,"ExpList",28,"Frau","rechts","triangle.png","Ich","Nonmatching","Stranger","Stranger","Stranger",5,461,0.461,1
"394",102,3,46,"ExpList",28,"Frau","rechts","circle.png","Ich","Matching","Self","Self","Self",1,398,0.398,1
"395",102,3,47,"ExpList",28,"Frau","rechts","triangle.png","Fremder","Matching","Stranger","Stranger","Stranger",1,368,0.368,1
"396",102,3,48,"ExpList",28,"Frau","rechts","circle.png","Fremder","Nonmatching","Self","Self","Self",1,353,0.353,0
"397",102,3,49,"ExpList",28,"Frau","rechts","triangle.png","Ich","Nonmatching","Stranger","Stranger","Stranger",5,604,0.604,1
"398",102,3,50,"ExpList",28,"Frau","rechts","circle.png","Ich","Matching","Self","Self","Self",1,368,0.368,1
"399",102,3,51,"ExpList",28,"Frau","rechts","triangle.png","Ich","Nonmatching","Stranger","Stranger","Stranger",5,415,0.415,1
"400",102,3,52,"ExpList",28,"Frau","rechts","circle.png","Ich","Matching","Self","Self","Self",1,450,0.45,1
"401",102,3,53,"ExpList",28,"Frau","rechts","circle.png","Fremder","Nonmatching","Self","Self","Self",1,393,0.393,0
"402",102,3,54,"ExpList",28,"Frau","rechts","triangle.png","Ich","Nonmatching","Stranger","Stranger","Stranger",5,569,0.569,1
"403",102,3,55,"ExpList",28,"Frau","rechts","triangle.png","Fremder","Matching","Stranger","Stranger","Stranger",1,573,0.573,1
"404",102,3,56,"ExpList",28,"Frau","rechts","triangle.png","Fremder","Matching","Stranger","Stranger","Stranger",1,493,0.493,1
"405",102,3,57,"ExpList",28,"Frau","rechts","circle.png","Fremder","Nonmatching","Self","Self","Self",5,517,0.517,1
"406",102,3,58,"ExpList",28,"Frau","rechts","triangle.png","Ich","Nonmatching","Stranger","Stranger","Stranger",5,677,0.677,1
"407",102,3,59,"ExpList",28,"Frau","rechts","circle.png","Fremder","Nonmatching","Self","Self","Self",5,430,0.43,1
"408",102,3,60,"ExpList",28,"Frau","rechts","triangle.png","Fremder","Matching","Stranger","Stranger","Stranger",1,622,0.622,1
"409",102,4,1,"ExpList",28,"Frau","rechts","circle.png","Ich","Matching","Self","Self","Self",1,375,0.375,1
"410",102,4,2,"ExpList",28,"Frau","rechts","circle.png","Ich","Matching","Self","Self","Self",1,303,0.303,1
"411",102,4,3,"ExpList",28,"Frau","rechts","circle.png","Ich","Matching","Self","Self","Self",1,296,0.296,1
"412",102,4,4,"ExpList",28,"Frau","rechts","triangle.png","Ich","Nonmatching","Stranger","Stranger","Stranger",5,279,0.279,1
"413",102,4,5,"ExpList",28,"Frau","rechts","circle.png","Fremder","Nonmatching","Self","Self","Self",5,447,0.447,1
"414",102,4,6,"ExpList",28,"Frau","rechts","triangle.png","Ich","Nonmatching","Stranger","Stranger","Stranger",5,535,0.535,1
"415",102,4,7,"ExpList",28,"Frau","rechts","triangle.png","Fremder","Matching","Stranger","Stranger","Stranger",1,479,0.479,1
"416",102,4,8,"ExpList",28,"Frau","rechts","triangle.png","Fremder","Matching","Stranger","Stranger","Stranger",1,540,0.54,1
"417",102,4,9,"ExpList",28,"Frau","rechts","circle.png","Fremder","Nonmatching","Self","Self","Self",5,445,0.445,1
"418",102,4,10,"ExpList",28,"Frau","rechts","triangle.png","Ich","Nonmatching","Stranger","Stranger","Stranger",1,601,0.601,0
"419",102,4,11,"ExpList",28,"Frau","rechts","circle.png","Ich","Matching","Self","Self","Self",1,484,0.484,1
"420",102,4,12,"ExpList",28,"Frau","rechts","circle.png","Fremder","Nonmatching","Self","Self","Self",5,488,0.488,1
"421",102,4,13,"ExpList",28,"Frau","rechts","triangle.png","Fremder","Matching","Stranger","Stranger","Stranger",1,489,0.489,1
"422",102,4,14,"ExpList",28,"Frau","rechts","triangle.png","Ich","Nonmatching","Stranger","Stranger","Stranger",5,386,0.386,1
"423",102,4,15,"ExpList",28,"Frau","rechts","triangle.png","Fremder","Matching","Stranger","Stranger","Stranger",1,515,0.515,1
"424",102,4,16,"ExpList",28,"Frau","rechts","circle.png","Ich","Matching","Self","Self","Self",1,402,0.402,1
"425",102,4,17,"ExpList",28,"Frau","rechts","triangle.png","Ich","Nonmatching","Stranger","Stranger","Stranger",5,465,0.465,1
"426",102,4,18,"ExpList",28,"Frau","rechts","triangle.png","Ich","Nonmatching","Stranger","Stranger","Stranger",5,538,0.538,1
"427",102,4,19,"ExpList",28,"Frau","rechts","triangle.png","Ich","Nonmatching","Stranger","Stranger","Stranger",5,489,0.489,1
"428",102,4,20,"ExpList",28,"Frau","rechts","circle.png","Ich","Matching","Self","Self","Self",1,405,0.405,1
"429",102,4,21,"ExpList",28,"Frau","rechts","triangle.png","Fremder","Matching","Stranger","Stranger","Stranger",1,623,0.623,1
"430",102,4,22,"ExpList",28,"Frau","rechts","triangle.png","Ich","Nonmatching","Stranger","Stranger","Stranger",5,423,0.423,1
"431",102,4,23,"ExpList",28,"Frau","rechts","triangle.png","Fremder","Matching","Stranger","Stranger","Stranger",1,490,0.49,1
"432",102,4,24,"ExpList",28,"Frau","rechts","circle.png","Ich","Matching","Self","Self","Self",1,462,0.462,1
"433",102,4,25,"ExpList",28,"Frau","rechts","circle.png","Fremder","Nonmatching","Self","Self","Self",5,412,0.412,1
"434",102,4,26,"ExpList",28,"Frau","rechts","circle.png","Ich","Matching","Self","Self","Self",1,375,0.375,1
"435",102,4,27,"ExpList",28,"Frau","rechts","triangle.png","Fremder","Matching","Stranger","Stranger","Stranger",1,441,0.441,1
"436",102,4,28,"ExpList",28,"Frau","rechts","circle.png","Fremder","Nonmatching","Self","Self","Self",5,467,0.467,1
"437",102,4,29,"ExpList",28,"Frau","rechts","circle.png","Ich","Matching","Self","Self","Self",1,411,0.411,1
"438",102,4,30,"ExpList",28,"Frau","rechts","triangle.png","Fremder","Matching","Stranger","Stranger","Stranger",1,468,0.468,1
"439",102,4,31,"ExpList",28,"Frau","rechts","triangle.png","Ich","Nonmatching","Stranger","Stranger","Stranger",5,627,0.627,1
"440",102,4,32,"ExpList",28,"Frau","rechts","circle.png","Fremder","Nonmatching","Self","Self","Self",1,387,0.387,0
"441",102,4,33,"ExpList",28,"Frau","rechts","circle.png","Fremder","Nonmatching","Self","Self","Self",5,668,0.668,1
"442",102,4,34,"ExpList",28,"Frau","rechts","triangle.png","Fremder","Matching","Stranger","Stranger","Stranger",1,633,0.633,1
"443",102,4,35,"ExpList",28,"Frau","rechts","circle.png","Fremder","Nonmatching","Self","Self","Self",5,545,0.545,1
"444",102,4,36,"ExpList",28,"Frau","rechts","circle.png","Fremder","Nonmatching","Self","Self","Self",5,713,0.713,1
"445",102,4,37,"ExpList",28,"Frau","rechts","circle.png","Fremder","Nonmatching","Self","Self","Self",5,708,0.708,1
"446",102,4,38,"ExpList",28,"Frau","rechts","triangle.png","Fremder","Matching","Stranger","Stranger","Stranger",1,551,0.551,1
"447",102,4,39,"ExpList",28,"Frau","rechts","circle.png","Ich","Matching","Self","Self","Self",1,440,0.44,1
"448",102,4,40,"ExpList",28,"Frau","rechts","circle.png","Fremder","Nonmatching","Self","Self","Self",5,579,0.579,1
"449",102,4,41,"ExpList",28,"Frau","rechts","circle.png","Fremder","Nonmatching","Self","Self","Self",5,584,0.584,1
"450",102,4,42,"ExpList",28,"Frau","rechts","triangle.png","Ich","Nonmatching","Stranger","Stranger","Stranger",5,594,0.594,1
"451",102,4,43,"ExpList",28,"Frau","rechts","circle.png","Ich","Matching","Self","Self","Self",1,649,0.649,1
"452",102,4,44,"ExpList",28,"Frau","rechts","circle.png","Fremder","Nonmatching","Self","Self","Self",5,553,0.553,1
"453",102,4,45,"ExpList",28,"Frau","rechts","triangle.png","Ich","Nonmatching","Stranger","Stranger","Stranger",5,470,0.47,1
"454",102,4,46,"ExpList",28,"Frau","rechts","circle.png","Ich","Matching","Self","Self","Self",5,600,0.6,0
"455",102,4,47,"ExpList",28,"Frau","rechts","triangle.png","Ich","Nonmatching","Stranger","Stranger","Stranger",5,533,0.533,1
"456",102,4,48,"ExpList",28,"Frau","rechts","circle.png","Ich","Matching","Self","Self","Self",1,641,0.641,1
"457",102,4,49,"ExpList",28,"Frau","rechts","triangle.png","Fremder","Matching","Stranger","Stranger","Stranger",5,373,0.373,0
"458",102,4,50,"ExpList",28,"Frau","rechts","circle.png","Fremder","Nonmatching","Self","Self","Self",5,652,0.652,1
"459",102,4,51,"ExpList",28,"Frau","rechts","triangle.png","Fremder","Matching","Stranger","Stranger","Stranger",1,664,0.664,1
"460",102,4,52,"ExpList",28,"Frau","rechts","circle.png","Fremder","Nonmatching","Self","Self","Self",5,528,0.528,1
"461",102,4,53,"ExpList",28,"Frau","rechts","circle.png","Ich","Matching","Self","Self","Self",1,514,0.514,1
"462",102,4,54,"ExpList",28,"Frau","rechts","triangle.png","Ich","Nonmatching","Stranger","Stranger","Stranger",5,414,0.414,1
"463",102,4,55,"ExpList",28,"Frau","rechts","triangle.png","Ich","Nonmatching","Stranger","Stranger","Stranger",5,415,0.415,1
"464",102,4,56,"ExpList",28,"Frau","rechts","triangle.png","Fremder","Matching","Stranger","Stranger","Stranger",1,379,0.379,1
"465",102,4,57,"ExpList",28,"Frau","rechts","circle.png","Ich","Matching","Self","Self","Self",1,423,0.423,1
"466",102,4,58,"ExpList",28,"Frau","rechts","triangle.png","Fremder","Matching","Stranger","Stranger","Stranger",5,501,0.501,0
"467",102,4,59,"ExpList",28,"Frau","rechts","triangle.png","Ich","Nonmatching","Stranger","Stranger","Stranger",5,442,0.442,1
"468",102,4,60,"ExpList",28,"Frau","rechts","triangle.png","Fremder","Matching","Stranger","Stranger","Stranger",1,505,0.505,1
"469",102,5,1,"ExpList",28,"Frau","rechts","circle.png","Fremder","Nonmatching","Self","Self","Self",5,661,0.661,1
"470",102,5,2,"ExpList",28,"Frau","rechts","circle.png","Ich","Matching","Self","Self","Self",1,393,0.393,1
"471",102,5,3,"ExpList",28,"Frau","rechts","circle.png","Ich","Matching","Self","Self","Self",1,391,0.391,1
"472",102,5,4,"ExpList",28,"Frau","rechts","triangle.png","Ich","Nonmatching","Stranger","Stranger","Stranger",5,392,0.392,1
"473",102,5,5,"ExpList",28,"Frau","rechts","circle.png","Ich","Matching","Self","Self","Self",1,384,0.384,1
"474",102,5,6,"ExpList",28,"Frau","rechts","triangle.png","Fremder","Matching","Stranger","Stranger","Stranger",1,412,0.412,1
"475",102,5,7,"ExpList",28,"Frau","rechts","circle.png","Fremder","Nonmatching","Self","Self","Self",5,482,0.482,1
"476",102,5,8,"ExpList",28,"Frau","rechts","triangle.png","Ich","Nonmatching","Stranger","Stranger","Stranger",5,510,0.51,1
"477",102,5,9,"ExpList",28,"Frau","rechts","triangle.png","Ich","Nonmatching","Stranger","Stranger","Stranger",1,638,0.638,0
"478",102,5,10,"ExpList",28,"Frau","rechts","triangle.png","Fremder","Matching","Stranger","Stranger","Stranger",1,484,0.484,1
"479",102,5,11,"ExpList",28,"Frau","rechts","circle.png","Fremder","Nonmatching","Self","Self","Self",5,595,0.595,1
"480",102,5,12,"ExpList",28,"Frau","rechts","triangle.png","Ich","Nonmatching","Stranger","Stranger","Stranger",5,784,0.784,1
"481",102,5,13,"ExpList",28,"Frau","rechts","circle.png","Fremder","Nonmatching","Self","Self","Self",1,537,0.537,0
"482",102,5,14,"ExpList",28,"Frau","rechts","triangle.png","Fremder","Matching","Stranger","Stranger","Stranger",1,515,0.515,1
"483",102,5,15,"ExpList",28,"Frau","rechts","circle.png","Fremder","Nonmatching","Self","Self","Self",5,639,0.639,1
"484",102,5,16,"ExpList",28,"Frau","rechts","circle.png","Ich","Matching","Self","Self","Self",1,423,0.423,1
"485",102,5,17,"ExpList",28,"Frau","rechts","circle.png","Fremder","Nonmatching","Self","Self","Self",5,481,0.481,1
"486",102,5,18,"ExpList",28,"Frau","rechts","triangle.png","Ich","Nonmatching","Stranger","Stranger","Stranger",5,546,0.546,1
"487",102,5,19,"ExpList",28,"Frau","rechts","circle.png","Ich","Matching","Self","Self","Self",1,396,0.396,1
"488",102,5,20,"ExpList",28,"Frau","rechts","triangle.png","Fremder","Matching","Stranger","Stranger","Stranger",1,474,0.474,1
"489",102,5,21,"ExpList",28,"Frau","rechts","triangle.png","Fremder","Matching","Stranger","Stranger","Stranger",1,569,0.569,1
"490",102,5,22,"ExpList",28,"Frau","rechts","triangle.png","Ich","Nonmatching","Stranger","Stranger","Stranger",5,524,0.524,1
"491",102,5,23,"ExpList",28,"Frau","rechts","circle.png","Fremder","Nonmatching","Self","Self","Self",5,590,0.59,1
"492",102,5,24,"ExpList",28,"Frau","rechts","triangle.png","Fremder","Matching","Stranger","Stranger","Stranger",1,461,0.461,1
"493",102,5,25,"ExpList",28,"Frau","rechts","triangle.png","Fremder","Matching","Stranger","Stranger","Stranger",1,571,0.571,1
"494",102,5,26,"ExpList",28,"Frau","rechts","triangle.png","Fremder","Matching","Stranger","Stranger","Stranger",1,356,0.356,1
"495",102,5,27,"ExpList",28,"Frau","rechts","circle.png","Fremder","Nonmatching","Self","Self","Self",5,438,0.438,1
"496",102,5,28,"ExpList",28,"Frau","rechts","circle.png","Ich","Matching","Self","Self","Self",1,370,0.37,1
"497",102,5,29,"ExpList",28,"Frau","rechts","circle.png","Ich","Matching","Self","Self","Self",1,485,0.485,1
"498",102,5,30,"ExpList",28,"Frau","rechts","triangle.png","Fremder","Matching","Stranger","Stranger","Stranger",1,404,0.404,1
"499",102,5,31,"ExpList",28,"Frau","rechts","triangle.png","Ich","Nonmatching","Stranger","Stranger","Stranger",5,769,0.769,1
"500",102,5,32,"ExpList",28,"Frau","rechts","triangle.png","Ich","Nonmatching","Stranger","Stranger","Stranger",5,509,0.509,1
"501",102,5,33,"ExpList",28,"Frau","rechts","circle.png","Ich","Matching","Self","Self","Self",1,381,0.381,1
"502",102,5,34,"ExpList",28,"Frau","rechts","circle.png","Fremder","Nonmatching","Self","Self","Self",5,489,0.489,1
"503",102,5,35,"ExpList",28,"Frau","rechts","circle.png","Ich","Matching","Self","Self","Self",1,387,0.387,1
"504",102,5,36,"ExpList",28,"Frau","rechts","triangle.png","Ich","Nonmatching","Stranger","Stranger","Stranger",5,430,0.43,1
"505",102,5,37,"ExpList",28,"Frau","rechts","circle.png","Ich","Matching","Self","Self","Self",1,432,0.432,1
"506",102,5,38,"ExpList",28,"Frau","rechts","triangle.png","Fremder","Matching","Stranger","Stranger","Stranger",1,439,0.439,1
"507",102,5,39,"ExpList",28,"Frau","rechts","triangle.png","Ich","Nonmatching","Stranger","Stranger","Stranger",5,511,0.511,1
"508",102,5,40,"ExpList",28,"Frau","rechts","circle.png","Ich","Matching","Self","Self","Self",1,417,0.417,1
"509",102,5,41,"ExpList",28,"Frau","rechts","circle.png","Fremder","Nonmatching","Self","Self","Self",1,404,0.404,0
"510",102,5,42,"ExpList",28,"Frau","rechts","triangle.png","Ich","Nonmatching","Stranger","Stranger","Stranger",5,909,0.909,1
"511",102,5,43,"ExpList",28,"Frau","rechts","circle.png","Fremder","Nonmatching","Self","Self","Self",5,526,0.526,1
"512",102,5,44,"ExpList",28,"Frau","rechts","circle.png","Ich","Matching","Self","Self","Self",1,403,0.403,1
"513",102,5,45,"ExpList",28,"Frau","rechts","triangle.png","Fremder","Matching","Stranger","Stranger","Stranger",1,631,0.631,1
"514",102,5,46,"ExpList",28,"Frau","rechts","circle.png","Ich","Matching","Self","Self","Self",1,525,0.525,1
"515",102,5,47,"ExpList",28,"Frau","rechts","circle.png","Fremder","Nonmatching","Self","Self","Self",5,482,0.482,1
"516",102,5,48,"ExpList",28,"Frau","rechts","triangle.png","Ich","Nonmatching","Stranger","Stranger","Stranger",5,543,0.543,1
"517",102,5,49,"ExpList",28,"Frau","rechts","triangle.png","Fremder","Matching","Stranger","Stranger","Stranger",1,424,0.424,1
"518",102,5,50,"ExpList",28,"Frau","rechts","triangle.png","Fremder","Matching","Stranger","Stranger","Stranger",1,563,0.563,1
"519",102,5,51,"ExpList",28,"Frau","rechts","circle.png","Ich","Matching","Self","Self","Self",1,502,0.502,1
"520",102,5,52,"ExpList",28,"Frau","rechts","triangle.png","Ich","Nonmatching","Stranger","Stranger","Stranger",5,838,0.838,1
"521",102,5,53,"ExpList",28,"Frau","rechts","triangle.png","Fremder","Matching","Stranger","Stranger","Stranger",1,466,0.466,1
"522",102,5,54,"ExpList",28,"Frau","rechts","triangle.png","Fremder","Matching","Stranger","Stranger","Stranger",1,662,0.662,1
"523",102,5,55,"ExpList",28,"Frau","rechts","circle.png","Fremder","Nonmatching","Self","Self","Self",5,535,0.535,1
"524",102,5,56,"ExpList",28,"Frau","rechts","triangle.png","Ich","Nonmatching","Stranger","Stranger","Stranger",5,646,0.646,1
"525",102,5,57,"ExpList",28,"Frau","rechts","circle.png","Ich","Matching","Self","Self","Self",1,412,0.412,1
"526",102,5,58,"ExpList",28,"Frau","rechts","circle.png","Fremder","Nonmatching","Self","Self","Self",5,519,0.519,1
"527",102,5,59,"ExpList",28,"Frau","rechts","circle.png","Fremder","Nonmatching","Self","Self","Self",5,441,0.441,1
"528",102,5,60,"ExpList",28,"Frau","rechts","triangle.png","Ich","Nonmatching","Stranger","Stranger","Stranger",5,729,0.729,1
"529",103,1,1,"TrainList1",22,"Frau","rechts","circle.png","Ich","Matching","Self","Self","Self",5,753,0.753,1
"530",103,1,2,"TrainList1",22,"Frau","rechts","triangle.png","Ich","Nonmatching","Stranger","Stranger","Stranger",1,565,0.565,1
"531",103,1,3,"TrainList1",22,"Frau","rechts","triangle.png","Fremder","Matching","Stranger","Stranger","Stranger",1,418,0.418,0
"532",103,1,4,"TrainList1",22,"Frau","rechts","circle.png","Ich","Matching","Self","Self","Self",5,460,0.46,1
"533",103,1,5,"TrainList1",22,"Frau","rechts","circle.png","Ich","Matching","Self","Self","Self",5,530,0.53,1
"534",103,1,6,"TrainList1",22,"Frau","rechts","circle.png","Fremder","Nonmatching","Self","Self","Self",1,485,0.485,1
"535",103,1,7,"TrainList1",22,"Frau","rechts","triangle.png","Ich","Nonmatching","Stranger","Stranger","Stranger",1,693,0.693,1
"536",103,1,8,"TrainList1",22,"Frau","rechts","circle.png","Fremder","Nonmatching","Self","Self","Self",1,636,0.636,1
"537",103,1,9,"TrainList1",22,"Frau","rechts","circle.png","Ich","Matching","Self","Self","Self",5,516,0.516,1
"538",103,1,10,"TrainList1",22,"Frau","rechts","circle.png","Ich","Matching","Self","Self","Self",5,427,0.427,1
"539",103,1,11,"TrainList1",22,"Frau","rechts","triangle.png","Ich","Nonmatching","Stranger","Stranger","Stranger",1,625,0.625,1
"540",103,1,12,"TrainList1",22,"Frau","rechts","triangle.png","Fremder","Matching","Stranger","Stranger","Stranger",5,517,0.517,1
"541",103,1,13,"TrainList1",22,"Frau","rechts","circle.png","Fremder","Nonmatching","Self","Self","Self",1,604,0.604,1
"542",103,1,14,"TrainList1",22,"Frau","rechts","circle.png","Fremder","Nonmatching","Self","Self","Self",1,578,0.578,1
"543",103,1,15,"TrainList1",22,"Frau","rechts","triangle.png","Ich","Nonmatching","Stranger","Stranger","Stranger",1,536,0.536,1
"544",103,1,16,"TrainList1",22,"Frau","rechts","circle.png","Fremder","Nonmatching","Self","Self","Self",1,507,0.507,1
"545",103,1,17,"TrainList1",22,"Frau","rechts","triangle.png","Ich","Nonmatching","Stranger","Stranger","Stranger",1,440,0.44,1
"546",103,1,18,"TrainList1",22,"Frau","rechts","circle.png","Fremder","Nonmatching","Self","Self","Self",1,544,0.544,1
"547",103,1,19,"TrainList1",22,"Frau","rechts","triangle.png","Fremder","Matching","Stranger","Stranger","Stranger",5,617,0.617,1
"548",103,1,20,"TrainList1",22,"Frau","rechts","triangle.png","Fremder","Matching","Stranger","Stranger","Stranger",5,525,0.525,1
"549",103,1,21,"TrainList1",22,"Frau","rechts","triangle.png","Fremder","Matching","Stranger","Stranger","Stranger",5,401,0.401,1
"550",103,1,22,"TrainList1",22,"Frau","rechts","triangle.png","Ich","Nonmatching","Stranger","Stranger","Stranger",1,398,0.398,1
"551",103,1,23,"TrainList1",22,"Frau","rechts","triangle.png","Fremder","Matching","Stranger","Stranger","Stranger",5,689,0.689,1
"552",103,1,24,"TrainList1",22,"Frau","rechts","circle.png","Ich","Matching","Self","Self","Self",5,372,0.372,1
"553",103,2,1,"ExpList",22,"Frau","rechts","triangle.png","Ich","Nonmatching","Stranger","Stranger","Stranger",1,468,0.468,1
"554",103,2,2,"ExpList",22,"Frau","rechts","circle.png","Fremder","Nonmatching","Self","Self","Self",1,541,0.541,1
"555",103,2,3,"ExpList",22,"Frau","rechts","triangle.png","Fremder","Matching","Stranger","Stranger","Stranger",5,398,0.398,1
"556",103,2,4,"ExpList",22,"Frau","rechts","triangle.png","Fremder","Matching","Stranger","Stranger","Stranger",5,359,0.359,1
"557",103,2,5,"ExpList",22,"Frau","rechts","circle.png","Ich","Matching","Self","Self","Self",5,394,0.394,1
"558",103,2,6,"ExpList",22,"Frau","rechts","triangle.png","Ich","Nonmatching","Stranger","Stranger","Stranger",1,387,0.387,1
"559",103,2,7,"ExpList",22,"Frau","rechts","circle.png","Ich","Matching","Self","Self","Self",5,411,0.411,1
"560",103,2,8,"ExpList",22,"Frau","rechts","circle.png","Fremder","Nonmatching","Self","Self","Self",1,465,0.465,1
"561",103,2,9,"ExpList",22,"Frau","rechts","circle.png","Fremder","Nonmatching","Self","Self","Self",1,515,0.515,1
"562",103,2,10,"ExpList",22,"Frau","rechts","triangle.png","Ich","Nonmatching","Stranger","Stranger","Stranger",5,430,0.43,0
"563",103,2,11,"ExpList",22,"Frau","rechts","circle.png","Ich","Matching","Self","Self","Self",5,450,0.45,1
"564",103,2,12,"ExpList",22,"Frau","rechts","triangle.png","Ich","Nonmatching","Stranger","Stranger","Stranger",1,403,0.403,1
"565",103,2,13,"ExpList",22,"Frau","rechts","triangle.png","Ich","Nonmatching","Stranger","Stranger","Stranger",1,471,0.471,1
"566",103,2,14,"ExpList",22,"Frau","rechts","circle.png","Ich","Matching","Self","Self","Self",5,397,0.397,1
"567",103,2,15,"ExpList",22,"Frau","rechts","triangle.png","Ich","Nonmatching","Stranger","Stranger","Stranger",1,437,0.437,1
"568",103,2,16,"ExpList",22,"Frau","rechts","triangle.png","Ich","Nonmatching","Stranger","Stranger","Stranger",1,389,0.389,1
"569",103,2,17,"ExpList",22,"Frau","rechts","triangle.png","Fremder","Matching","Stranger","Stranger","Stranger",5,590,0.59,1
"570",103,2,18,"ExpList",22,"Frau","rechts","circle.png","Fremder","Nonmatching","Self","Self","Self",1,508,0.508,1
"571",103,2,19,"ExpList",22,"Frau","rechts","triangle.png","Fremder","Matching","Stranger","Stranger","Stranger",5,533,0.533,1
"572",103,2,20,"ExpList",22,"Frau","rechts","triangle.png","Fremder","Matching","Stranger","Stranger","Stranger",5,493,0.493,1
"573",103,2,21,"ExpList",22,"Frau","rechts","circle.png","Fremder","Nonmatching","Self","Self","Self",1,454,0.454,1
"574",103,2,22,"ExpList",22,"Frau","rechts","circle.png","Ich","Matching","Self","Self","Self",5,333,0.333,1
"575",103,2,23,"ExpList",22,"Frau","rechts","triangle.png","Fremder","Matching","Stranger","Stranger","Stranger",5,475,0.475,1
"576",103,2,24,"ExpList",22,"Frau","rechts","circle.png","Fremder","Nonmatching","Self","Self","Self",1,457,0.457,1
"577",103,2,25,"ExpList",22,"Frau","rechts","triangle.png","Fremder","Matching","Stranger","Stranger","Stranger",5,459,0.459,1
"578",103,2,26,"ExpList",22,"Frau","rechts","triangle.png","Fremder","Matching","Stranger","Stranger","Stranger",5,418,0.418,1
"579",103,2,27,"ExpList",22,"Frau","rechts","circle.png","Ich","Matching","Self","Self","Self",5,410,0.41,1
"580",103,2,28,"ExpList",22,"Frau","rechts","triangle.png","Ich","Nonmatching","Stranger","Stranger","Stranger",1,575,0.575,1
"581",103,2,29,"ExpList",22,"Frau","rechts","circle.png","Ich","Matching","Self","Self","Self",5,496,0.496,1
"582",103,2,30,"ExpList",22,"Frau","rechts","triangle.png","Fremder","Matching","Stranger","Stranger","Stranger",5,438,0.438,1
"583",103,2,31,"ExpList",22,"Frau","rechts","triangle.png","Ich","Nonmatching","Stranger","Stranger","Stranger",1,473,0.473,1
"584",103,2,32,"ExpList",22,"Frau","rechts","circle.png","Ich","Matching","Self","Self","Self",5,431,0.431,1
"585",103,2,33,"ExpList",22,"Frau","rechts","triangle.png","Fremder","Matching","Stranger","Stranger","Stranger",5,423,0.423,1
"586",103,2,34,"ExpList",22,"Frau","rechts","circle.png","Ich","Matching","Self","Self","Self",5,295,0.295,1
"587",103,2,35,"ExpList",22,"Frau","rechts","triangle.png","Ich","Nonmatching","Stranger","Stranger","Stranger",1,460,0.46,1
"588",103,2,36,"ExpList",22,"Frau","rechts","triangle.png","Fremder","Matching","Stranger","Stranger","Stranger",5,352,0.352,1
"589",103,2,37,"ExpList",22,"Frau","rechts","circle.png","Fremder","Nonmatching","Self","Self","Self",1,440,0.44,1
"590",103,2,38,"ExpList",22,"Frau","rechts","circle.png","Ich","Matching","Self","Self","Self",5,342,0.342,1
"591",103,2,39,"ExpList",22,"Frau","rechts","circle.png","Fremder","Nonmatching","Self","Self","Self",1,488,0.488,1
"592",103,2,40,"ExpList",22,"Frau","rechts","triangle.png","Ich","Nonmatching","Stranger","Stranger","Stranger",1,527,0.527,1
"593",103,2,41,"ExpList",22,"Frau","rechts","triangle.png","Fremder","Matching","Stranger","Stranger","Stranger",5,535,0.535,1
"594",103,2,42,"ExpList",22,"Frau","rechts","circle.png","Ich","Matching","Self","Self","Self",5,374,0.374,1
"595",103,2,43,"ExpList",22,"Frau","rechts","circle.png","Ich","Matching","Self","Self","Self",5,335,0.335,1
"596",103,2,44,"ExpList",22,"Frau","rechts","triangle.png","Ich","Nonmatching","Stranger","Stranger","Stranger",1,424,0.424,1
"597",103,2,45,"ExpList",22,"Frau","rechts","circle.png","Ich","Matching","Self","Self","Self",5,429,0.429,1
"598",103,2,46,"ExpList",22,"Frau","rechts","circle.png","Fremder","Nonmatching","Self","Self","Self",1,526,0.526,1
"599",103,2,47,"ExpList",22,"Frau","rechts","triangle.png","Fremder","Matching","Stranger","Stranger","Stranger",5,377,0.377,1
"600",103,2,48,"ExpList",22,"Frau","rechts","circle.png","Ich","Matching","Self","Self","Self",5,398,0.398,1
"601",103,2,49,"ExpList",22,"Frau","rechts","circle.png","Fremder","Nonmatching","Self","Self","Self",1,701,0.701,1
"602",103,2,50,"ExpList",22,"Frau","rechts","triangle.png","Ich","Nonmatching","Stranger","Stranger","Stranger",1,477,0.477,1
"603",103,2,51,"ExpList",22,"Frau","rechts","circle.png","Fremder","Nonmatching","Self","Self","Self",1,605,0.605,1
"604",103,2,52,"ExpList",22,"Frau","rechts","circle.png","Ich","Matching","Self","Self","Self",5,326,0.326,1
"605",103,2,53,"ExpList",22,"Frau","rechts","circle.png","Fremder","Nonmatching","Self","Self","Self",1,476,0.476,1
"606",103,2,54,"ExpList",22,"Frau","rechts","triangle.png","Ich","Nonmatching","Stranger","Stranger","Stranger",1,457,0.457,1
"607",103,2,55,"ExpList",22,"Frau","rechts","triangle.png","Ich","Nonmatching","Stranger","Stranger","Stranger",1,415,0.415,1
"608",103,2,56,"ExpList",22,"Frau","rechts","triangle.png","Fremder","Matching","Stranger","Stranger","Stranger",5,556,0.556,1
"609",103,2,57,"ExpList",22,"Frau","rechts","circle.png","Fremder","Nonmatching","Self","Self","Self",1,474,0.474,1
"610",103,2,58,"ExpList",22,"Frau","rechts","circle.png","Fremder","Nonmatching","Self","Self","Self",1,507,0.507,1
"611",103,2,59,"ExpList",22,"Frau","rechts","circle.png","Fremder","Nonmatching","Self","Self","Self",1,462,0.462,1
"612",103,2,60,"ExpList",22,"Frau","rechts","triangle.png","Fremder","Matching","Stranger","Stranger","Stranger",5,499,0.499,1
"613",103,3,1,"ExpList",22,"Frau","rechts","triangle.png","Ich","Nonmatching","Stranger","Stranger","Stranger",1,371,0.371,1
"614",103,3,2,"ExpList",22,"Frau","rechts","circle.png","Fremder","Nonmatching","Self","Self","Self",1,522,0.522,1
"615",103,3,3,"ExpList",22,"Frau","rechts","circle.png","Ich","Matching","Self","Self","Self",5,424,0.424,1
"616",103,3,4,"ExpList",22,"Frau","rechts","triangle.png","Fremder","Matching","Stranger","Stranger","Stranger",5,316,0.316,1
"617",103,3,5,"ExpList",22,"Frau","rechts","circle.png","Fremder","Nonmatching","Self","Self","Self",1,482,0.482,1
"618",103,3,6,"ExpList",22,"Frau","rechts","triangle.png","Fremder","Matching","Stranger","Stranger","Stranger",5,467,0.467,1
"619",103,3,7,"ExpList",22,"Frau","rechts","triangle.png","Fremder","Matching","Stranger","Stranger","Stranger",5,415,0.415,1
"620",103,3,8,"ExpList",22,"Frau","rechts","triangle.png","Ich","Nonmatching","Stranger","Stranger","Stranger",1,517,0.517,1
"621",103,3,9,"ExpList",22,"Frau","rechts","circle.png","Fremder","Nonmatching","Self","Self","Self",1,450,0.45,1
"622",103,3,10,"ExpList",22,"Frau","rechts","circle.png","Ich","Matching","Self","Self","Self",5,330,0.33,1
"623",103,3,11,"ExpList",22,"Frau","rechts","triangle.png","Ich","Nonmatching","Stranger","Stranger","Stranger",1,321,0.321,1
"624",103,3,12,"ExpList",22,"Frau","rechts","triangle.png","Ich","Nonmatching","Stranger","Stranger","Stranger",1,386,0.386,1
"625",103,3,13,"ExpList",22,"Frau","rechts","circle.png","Ich","Matching","Self","Self","Self",5,453,0.453,1
"626",103,3,14,"ExpList",22,"Frau","rechts","circle.png","Fremder","Nonmatching","Self","Self","Self",1,467,0.467,1
"627",103,3,15,"ExpList",22,"Frau","rechts","triangle.png","Fremder","Matching","Stranger","Stranger","Stranger",5,453,0.453,1
"628",103,3,16,"ExpList",22,"Frau","rechts","triangle.png","Ich","Nonmatching","Stranger","Stranger","Stranger",1,392,0.392,1
"629",103,3,17,"ExpList",22,"Frau","rechts","triangle.png","Ich","Nonmatching","Stranger","Stranger","Stranger",1,373,0.373,1
"630",103,3,18,"ExpList",22,"Frau","rechts","circle.png","Fremder","Nonmatching","Self","Self","Self",1,525,0.525,1
"631",103,3,19,"ExpList",22,"Frau","rechts","triangle.png","Fremder","Matching","Stranger","Stranger","Stranger",1,330,0.33,0
"632",103,3,20,"ExpList",22,"Frau","rechts","triangle.png","Ich","Nonmatching","Stranger","Stranger","Stranger",1,437,0.437,1
"633",103,3,21,"ExpList",22,"Frau","rechts","circle.png","Fremder","Nonmatching","Self","Self","Self",1,502,0.502,1
"634",103,3,22,"ExpList",22,"Frau","rechts","circle.png","Ich","Matching","Self","Self","Self",5,400,0.4,1
"635",103,3,23,"ExpList",22,"Frau","rechts","circle.png","Ich","Matching","Self","Self","Self",5,407,0.407,1
"636",103,3,24,"ExpList",22,"Frau","rechts","triangle.png","Fremder","Matching","Stranger","Stranger","Stranger",5,439,0.439,1
"637",103,3,25,"ExpList",22,"Frau","rechts","triangle.png","Ich","Nonmatching","Stranger","Stranger","Stranger",1,434,0.434,1
"638",103,3,26,"ExpList",22,"Frau","rechts","circle.png","Ich","Matching","Self","Self","Self",5,401,0.401,1
"639",103,3,27,"ExpList",22,"Frau","rechts","circle.png","Ich","Matching","Self","Self","Self",5,383,0.383,1
"640",103,3,28,"ExpList",22,"Frau","rechts","triangle.png","Fremder","Matching","Stranger","Stranger","Stranger",5,420,0.42,1
"641",103,3,29,"ExpList",22,"Frau","rechts","circle.png","Fremder","Nonmatching","Self","Self","Self",1,515,0.515,1
"642",103,3,30,"ExpList",22,"Frau","rechts","triangle.png","Fremder","Matching","Stranger","Stranger","Stranger",5,434,0.434,1
"643",103,3,31,"ExpList",22,"Frau","rechts","triangle.png","Ich","Nonmatching","Stranger","Stranger","Stranger",1,464,0.464,1
"644",103,3,32,"ExpList",22,"Frau","rechts","triangle.png","Ich","Nonmatching","Stranger","Stranger","Stranger",1,478,0.478,1
"645",103,3,33,"ExpList",22,"Frau","rechts","circle.png","Ich","Matching","Self","Self","Self",5,434,0.434,1
"646",103,3,34,"ExpList",22,"Frau","rechts","triangle.png","Ich","Nonmatching","Stranger","Stranger","Stranger",1,419,0.419,1
"647",103,3,35,"ExpList",22,"Frau","rechts","triangle.png","Ich","Nonmatching","Stranger","Stranger","Stranger",1,420,0.42,1
"648",103,3,36,"ExpList",22,"Frau","rechts","triangle.png","Fremder","Matching","Stranger","Stranger","Stranger",5,571,0.571,1
"649",103,3,37,"ExpList",22,"Frau","rechts","circle.png","Ich","Matching","Self","Self","Self",5,427,0.427,1
"650",103,3,38,"ExpList",22,"Frau","rechts","triangle.png","Ich","Nonmatching","Stranger","Stranger","Stranger",1,402,0.402,1
"651",103,3,39,"ExpList",22,"Frau","rechts","circle.png","Fremder","Nonmatching","Self","Self","Self",1,545,0.545,1
"652",103,3,40,"ExpList",22,"Frau","rechts","triangle.png","Fremder","Matching","Stranger","Stranger","Stranger",5,775,0.775,1
"653",103,3,41,"ExpList",22,"Frau","rechts","triangle.png","Ich","Nonmatching","Stranger","Stranger","Stranger",1,410,0.41,1
"654",103,3,42,"ExpList",22,"Frau","rechts","circle.png","Fremder","Nonmatching","Self","Self","Self",1,502,0.502,1
"655",103,3,43,"ExpList",22,"Frau","rechts","circle.png","Ich","Matching","Self","Self","Self",5,504,0.504,1
"656",103,3,44,"ExpList",22,"Frau","rechts","circle.png","Ich","Matching","Self","Self","Self",5,495,0.495,1
"657",103,3,45,"ExpList",22,"Frau","rechts","triangle.png","Fremder","Matching","Stranger","Stranger","Stranger",5,456,0.456,1
"658",103,3,46,"ExpList",22,"Frau","rechts","circle.png","Fremder","Nonmatching","Self","Self","Self",1,380,0.38,1
"659",103,3,47,"ExpList",22,"Frau","rechts","circle.png","Fremder","Nonmatching","Self","Self","Self",1,476,0.476,1
"660",103,3,48,"ExpList",22,"Frau","rechts","circle.png","Fremder","Nonmatching","Self","Self","Self",1,412,0.412,1
"661",103,3,49,"ExpList",22,"Frau","rechts","triangle.png","Fremder","Matching","Stranger","Stranger","Stranger",5,489,0.489,1
"662",103,3,50,"ExpList",22,"Frau","rechts","circle.png","Fremder","Nonmatching","Self","Self","Self",1,372,0.372,1
"663",103,3,51,"ExpList",22,"Frau","rechts","circle.png","Fremder","Nonmatching","Self","Self","Self",1,388,0.388,1
"664",103,3,52,"ExpList",22,"Frau","rechts","circle.png","Ich","Matching","Self","Self","Self",5,423,0.423,1
"665",103,3,53,"ExpList",22,"Frau","rechts","triangle.png","Fremder","Matching","Stranger","Stranger","Stranger",5,474,0.474,1
"666",103,3,54,"ExpList",22,"Frau","rechts","circle.png","Ich","Matching","Self","Self","Self",5,371,0.371,1
"667",103,3,55,"ExpList",22,"Frau","rechts","triangle.png","Ich","Nonmatching","Stranger","Stranger","Stranger",1,404,0.404,1
"668",103,3,56,"ExpList",22,"Frau","rechts","circle.png","Ich","Matching","Self","Self","Self",5,447,0.447,1
"669",103,3,57,"ExpList",22,"Frau","rechts","triangle.png","Fremder","Matching","Stranger","Stranger","Stranger",5,435,0.435,1
"670",103,3,58,"ExpList",22,"Frau","rechts","circle.png","Ich","Matching","Self","Self","Self",5,343,0.343,1
"671",103,3,59,"ExpList",22,"Frau","rechts","circle.png","Fremder","Nonmatching","Self","Self","Self",1,495,0.495,1
"672",103,3,60,"ExpList",22,"Frau","rechts","triangle.png","Fremder","Matching","Stranger","Stranger","Stranger",5,415,0.415,1
"673",103,4,1,"ExpList",22,"Frau","rechts","triangle.png","Fremder","Matching","Stranger","Stranger","Stranger",5,371,0.371,1
"674",103,4,2,"ExpList",22,"Frau","rechts","triangle.png","Fremder","Matching","Stranger","Stranger","Stranger",5,391,0.391,1
"675",103,4,3,"ExpList",22,"Frau","rechts","triangle.png","Fremder","Matching","Stranger","Stranger","Stranger",5,349,0.349,1
"676",103,4,4,"ExpList",22,"Frau","rechts","circle.png","Fremder","Nonmatching","Self","Self","Self",1,537,0.537,1
"677",103,4,5,"ExpList",22,"Frau","rechts","circle.png","Ich","Matching","Self","Self","Self",5,395,0.395,1
"678",103,4,6,"ExpList",22,"Frau","rechts","circle.png","Ich","Matching","Self","Self","Self",5,322,0.322,1
"679",103,4,7,"ExpList",22,"Frau","rechts","triangle.png","Fremder","Matching","Stranger","Stranger","Stranger",5,416,0.416,1
"680",103,4,8,"ExpList",22,"Frau","rechts","triangle.png","Ich","Nonmatching","Stranger","Stranger","Stranger",1,442,0.442,1
"681",103,4,9,"ExpList",22,"Frau","rechts","triangle.png","Fremder","Matching","Stranger","Stranger","Stranger",5,413,0.413,1
"682",103,4,10,"ExpList",22,"Frau","rechts","circle.png","Ich","Matching","Self","Self","Self",5,417,0.417,1
"683",103,4,11,"ExpList",22,"Frau","rechts","triangle.png","Fremder","Matching","Stranger","Stranger","Stranger",5,398,0.398,1
"684",103,4,12,"ExpList",22,"Frau","rechts","triangle.png","Ich","Nonmatching","Stranger","Stranger","Stranger",1,398,0.398,1
"685",103,4,13,"ExpList",22,"Frau","rechts","triangle.png","Fremder","Matching","Stranger","Stranger","Stranger",1,271,0.271,0
"686",103,4,14,"ExpList",22,"Frau","rechts","circle.png","Ich","Matching","Self","Self","Self",5,401,0.401,1
"687",103,4,15,"ExpList",22,"Frau","rechts","triangle.png","Ich","Nonmatching","Stranger","Stranger","Stranger",1,416,0.416,1
"688",103,4,16,"ExpList",22,"Frau","rechts","circle.png","Ich","Matching","Self","Self","Self",5,388,0.388,1
"689",103,4,17,"ExpList",22,"Frau","rechts","circle.png","Ich","Matching","Self","Self","Self",5,353,0.353,1
"690",103,4,18,"ExpList",22,"Frau","rechts","triangle.png","Ich","Nonmatching","Stranger","Stranger","Stranger",1,450,0.45,1
"691",103,4,19,"ExpList",22,"Frau","rechts","triangle.png","Fremder","Matching","Stranger","Stranger","Stranger",5,569,0.569,1
"692",103,4,20,"ExpList",22,"Frau","rechts","circle.png","Ich","Matching","Self","Self","Self",5,432,0.432,1
"693",103,4,21,"ExpList",22,"Frau","rechts","circle.png","Fremder","Nonmatching","Self","Self","Self",1,524,0.524,1
"694",103,4,22,"ExpList",22,"Frau","rechts","triangle.png","Fremder","Matching","Stranger","Stranger","Stranger",5,730,0.73,1
"695",103,4,23,"ExpList",22,"Frau","rechts","circle.png","Fremder","Nonmatching","Self","Self","Self",1,458,0.458,1
"696",103,4,24,"ExpList",22,"Frau","rechts","circle.png","Fremder","Nonmatching","Self","Self","Self",1,504,0.504,1
"697",103,4,25,"ExpList",22,"Frau","rechts","triangle.png","Fremder","Matching","Stranger","Stranger","Stranger",5,469,0.469,1
"698",103,4,26,"ExpList",22,"Frau","rechts","circle.png","Fremder","Nonmatching","Self","Self","Self",1,451,0.451,1
"699",103,4,27,"ExpList",22,"Frau","rechts","circle.png","Fremder","Nonmatching","Self","Self","Self",1,459,0.459,1
"700",103,4,28,"ExpList",22,"Frau","rechts","circle.png","Ich","Matching","Self","Self","Self",5,435,0.435,1
"701",103,4,29,"ExpList",22,"Frau","rechts","triangle.png","Ich","Nonmatching","Stranger","Stranger","Stranger",1,427,0.427,1
"702",103,4,30,"ExpList",22,"Frau","rechts","circle.png","Fremder","Nonmatching","Self","Self","Self",1,433,0.433,1
"703",103,4,31,"ExpList",22,"Frau","rechts","triangle.png","Ich","Nonmatching","Stranger","Stranger","Stranger",1,430,0.43,1
"704",103,4,32,"ExpList",22,"Frau","rechts","circle.png","Ich","Matching","Self","Self","Self",5,351,0.351,1
"705",103,4,33,"ExpList",22,"Frau","rechts","triangle.png","Ich","Nonmatching","Stranger","Stranger","Stranger",1,451,0.451,1
"706",103,4,34,"ExpList",22,"Frau","rechts","circle.png","Ich","Matching","Self","Self","Self",5,374,0.374,1
"707",103,4,35,"ExpList",22,"Frau","rechts","triangle.png","Fremder","Matching","Stranger","Stranger","Stranger",5,591,0.591,1
"708",103,4,36,"ExpList",22,"Frau","rechts","triangle.png","Fremder","Matching","Stranger","Stranger","Stranger",5,460,0.46,1
"709",103,4,37,"ExpList",22,"Frau","rechts","circle.png","Fremder","Nonmatching","Self","Self","Self",1,431,0.431,1
"710",103,4,38,"ExpList",22,"Frau","rechts","circle.png","Ich","Matching","Self","Self","Self",5,405,0.405,1
"711",103,4,39,"ExpList",22,"Frau","rechts","circle.png","Ich","Matching","Self","Self","Self",5,345,0.345,1
"712",103,4,40,"ExpList",22,"Frau","rechts","triangle.png","Ich","Nonmatching","Stranger","Stranger","Stranger",1,497,0.497,1
"713",103,4,41,"ExpList",22,"Frau","rechts","circle.png","Ich","Matching","Self","Self","Self",5,443,0.443,1
"714",103,4,42,"ExpList",22,"Frau","rechts","triangle.png","Ich","Nonmatching","Stranger","Stranger","Stranger",1,429,0.429,1
"715",103,4,43,"ExpList",22,"Frau","rechts","triangle.png","Fremder","Matching","Stranger","Stranger","Stranger",5,498,0.498,1
"716",103,4,44,"ExpList",22,"Frau","rechts","circle.png","Fremder","Nonmatching","Self","Self","Self",1,376,0.376,1
"717",103,4,45,"ExpList",22,"Frau","rechts","circle.png","Ich","Matching","Self","Self","Self",5,387,0.387,1
"718",103,4,46,"ExpList",22,"Frau","rechts","circle.png","Fremder","Nonmatching","Self","Self","Self",1,330,0.33,1
"719",103,4,47,"ExpList",22,"Frau","rechts","triangle.png","Ich","Nonmatching","Stranger","Stranger","Stranger",1,421,0.421,1
"720",103,4,48,"ExpList",22,"Frau","rechts","triangle.png","Ich","Nonmatching","Stranger","Stranger","Stranger",1,437,0.437,1
"721",103,4,49,"ExpList",22,"Frau","rechts","triangle.png","Fremder","Matching","Stranger","Stranger","Stranger",1,360,0.36,0
"722",103,4,50,"ExpList",22,"Frau","rechts","circle.png","Fremder","Nonmatching","Self","Self","Self",1,578,0.578,1
"723",103,4,51,"ExpList",22,"Frau","rechts","triangle.png","Ich","Nonmatching","Stranger","Stranger","Stranger",1,510,0.51,1
"724",103,4,52,"ExpList",22,"Frau","rechts","circle.png","Fremder","Nonmatching","Self","Self","Self",1,655,0.655,1
"725",103,4,53,"ExpList",22,"Frau","rechts","circle.png","Ich","Matching","Self","Self","Self",5,379,0.379,1
"726",103,4,54,"ExpList",22,"Frau","rechts","triangle.png","Ich","Nonmatching","Stranger","Stranger","Stranger",1,454,0.454,1
"727",103,4,55,"ExpList",22,"Frau","rechts","circle.png","Fremder","Nonmatching","Self","Self","Self",1,543,0.543,1
"728",103,4,56,"ExpList",22,"Frau","rechts","circle.png","Fremder","Nonmatching","Self","Self","Self",1,427,0.427,1
"729",103,4,57,"ExpList",22,"Frau","rechts","triangle.png","Fremder","Matching","Stranger","Stranger","Stranger",5,457,0.457,1
"730",103,4,58,"ExpList",22,"Frau","rechts","circle.png","Fremder","Nonmatching","Self","Self","Self",1,436,0.436,1
"731",103,4,59,"ExpList",22,"Frau","rechts","triangle.png","Ich","Nonmatching","Stranger","Stranger","Stranger",1,447,0.447,1
"732",103,4,60,"ExpList",22,"Frau","rechts","triangle.png","Ich","Nonmatching","Stranger","Stranger","Stranger",1,381,0.381,1
"733",103,5,1,"ExpList",22,"Frau","rechts","triangle.png","Ich","Nonmatching","Stranger","Stranger","Stranger",1,466,0.466,1
"734",103,5,2,"ExpList",22,"Frau","rechts","circle.png","Fremder","Nonmatching","Self","Self","Self",1,678,0.678,1
"735",103,5,3,"ExpList",22,"Frau","rechts","triangle.png","Fremder","Matching","Stranger","Stranger","Stranger",5,456,0.456,1
"736",103,5,4,"ExpList",22,"Frau","rechts","triangle.png","Ich","Nonmatching","Stranger","Stranger","Stranger",1,360,0.36,1
"737",103,5,5,"ExpList",22,"Frau","rechts","triangle.png","Fremder","Matching","Stranger","Stranger","Stranger",5,404,0.404,1
"738",103,5,6,"ExpList",22,"Frau","rechts","circle.png","Ich","Matching","Self","Self","Self",5,386,0.386,1
"739",103,5,7,"ExpList",22,"Frau","rechts","triangle.png","Fremder","Matching","Stranger","Stranger","Stranger",5,353,0.353,1
"740",103,5,8,"ExpList",22,"Frau","rechts","triangle.png","Ich","Nonmatching","Stranger","Stranger","Stranger",1,370,0.37,1
"741",103,5,9,"ExpList",22,"Frau","rechts","triangle.png","Fremder","Matching","Stranger","Stranger","Stranger",5,432,0.432,1
"742",103,5,10,"ExpList",22,"Frau","rechts","circle.png","Fremder","Nonmatching","Self","Self","Self",1,417,0.417,1
"743",103,5,11,"ExpList",22,"Frau","rechts","triangle.png","Fremder","Matching","Stranger","Stranger","Stranger",5,376,0.376,1
"744",103,5,12,"ExpList",22,"Frau","rechts","circle.png","Fremder","Nonmatching","Self","Self","Self",1,394,0.394,1
"745",103,5,13,"ExpList",22,"Frau","rechts","circle.png","Ich","Matching","Self","Self","Self",5,390,0.39,1
"746",103,5,14,"ExpList",22,"Frau","rechts","triangle.png","Ich","Nonmatching","Stranger","Stranger","Stranger",1,432,0.432,1
"747",103,5,15,"ExpList",22,"Frau","rechts","triangle.png","Fremder","Matching","Stranger","Stranger","Stranger",5,367,0.367,1
"748",103,5,16,"ExpList",22,"Frau","rechts","triangle.png","Ich","Nonmatching","Stranger","Stranger","Stranger",1,464,0.464,1
"749",103,5,17,"ExpList",22,"Frau","rechts","circle.png","Fremder","Nonmatching","Self","Self","Self",1,461,0.461,1
"750",103,5,18,"ExpList",22,"Frau","rechts","triangle.png","Ich","Nonmatching","Stranger","Stranger","Stranger",1,461,0.461,1
"751",103,5,19,"ExpList",22,"Frau","rechts","circle.png","Ich","Matching","Self","Self","Self",5,431,0.431,1
"752",103,5,20,"ExpList",22,"Frau","rechts","triangle.png","Ich","Nonmatching","Stranger","Stranger","Stranger",1,364,0.364,1
"753",103,5,21,"ExpList",22,"Frau","rechts","circle.png","Fremder","Nonmatching","Self","Self","Self",1,514,0.514,1
"754",103,5,22,"ExpList",22,"Frau","rechts","circle.png","Fremder","Nonmatching","Self","Self","Self",1,396,0.396,1
"755",103,5,23,"ExpList",22,"Frau","rechts","triangle.png","Fremder","Matching","Stranger","Stranger","Stranger",5,450,0.45,1
"756",103,5,24,"ExpList",22,"Frau","rechts","circle.png","Fremder","Nonmatching","Self","Self","Self",1,371,0.371,1
"757",103,5,25,"ExpList",22,"Frau","rechts","circle.png","Ich","Matching","Self","Self","Self",5,398,0.398,1
"758",103,5,26,"ExpList",22,"Frau","rechts","triangle.png","Fremder","Matching","Stranger","Stranger","Stranger",5,365,0.365,1
"759",103,5,27,"ExpList",22,"Frau","rechts","triangle.png","Fremder","Matching","Stranger","Stranger","Stranger",1,323,0.323,0
"760",103,5,28,"ExpList",22,"Frau","rechts","circle.png","Fremder","Nonmatching","Self","Self","Self",1,447,0.447,1
"761",103,5,29,"ExpList",22,"Frau","rechts","circle.png","Ich","Matching","Self","Self","Self",5,399,0.399,1
"762",103,5,30,"ExpList",22,"Frau","rechts","circle.png","Ich","Matching","Self","Self","Self",5,346,0.346,1
"763",103,5,31,"ExpList",22,"Frau","rechts","triangle.png","Ich","Nonmatching","Stranger","Stranger","Stranger",1,439,0.439,1
"764",103,5,32,"ExpList",22,"Frau","rechts","triangle.png","Ich","Nonmatching","Stranger","Stranger","Stranger",1,361,0.361,1
"765",103,5,33,"ExpList",22,"Frau","rechts","triangle.png","Fremder","Matching","Stranger","Stranger","Stranger",5,540,0.54,1
"766",103,5,34,"ExpList",22,"Frau","rechts","circle.png","Ich","Matching","Self","Self","Self",5,337,0.337,1
"767",103,5,35,"ExpList",22,"Frau","rechts","triangle.png","Fremder","Matching","Stranger","Stranger","Stranger",5,391,0.391,1
"768",103,5,36,"ExpList",22,"Frau","rechts","circle.png","Fremder","Nonmatching","Self","Self","Self",1,470,0.47,1
"769",103,5,37,"ExpList",22,"Frau","rechts","circle.png","Ich","Matching","Self","Self","Self",5,378,0.378,1
"770",103,5,38,"ExpList",22,"Frau","rechts","circle.png","Ich","Matching","Self","Self","Self",5,505,0.505,1
"771",103,5,39,"ExpList",22,"Frau","rechts","triangle.png","Ich","Nonmatching","Stranger","Stranger","Stranger",1,474,0.474,1
"772",103,5,40,"ExpList",22,"Frau","rechts","circle.png","Fremder","Nonmatching","Self","Self","Self",1,505,0.505,1
"773",103,5,41,"ExpList",22,"Frau","rechts","circle.png","Ich","Matching","Self","Self","Self",5,494,0.494,1
"774",103,5,42,"ExpList",22,"Frau","rechts","triangle.png","Ich","Nonmatching","Stranger","Stranger","Stranger",1,439,0.439,1
"775",103,5,43,"ExpList",22,"Frau","rechts","circle.png","Ich","Matching","Self","Self","Self",5,371,0.371,1
"776",103,5,44,"ExpList",22,"Frau","rechts","circle.png","Fremder","Nonmatching","Self","Self","Self",1,546,0.546,1
"777",103,5,45,"ExpList",22,"Frau","rechts","triangle.png","Fremder","Matching","Stranger","Stranger","Stranger",5,449,0.449,1
"778",103,5,46,"ExpList",22,"Frau","rechts","circle.png","Ich","Matching","Self","Self","Self",5,415,0.415,1
"779",103,5,47,"ExpList",22,"Frau","rechts","triangle.png","Ich","Nonmatching","Stranger","Stranger","Stranger",1,477,0.477,1
"780",103,5,48,"ExpList",22,"Frau","rechts","triangle.png","Fremder","Matching","Stranger","Stranger","Stranger",5,438,0.438,1
"781",103,5,49,"ExpList",22,"Frau","rechts","triangle.png","Ich","Nonmatching","Stranger","Stranger","Stranger",1,347,0.347,1
"782",103,5,50,"ExpList",22,"Frau","rechts","circle.png","Fremder","Nonmatching","Self","Self","Self",1,454,0.454,1
"783",103,5,51,"ExpList",22,"Frau","rechts","triangle.png","Fremder","Matching","Stranger","Stranger","Stranger",5,551,0.551,1
"784",103,5,52,"ExpList",22,"Frau","rechts","circle.png","Ich","Matching","Self","Self","Self",5,310,0.31,1
"785",103,5,53,"ExpList",22,"Frau","rechts","triangle.png","Ich","Nonmatching","Stranger","Stranger","Stranger",1,415,0.415,1
"786",103,5,54,"ExpList",22,"Frau","rechts","circle.png","Ich","Matching","Self","Self","Self",5,433,0.433,1
"787",103,5,55,"ExpList",22,"Frau","rechts","circle.png","Fremder","Nonmatching","Self","Self","Self",1,393,0.393,1
"788",103,5,56,"ExpList",22,"Frau","rechts","triangle.png","Ich","Nonmatching","Stranger","Stranger","Stranger",1,464,0.464,1
"789",103,5,57,"ExpList",22,"Frau","rechts","circle.png","Fremder","Nonmatching","Self","Self","Self",1,474,0.474,1
"790",103,5,58,"ExpList",22,"Frau","rechts","circle.png","Ich","Matching","Self","Self","Self",5,435,0.435,1
"791",103,5,59,"ExpList",22,"Frau","rechts","triangle.png","Fremder","Matching","Stranger","Stranger","Stranger",5,410,0.41,1
"792",103,5,60,"ExpList",22,"Frau","rechts","circle.png","Fremder","Nonmatching","Self","Self","Self",1,563,0.563,1
"793",104,1,1,"TrainList1",28,"Frau","rechts","triangle.png","Ich","Nonmatching","Stranger","Stranger","Stranger",NA,0,0,0
"794",104,1,2,"TrainList1",28,"Frau","rechts","triangle.png","Fremder","Matching","Stranger","Stranger","Stranger",1,865,0.865,0
"795",104,1,3,"TrainList1",28,"Frau","rechts","circle.png","Ich","Matching","Self","Self","Self",5,882,0.882,1
"796",104,1,4,"TrainList1",28,"Frau","rechts","circle.png","Fremder","Nonmatching","Self","Self","Self",5,732,0.732,0
"797",104,1,5,"TrainList1",28,"Frau","rechts","triangle.png","Fremder","Matching","Stranger","Stranger","Stranger",1,653,0.653,0
"798",104,1,6,"TrainList1",28,"Frau","rechts","circle.png","Ich","Matching","Self","Self","Self",5,474,0.474,1
"799",104,1,7,"TrainList1",28,"Frau","rechts","circle.png","Fremder","Nonmatching","Self","Self","Self",1,569,0.569,1
"800",104,1,8,"TrainList1",28,"Frau","rechts","circle.png","Fremder","Nonmatching","Self","Self","Self",1,816,0.816,1
"801",104,1,9,"TrainList1",28,"Frau","rechts","triangle.png","Fremder","Matching","Stranger","Stranger","Stranger",5,802,0.802,1
"802",104,1,10,"TrainList1",28,"Frau","rechts","circle.png","Ich","Matching","Self","Self","Self",5,1085,1.085,1
"803",104,1,11,"TrainList1",28,"Frau","rechts","triangle.png","Ich","Nonmatching","Stranger","Stranger","Stranger",1,685,0.685,1
"804",104,1,12,"TrainList1",28,"Frau","rechts","circle.png","Ich","Matching","Self","Self","Self",5,668,0.668,1
"805",104,1,13,"TrainList1",28,"Frau","rechts","circle.png","Ich","Matching","Self","Self","Self",5,1042,1.042,1
"806",104,1,14,"TrainList1",28,"Frau","rechts","circle.png","Fremder","Nonmatching","Self","Self","Self",1,744,0.744,1
"807",104,1,15,"TrainList1",28,"Frau","rechts","triangle.png","Fremder","Matching","Stranger","Stranger","Stranger",5,841,0.841,1
"808",104,1,16,"TrainList1",28,"Frau","rechts","triangle.png","Ich","Nonmatching","Stranger","Stranger","Stranger",1,708,0.708,1
"809",104,1,17,"TrainList1",28,"Frau","rechts","circle.png","Fremder","Nonmatching","Self","Self","Self",1,529,0.529,1
"810",104,1,18,"TrainList1",28,"Frau","rechts","triangle.png","Fremder","Matching","Stranger","Stranger","Stranger",5,924,0.924,1
"811",104,1,19,"TrainList1",28,"Frau","rechts","circle.png","Ich","Matching","Self","Self","Self",5,1002,1.002,1
"812",104,1,20,"TrainList1",28,"Frau","rechts","triangle.png","Ich","Nonmatching","Stranger","Stranger","Stranger",1,727,0.727,1
"813",104,1,21,"TrainList1",28,"Frau","rechts","triangle.png","Fremder","Matching","Stranger","Stranger","Stranger",5,1256,1.256,1
"814",104,1,22,"TrainList1",28,"Frau","rechts","triangle.png","Ich","Nonmatching","Stranger","Stranger","Stranger",1,755,0.755,1
"815",104,1,23,"TrainList1",28,"Frau","rechts","triangle.png","Ich","Nonmatching","Stranger","Stranger","Stranger",1,678,0.678,1
"816",104,1,24,"TrainList1",28,"Frau","rechts","circle.png","Fremder","Nonmatching","Self","Self","Self",5,988,0.988,0
"817",104,2,1,"ExpList",28,"Frau","rechts","circle.png","Fremder","Nonmatching","Self","Self","Self",1,826,0.826,1
"818",104,2,2,"ExpList",28,"Frau","rechts","triangle.png","Fremder","Matching","Stranger","Stranger","Stranger",5,827,0.827,1
"819",104,2,3,"ExpList",28,"Frau","rechts","circle.png","Fremder","Nonmatching","Self","Self","Self",1,659,0.659,1
"820",104,2,4,"ExpList",28,"Frau","rechts","triangle.png","Ich","Nonmatching","Stranger","Stranger","Stranger",1,867,0.867,1
"821",104,2,5,"ExpList",28,"Frau","rechts","circle.png","Ich","Matching","Self","Self","Self",5,676,0.676,1
"822",104,2,6,"ExpList",28,"Frau","rechts","triangle.png","Ich","Nonmatching","Stranger","Stranger","Stranger",1,721,0.721,1
"823",104,2,7,"ExpList",28,"Frau","rechts","circle.png","Ich","Matching","Self","Self","Self",5,921,0.921,1
"824",104,2,8,"ExpList",28,"Frau","rechts","circle.png","Ich","Matching","Self","Self","Self",5,577,0.577,1
"825",104,2,9,"ExpList",28,"Frau","rechts","triangle.png","Ich","Nonmatching","Stranger","Stranger","Stranger",1,526,0.526,1
"826",104,2,10,"ExpList",28,"Frau","rechts","circle.png","Fremder","Nonmatching","Self","Self","Self",5,709,0.709,0
"827",104,2,11,"ExpList",28,"Frau","rechts","circle.png","Ich","Matching","Self","Self","Self",5,738,0.738,1
"828",104,2,12,"ExpList",28,"Frau","rechts","triangle.png","Ich","Nonmatching","Stranger","Stranger","Stranger",1,770,0.77,1
"829",104,2,13,"ExpList",28,"Frau","rechts","triangle.png","Ich","Nonmatching","Stranger","Stranger","Stranger",1,708,0.708,1
"830",104,2,14,"ExpList",28,"Frau","rechts","triangle.png","Fremder","Matching","Stranger","Stranger","Stranger",5,841,0.841,1
"831",104,2,15,"ExpList",28,"Frau","rechts","circle.png","Fremder","Nonmatching","Self","Self","Self",1,847,0.847,1
"832",104,2,16,"ExpList",28,"Frau","rechts","triangle.png","Fremder","Matching","Stranger","Stranger","Stranger",5,1484,1.484,1
"833",104,2,17,"ExpList",28,"Frau","rechts","triangle.png","Ich","Nonmatching","Stranger","Stranger","Stranger",NA,0,0,0
"834",104,2,18,"ExpList",28,"Frau","rechts","circle.png","Ich","Matching","Self","Self","Self",5,888,0.888,1
"835",104,2,19,"ExpList",28,"Frau","rechts","triangle.png","Fremder","Matching","Stranger","Stranger","Stranger",5,854,0.854,1
"836",104,2,20,"ExpList",28,"Frau","rechts","triangle.png","Fremder","Matching","Stranger","Stranger","Stranger",5,858,0.858,1
"837",104,2,21,"ExpList",28,"Frau","rechts","triangle.png","Ich","Nonmatching","Stranger","Stranger","Stranger",1,715,0.715,1
"838",104,2,22,"ExpList",28,"Frau","rechts","circle.png","Ich","Matching","Self","Self","Self",5,585,0.585,1
