"","Subject","Age","Gender","Handedness","Block","Trial","Shape","Label","Matching","Label_Identity","Origin_Identity","English_Identity","Standarlized_Identity","Response","RT_ms","RT_sec","ACC"
"1",2832782,22,"Mujer","Diestro",1,1,"circulo","amigo","Nonmatching","Friend","Self","Self","Self",1,715,0.715,1
"2",2832782,22,"Mujer","Diestro",1,2,"circulo","amigo","Nonmatching","Friend","Self","Self","Self",1,433,0.433,1
"3",2832782,22,"Mujer","Diestro",1,3,"triangulo","extrano","Matching","Stranger","Stranger","Stranger","Stranger",1,525,0.525,0
"4",2832782,22,"Mujer","Diestro",1,4,"triangulo","amigo","Nonmatching","Friend","Stranger","Stranger","Stranger",1,903,0.903,1
"5",2832782,22,"Mujer","Diestro",1,5,"cuadrado","amigo","Matching","Friend","Friend","Friend","Close",5,538,0.538,1
"6",2832782,22,"Mujer","Diestro",1,6,"triangulo","tu","Nonmatching","Self","Stranger","Stranger","Stranger",1,595,0.595,1
"7",2832782,22,"Mujer","Diestro",1,7,"triangulo","tu","Nonmatching","Self","Stranger","Stranger","Stranger",1,510,0.51,1
"8",2832782,22,"Mujer","Diestro",1,8,"triangulo","amigo","Nonmatching","Friend","Stranger","Stranger","Stranger",NA,0,0,0
"9",2832782,22,"Mujer","Diestro",1,9,"cuadrado","extrano","Nonmatching","Stranger","Friend","Friend","Close",1,278,0.278,1
"10",2832782,22,"Mujer","Diestro",1,10,"cuadrado","tu","Nonmatching","Self","Friend","Friend","Close",5,537,0.537,0
"11",2832782,22,"Mujer","Diestro",1,11,"cuadrado","extrano","Nonmatching","Stranger","Friend","Friend","Close",NA,0,0,0
"12",2832782,22,"Mujer","Diestro",1,12,"triangulo","amigo","Nonmatching","Friend","Stranger","Stranger","Stranger",5,647,0.647,0
"13",2832782,22,"Mujer","Diestro",1,13,"cuadrado","tu","Nonmatching","Self","Friend","Friend","Close",1,642,0.642,1
"14",2832782,22,"Mujer","Diestro",1,14,"circulo","tu","Matching","Self","Self","Self","Self",5,555,0.555,1
"15",2832782,22,"Mujer","Diestro",1,15,"cuadrado","extrano","Nonmatching","Stranger","Friend","Friend","Close",1,590,0.59,1
"16",2832782,22,"Mujer","Diestro",1,16,"circulo","tu","Matching","Self","Self","Self","Self",5,440,0.44,1
"17",2832782,22,"Mujer","Diestro",1,17,"circulo","tu","Matching","Self","Self","Self","Self",5,316,0.316,1
"18",2832782,22,"Mujer","Diestro",1,18,"circulo","tu","Matching","Self","Self","Self","Self",5,404,0.404,1
"19",2832782,22,"Mujer","Diestro",1,19,"cuadrado","amigo","Matching","Friend","Friend","Friend","Close",5,766,0.766,1
"20",2832782,22,"Mujer","Diestro",1,20,"cuadrado","amigo","Matching","Friend","Friend","Friend","Close",5,267,0.267,1
"21",2832782,22,"Mujer","Diestro",1,21,"circulo","tu","Matching","Self","Self","Self","Self",5,451,0.451,1
"22",2832782,22,"Mujer","Diestro",1,22,"circulo","extrano","Nonmatching","Stranger","Self","Self","Self",1,461,0.461,1
"23",2832782,22,"Mujer","Diestro",1,23,"cuadrado","amigo","Matching","Friend","Friend","Friend","Close",5,381,0.381,1
"24",2832782,22,"Mujer","Diestro",1,24,"circulo","tu","Matching","Self","Self","Self","Self",5,320,0.32,1
"25",2832782,22,"Mujer","Diestro",1,25,"cuadrado","tu","Nonmatching","Self","Friend","Friend","Close",1,728,0.728,1
"26",2832782,22,"Mujer","Diestro",1,26,"triangulo","extrano","Matching","Stranger","Stranger","Stranger","Stranger",5,816,0.816,1
"27",2832782,22,"Mujer","Diestro",1,27,"cuadrado","amigo","Matching","Friend","Friend","Friend","Close",5,494,0.494,1
"28",2832782,22,"Mujer","Diestro",1,28,"circulo","extrano","Nonmatching","Stranger","Self","Self","Self",1,1035,1.035,1
"29",2832782,22,"Mujer","Diestro",1,29,"circulo","tu","Matching","Self","Self","Self","Self",5,293,0.293,1
"30",2832782,22,"Mujer","Diestro",1,30,"triangulo","extrano","Matching","Stranger","Stranger","Stranger","Stranger",1,482,0.482,0
"31",2832782,22,"Mujer","Diestro",1,31,"circulo","amigo","Nonmatching","Friend","Self","Self","Self",1,840,0.84,1
"32",2832782,22,"Mujer","Diestro",1,32,"circulo","extrano","Nonmatching","Stranger","Self","Self","Self",1,553,0.553,1
"33",2832782,22,"Mujer","Diestro",1,33,"triangulo","tu","Nonmatching","Self","Stranger","Stranger","Stranger",1,850,0.85,1
"34",2832782,22,"Mujer","Diestro",1,34,"triangulo","extrano","Matching","Stranger","Stranger","Stranger","Stranger",5,598,0.598,1
"35",2832782,22,"Mujer","Diestro",1,35,"circulo","extrano","Nonmatching","Stranger","Self","Self","Self",1,665,0.665,1
"36",2832782,22,"Mujer","Diestro",1,36,"cuadrado","amigo","Matching","Friend","Friend","Friend","Close",5,424,0.424,1
"37",2832782,22,"Mujer","Diestro",1,37,"cuadrado","extrano","Nonmatching","Stranger","Friend","Friend","Close",1,601,0.601,1
"38",2832782,22,"Mujer","Diestro",1,38,"cuadrado","tu","Nonmatching","Self","Friend","Friend","Close",1,719,0.719,1
"39",2832782,22,"Mujer","Diestro",1,39,"cuadrado","amigo","Matching","Friend","Friend","Friend","Close",5,604,0.604,1
"40",2832782,22,"Mujer","Diestro",1,40,"triangulo","amigo","Nonmatching","Friend","Stranger","Stranger","Stranger",1,821,0.821,1
"41",2832782,22,"Mujer","Diestro",1,41,"circulo","tu","Matching","Self","Self","Self","Self",5,282,0.282,1
"42",2832782,22,"Mujer","Diestro",1,42,"triangulo","extrano","Matching","Stranger","Stranger","Stranger","Stranger",5,261,0.261,1
"43",2832782,22,"Mujer","Diestro",1,43,"triangulo","tu","Nonmatching","Self","Stranger","Stranger","Stranger",1,507,0.507,1
"44",2832782,22,"Mujer","Diestro",1,44,"triangulo","extrano","Matching","Stranger","Stranger","Stranger","Stranger",1,794,0.794,0
"45",2832782,22,"Mujer","Diestro",1,45,"triangulo","extrano","Matching","Stranger","Stranger","Stranger","Stranger",5,464,0.464,1
"46",2832782,22,"Mujer","Diestro",1,46,"circulo","amigo","Nonmatching","Friend","Self","Self","Self",1,711,0.711,1
"47",2832782,22,"Mujer","Diestro",1,47,"cuadrado","amigo","Matching","Friend","Friend","Friend","Close",5,477,0.477,1
"48",2832782,22,"Mujer","Diestro",1,48,"triangulo","extrano","Matching","Stranger","Stranger","Stranger","Stranger",5,650,0.65,1
"49",2832782,22,"Mujer","Diestro",2,49,"cuadrado","extrano","Nonmatching","Stranger","Friend","Friend","Close",1,808,0.808,1
"50",2832782,22,"Mujer","Diestro",2,50,"cuadrado","amigo","Matching","Friend","Friend","Friend","Close",5,570,0.57,1
"51",2832782,22,"Mujer","Diestro",2,51,"circulo","tu","Matching","Self","Self","Self","Self",5,283,0.283,1
"52",2832782,22,"Mujer","Diestro",2,52,"triangulo","tu","Nonmatching","Self","Stranger","Stranger","Stranger",1,792,0.792,1
"53",2832782,22,"Mujer","Diestro",2,53,"circulo","tu","Matching","Self","Self","Self","Self",5,450,0.45,1
"54",2832782,22,"Mujer","Diestro",2,54,"circulo","amigo","Nonmatching","Friend","Self","Self","Self",1,661,0.661,1
"55",2832782,22,"Mujer","Diestro",2,55,"triangulo","extrano","Matching","Stranger","Stranger","Stranger","Stranger",1,521,0.521,0
"56",2832782,22,"Mujer","Diestro",2,56,"circulo","tu","Matching","Self","Self","Self","Self",5,345,0.345,1
"57",2832782,22,"Mujer","Diestro",2,57,"triangulo","tu","Nonmatching","Self","Stranger","Stranger","Stranger",1,644,0.644,1
"58",2832782,22,"Mujer","Diestro",2,58,"cuadrado","amigo","Matching","Friend","Friend","Friend","Close",5,336,0.336,1
"59",2832782,22,"Mujer","Diestro",2,59,"circulo","tu","Matching","Self","Self","Self","Self",5,328,0.328,1
"60",2832782,22,"Mujer","Diestro",2,60,"circulo","tu","Matching","Self","Self","Self","Self",5,299,0.299,1
"61",2832782,22,"Mujer","Diestro",2,61,"cuadrado","tu","Nonmatching","Self","Friend","Friend","Close",5,363,0.363,0
"62",2832782,22,"Mujer","Diestro",2,62,"triangulo","extrano","Matching","Stranger","Stranger","Stranger","Stranger",5,871,0.871,1
"63",2832782,22,"Mujer","Diestro",2,63,"circulo","extrano","Nonmatching","Stranger","Self","Self","Self",1,499,0.499,1
"64",2832782,22,"Mujer","Diestro",2,64,"circulo","extrano","Nonmatching","Stranger","Self","Self","Self",1,961,0.961,1
"65",2832782,22,"Mujer","Diestro",2,65,"triangulo","amigo","Nonmatching","Friend","Stranger","Stranger","Stranger",5,553,0.553,0
"66",2832782,22,"Mujer","Diestro",2,66,"triangulo","extrano","Matching","Stranger","Stranger","Stranger","Stranger",1,564,0.564,0
"67",2832782,22,"Mujer","Diestro",2,67,"circulo","amigo","Nonmatching","Friend","Self","Self","Self",1,687,0.687,1
"68",2832782,22,"Mujer","Diestro",2,68,"cuadrado","extrano","Nonmatching","Stranger","Friend","Friend","Close",1,436,0.436,1
"69",2832782,22,"Mujer","Diestro",2,69,"cuadrado","amigo","Matching","Friend","Friend","Friend","Close",1,282,0.282,0
"70",2832782,22,"Mujer","Diestro",2,70,"cuadrado","tu","Nonmatching","Self","Friend","Friend","Close",1,636,0.636,1
"71",2832782,22,"Mujer","Diestro",2,71,"circulo","tu","Matching","Self","Self","Self","Self",5,503,0.503,1
"72",2832782,22,"Mujer","Diestro",2,72,"triangulo","tu","Nonmatching","Self","Stranger","Stranger","Stranger",1,433,0.433,1
"73",2832782,22,"Mujer","Diestro",2,73,"triangulo","tu","Nonmatching","Self","Stranger","Stranger","Stranger",1,431,0.431,1
"74",2832782,22,"Mujer","Diestro",2,74,"circulo","tu","Matching","Self","Self","Self","Self",5,263,0.263,1
"75",2832782,22,"Mujer","Diestro",2,75,"circulo","tu","Matching","Self","Self","Self","Self",5,544,0.544,1
"76",2832782,22,"Mujer","Diestro",2,76,"circulo","extrano","Nonmatching","Stranger","Self","Self","Self",5,272,0.272,0
"77",2832782,22,"Mujer","Diestro",2,77,"triangulo","extrano","Matching","Stranger","Stranger","Stranger","Stranger",1,434,0.434,0
"78",2832782,22,"Mujer","Diestro",2,78,"triangulo","amigo","Nonmatching","Friend","Stranger","Stranger","Stranger",1,605,0.605,1
"79",2832782,22,"Mujer","Diestro",2,79,"circulo","amigo","Nonmatching","Friend","Self","Self","Self",1,848,0.848,1
"80",2832782,22,"Mujer","Diestro",2,80,"cuadrado","amigo","Matching","Friend","Friend","Friend","Close",5,558,0.558,1
"81",2832782,22,"Mujer","Diestro",2,81,"cuadrado","amigo","Matching","Friend","Friend","Friend","Close",5,410,0.41,1
"82",2832782,22,"Mujer","Diestro",2,82,"cuadrado","tu","Nonmatching","Self","Friend","Friend","Close",1,495,0.495,1
"83",2832782,22,"Mujer","Diestro",2,83,"triangulo","extrano","Matching","Stranger","Stranger","Stranger","Stranger",5,683,0.683,1
"84",2832782,22,"Mujer","Diestro",2,84,"triangulo","extrano","Matching","Stranger","Stranger","Stranger","Stranger",5,675,0.675,1
"85",2832782,22,"Mujer","Diestro",2,85,"circulo","extrano","Nonmatching","Stranger","Self","Self","Self",1,537,0.537,1
"86",2832782,22,"Mujer","Diestro",2,86,"triangulo","amigo","Nonmatching","Friend","Stranger","Stranger","Stranger",1,874,0.874,1
"87",2832782,22,"Mujer","Diestro",2,87,"cuadrado","amigo","Matching","Friend","Friend","Friend","Close",5,420,0.42,1
"88",2832782,22,"Mujer","Diestro",2,88,"triangulo","extrano","Matching","Stranger","Stranger","Stranger","Stranger",1,325,0.325,0
"89",2832782,22,"Mujer","Diestro",2,89,"triangulo","amigo","Nonmatching","Friend","Stranger","Stranger","Stranger",1,600,0.6,1
"90",2832782,22,"Mujer","Diestro",2,90,"circulo","amigo","Nonmatching","Friend","Self","Self","Self",1,681,0.681,1
"91",2832782,22,"Mujer","Diestro",2,91,"cuadrado","extrano","Nonmatching","Stranger","Friend","Friend","Close",1,280,0.28,1
"92",2832782,22,"Mujer","Diestro",2,92,"cuadrado","tu","Nonmatching","Self","Friend","Friend","Close",1,550,0.55,1
"93",2832782,22,"Mujer","Diestro",2,93,"cuadrado","amigo","Matching","Friend","Friend","Friend","Close",5,520,0.52,1
"94",2832782,22,"Mujer","Diestro",2,94,"cuadrado","extrano","Nonmatching","Stranger","Friend","Friend","Close",1,440,0.44,1
"95",2832782,22,"Mujer","Diestro",2,95,"cuadrado","amigo","Matching","Friend","Friend","Friend","Close",5,359,0.359,1
"96",2832782,22,"Mujer","Diestro",2,96,"triangulo","extrano","Matching","Stranger","Stranger","Stranger","Stranger",1,459,0.459,0
"97",2832782,22,"Mujer","Diestro",3,97,"cuadrado","amigo","Matching","Friend","Friend","Friend","Close",5,614,0.614,1
"98",2832782,22,"Mujer","Diestro",3,98,"triangulo","extrano","Matching","Stranger","Stranger","Stranger","Stranger",5,688,0.688,1
"99",2832782,22,"Mujer","Diestro",3,99,"triangulo","extrano","Matching","Stranger","Stranger","Stranger","Stranger",1,700,0.7,0
"100",2832782,22,"Mujer","Diestro",3,100,"triangulo","tu","Nonmatching","Self","Stranger","Stranger","Stranger",1,731,0.731,1
"101",2832782,22,"Mujer","Diestro",3,101,"triangulo","extrano","Matching","Stranger","Stranger","Stranger","Stranger",5,681,0.681,1
"102",2832782,22,"Mujer","Diestro",3,102,"circulo","amigo","Nonmatching","Friend","Self","Self","Self",1,467,0.467,1
"103",2832782,22,"Mujer","Diestro",3,103,"cuadrado","tu","Nonmatching","Self","Friend","Friend","Close",1,517,0.517,1
"104",2832782,22,"Mujer","Diestro",3,104,"cuadrado","amigo","Matching","Friend","Friend","Friend","Close",5,648,0.648,1
"105",2832782,22,"Mujer","Diestro",3,105,"cuadrado","extrano","Nonmatching","Stranger","Friend","Friend","Close",1,785,0.785,1
"106",2832782,22,"Mujer","Diestro",3,106,"triangulo","extrano","Matching","Stranger","Stranger","Stranger","Stranger",5,663,0.663,1
"107",2832782,22,"Mujer","Diestro",3,107,"circulo","tu","Matching","Self","Self","Self","Self",5,538,0.538,1
"108",2832782,22,"Mujer","Diestro",3,108,"circulo","tu","Matching","Self","Self","Self","Self",5,529,0.529,1
"109",2832782,22,"Mujer","Diestro",3,109,"cuadrado","extrano","Nonmatching","Stranger","Friend","Friend","Close",1,791,0.791,1
"110",2832782,22,"Mujer","Diestro",3,110,"circulo","extrano","Nonmatching","Stranger","Self","Self","Self",1,848,0.848,1
"111",2832782,22,"Mujer","Diestro",3,111,"circulo","tu","Matching","Self","Self","Self","Self",5,453,0.453,1
"112",2832782,22,"Mujer","Diestro",3,112,"circulo","extrano","Nonmatching","Stranger","Self","Self","Self",1,662,0.662,1
"113",2832782,22,"Mujer","Diestro",3,113,"cuadrado","tu","Nonmatching","Self","Friend","Friend","Close",1,874,0.874,1
"114",2832782,22,"Mujer","Diestro",3,114,"triangulo","tu","Nonmatching","Self","Stranger","Stranger","Stranger",1,585,0.585,1
"115",2832782,22,"Mujer","Diestro",3,115,"circulo","amigo","Nonmatching","Friend","Self","Self","Self",1,820,0.82,1
"116",2832782,22,"Mujer","Diestro",3,116,"circulo","amigo","Nonmatching","Friend","Self","Self","Self",1,511,0.511,1
"117",2832782,22,"Mujer","Diestro",3,117,"circulo","amigo","Nonmatching","Friend","Self","Self","Self",1,349,0.349,1
"118",2832782,22,"Mujer","Diestro",3,118,"circulo","tu","Matching","Self","Self","Self","Self",5,457,0.457,1
"119",2832782,22,"Mujer","Diestro",3,119,"cuadrado","tu","Nonmatching","Self","Friend","Friend","Close",1,671,0.671,1
"120",2832782,22,"Mujer","Diestro",3,120,"cuadrado","amigo","Matching","Friend","Friend","Friend","Close",5,441,0.441,1
"121",2832782,22,"Mujer","Diestro",3,121,"circulo","tu","Matching","Self","Self","Self","Self",5,566,0.566,1
"122",2832782,22,"Mujer","Diestro",3,122,"circulo","tu","Matching","Self","Self","Self","Self",5,436,0.436,1
"123",2832782,22,"Mujer","Diestro",3,123,"triangulo","tu","Nonmatching","Self","Stranger","Stranger","Stranger",1,801,0.801,1
"124",2832782,22,"Mujer","Diestro",3,124,"triangulo","extrano","Matching","Stranger","Stranger","Stranger","Stranger",5,652,0.652,1
"125",2832782,22,"Mujer","Diestro",3,125,"cuadrado","extrano","Nonmatching","Stranger","Friend","Friend","Close",1,597,0.597,1
"126",2832782,22,"Mujer","Diestro",3,126,"triangulo","extrano","Matching","Stranger","Stranger","Stranger","Stranger",5,620,0.62,1
"127",2832782,22,"Mujer","Diestro",3,127,"cuadrado","amigo","Matching","Friend","Friend","Friend","Close",5,702,0.702,1
"128",2832782,22,"Mujer","Diestro",3,128,"cuadrado","amigo","Matching","Friend","Friend","Friend","Close",5,525,0.525,1
"129",2832782,22,"Mujer","Diestro",3,129,"cuadrado","amigo","Matching","Friend","Friend","Friend","Close",5,447,0.447,1
"130",2832782,22,"Mujer","Diestro",3,130,"triangulo","amigo","Nonmatching","Friend","Stranger","Stranger","Stranger",1,513,0.513,1
"131",2832782,22,"Mujer","Diestro",3,131,"triangulo","amigo","Nonmatching","Friend","Stranger","Stranger","Stranger",1,821,0.821,1
"132",2832782,22,"Mujer","Diestro",3,132,"triangulo","amigo","Nonmatching","Friend","Stranger","Stranger","Stranger",1,525,0.525,1
"133",2832782,22,"Mujer","Diestro",3,133,"circulo","extrano","Nonmatching","Stranger","Self","Self","Self",1,801,0.801,1
"134",2832782,22,"Mujer","Diestro",3,134,"cuadrado","extrano","Nonmatching","Stranger","Friend","Friend","Close",1,803,0.803,1
"135",2832782,22,"Mujer","Diestro",3,135,"cuadrado","amigo","Matching","Friend","Friend","Friend","Close",5,815,0.815,1
"136",2832782,22,"Mujer","Diestro",3,136,"cuadrado","tu","Nonmatching","Self","Friend","Friend","Close",1,718,0.718,1
"137",2832782,22,"Mujer","Diestro",3,137,"cuadrado","amigo","Matching","Friend","Friend","Friend","Close",5,744,0.744,1
"138",2832782,22,"Mujer","Diestro",3,138,"triangulo","extrano","Matching","Stranger","Stranger","Stranger","Stranger",5,706,0.706,1
"139",2832782,22,"Mujer","Diestro",3,139,"triangulo","extrano","Matching","Stranger","Stranger","Stranger","Stranger",5,391,0.391,1
"140",2832782,22,"Mujer","Diestro",3,140,"circulo","tu","Matching","Self","Self","Self","Self",5,606,0.606,1
"141",2832782,22,"Mujer","Diestro",3,141,"triangulo","tu","Nonmatching","Self","Stranger","Stranger","Stranger",1,507,0.507,1
"142",2832782,22,"Mujer","Diestro",3,142,"circulo","extrano","Nonmatching","Stranger","Self","Self","Self",1,579,0.579,1
"143",2832782,22,"Mujer","Diestro",3,143,"triangulo","amigo","Nonmatching","Friend","Stranger","Stranger","Stranger",1,662,0.662,1
"144",2832782,22,"Mujer","Diestro",3,144,"circulo","tu","Matching","Self","Self","Self","Self",5,442,0.442,1
"145",2832782,22,"Mujer","Diestro",4,145,"cuadrado","amigo","Matching","Friend","Friend","Friend","Close",5,420,0.42,1
"146",2832782,22,"Mujer","Diestro",4,146,"triangulo","tu","Nonmatching","Self","Stranger","Stranger","Stranger",1,731,0.731,1
"147",2832782,22,"Mujer","Diestro",4,147,"circulo","extrano","Nonmatching","Stranger","Self","Self","Self",1,554,0.554,1
"148",2832782,22,"Mujer","Diestro",4,148,"circulo","tu","Matching","Self","Self","Self","Self",1,763,0.763,0
"149",2832782,22,"Mujer","Diestro",4,149,"cuadrado","amigo","Matching","Friend","Friend","Friend","Close",5,443,0.443,1
"150",2832782,22,"Mujer","Diestro",4,150,"triangulo","extrano","Matching","Stranger","Stranger","Stranger","Stranger",5,544,0.544,1
"151",2832782,22,"Mujer","Diestro",4,151,"triangulo","extrano","Matching","Stranger","Stranger","Stranger","Stranger",5,358,0.358,1
"152",2832782,22,"Mujer","Diestro",4,152,"cuadrado","extrano","Nonmatching","Stranger","Friend","Friend","Close",1,700,0.7,1
"153",2832782,22,"Mujer","Diestro",4,153,"cuadrado","extrano","Nonmatching","Stranger","Friend","Friend","Close",1,435,0.435,1
"154",2832782,22,"Mujer","Diestro",4,154,"triangulo","tu","Nonmatching","Self","Stranger","Stranger","Stranger",1,566,0.566,1
"155",2832782,22,"Mujer","Diestro",4,155,"circulo","extrano","Nonmatching","Stranger","Self","Self","Self",1,857,0.857,1
"156",2832782,22,"Mujer","Diestro",4,156,"circulo","tu","Matching","Self","Self","Self","Self",1,295,0.295,0
"157",2832782,22,"Mujer","Diestro",4,157,"triangulo","extrano","Matching","Stranger","Stranger","Stranger","Stranger",1,595,0.595,0
"158",2832782,22,"Mujer","Diestro",4,158,"triangulo","amigo","Nonmatching","Friend","Stranger","Stranger","Stranger",NA,0,0,0
"159",2832782,22,"Mujer","Diestro",4,159,"circulo","extrano","Nonmatching","Stranger","Self","Self","Self",1,590,0.59,1
"160",2832782,22,"Mujer","Diestro",4,160,"cuadrado","amigo","Matching","Friend","Friend","Friend","Close",5,405,0.405,1
"161",2832782,22,"Mujer","Diestro",4,161,"cuadrado","tu","Nonmatching","Self","Friend","Friend","Close",1,555,0.555,1
"162",2832782,22,"Mujer","Diestro",4,162,"triangulo","extrano","Matching","Stranger","Stranger","Stranger","Stranger",5,566,0.566,1
"163",2832782,22,"Mujer","Diestro",4,163,"cuadrado","amigo","Matching","Friend","Friend","Friend","Close",5,579,0.579,1
"164",2832782,22,"Mujer","Diestro",4,164,"cuadrado","tu","Nonmatching","Self","Friend","Friend","Close",1,544,0.544,1
"165",2832782,22,"Mujer","Diestro",4,165,"cuadrado","amigo","Matching","Friend","Friend","Friend","Close",5,432,0.432,1
"166",2832782,22,"Mujer","Diestro",4,166,"circulo","amigo","Nonmatching","Friend","Self","Self","Self",1,709,0.709,1
"167",2832782,22,"Mujer","Diestro",4,167,"circulo","tu","Matching","Self","Self","Self","Self",5,361,0.361,1
"168",2832782,22,"Mujer","Diestro",4,168,"cuadrado","tu","Nonmatching","Self","Friend","Friend","Close",1,623,0.623,1
"169",2832782,22,"Mujer","Diestro",4,169,"circulo","amigo","Nonmatching","Friend","Self","Self","Self",1,735,0.735,1
"170",2832782,22,"Mujer","Diestro",4,170,"cuadrado","amigo","Matching","Friend","Friend","Friend","Close",5,370,0.37,1
"171",2832782,22,"Mujer","Diestro",4,171,"cuadrado","extrano","Nonmatching","Stranger","Friend","Friend","Close",1,501,0.501,1
"172",2832782,22,"Mujer","Diestro",4,172,"triangulo","tu","Nonmatching","Self","Stranger","Stranger","Stranger",1,645,0.645,1
"173",2832782,22,"Mujer","Diestro",4,173,"cuadrado","extrano","Nonmatching","Stranger","Friend","Friend","Close",1,674,0.674,1
"174",2832782,22,"Mujer","Diestro",4,174,"cuadrado","amigo","Matching","Friend","Friend","Friend","Close",5,360,0.36,1
"175",2832782,22,"Mujer","Diestro",4,175,"triangulo","amigo","Nonmatching","Friend","Stranger","Stranger","Stranger",1,914,0.914,1
"176",2832782,22,"Mujer","Diestro",4,176,"circulo","amigo","Nonmatching","Friend","Self","Self","Self",1,664,0.664,1
"177",2832782,22,"Mujer","Diestro",4,177,"cuadrado","amigo","Matching","Friend","Friend","Friend","Close",1,365,0.365,0
"178",2832782,22,"Mujer","Diestro",4,178,"circulo","tu","Matching","Self","Self","Self","Self",5,497,0.497,1
"179",2832782,22,"Mujer","Diestro",4,179,"triangulo","extrano","Matching","Stranger","Stranger","Stranger","Stranger",5,668,0.668,1
"180",2832782,22,"Mujer","Diestro",4,180,"circulo","amigo","Nonmatching","Friend","Self","Self","Self",1,555,0.555,1
"181",2832782,22,"Mujer","Diestro",4,181,"triangulo","amigo","Nonmatching","Friend","Stranger","Stranger","Stranger",1,1000,1,1
"182",2832782,22,"Mujer","Diestro",4,182,"circulo","tu","Matching","Self","Self","Self","Self",5,399,0.399,1
"183",2832782,22,"Mujer","Diestro",4,183,"triangulo","tu","Nonmatching","Self","Stranger","Stranger","Stranger",1,535,0.535,1
"184",2832782,22,"Mujer","Diestro",4,184,"triangulo","amigo","Nonmatching","Friend","Stranger","Stranger","Stranger",1,920,0.92,1
"185",2832782,22,"Mujer","Diestro",4,185,"circulo","extrano","Nonmatching","Stranger","Self","Self","Self",1,662,0.662,1
"186",2832782,22,"Mujer","Diestro",4,186,"cuadrado","tu","Nonmatching","Self","Friend","Friend","Close",1,481,0.481,1
"187",2832782,22,"Mujer","Diestro",4,187,"triangulo","extrano","Matching","Stranger","Stranger","Stranger","Stranger",5,527,0.527,1
"188",2832782,22,"Mujer","Diestro",4,188,"circulo","tu","Matching","Self","Self","Self","Self",5,505,0.505,1
"189",2832782,22,"Mujer","Diestro",4,189,"circulo","tu","Matching","Self","Self","Self","Self",5,568,0.568,1
"190",2832782,22,"Mujer","Diestro",4,190,"triangulo","extrano","Matching","Stranger","Stranger","Stranger","Stranger",5,541,0.541,1
"191",2832782,22,"Mujer","Diestro",4,191,"circulo","tu","Matching","Self","Self","Self","Self",5,493,0.493,1
"192",2832782,22,"Mujer","Diestro",4,192,"triangulo","extrano","Matching","Stranger","Stranger","Stranger","Stranger",5,530,0.53,1
"193",2832782,22,"Mujer","Diestro",5,193,"cuadrado","amigo","Matching","Friend","Friend","Friend","Close",5,367,0.367,1
"194",2832782,22,"Mujer","Diestro",5,194,"cuadrado","extrano","Nonmatching","Stranger","Friend","Friend","Close",5,206,0.206,0
"195",2832782,22,"Mujer","Diestro",5,195,"triangulo","amigo","Nonmatching","Friend","Stranger","Stranger","Stranger",1,632,0.632,1
"196",2832782,22,"Mujer","Diestro",5,196,"triangulo","extrano","Matching","Stranger","Stranger","Stranger","Stranger",1,573,0.573,0
"197",2832782,22,"Mujer","Diestro",5,197,"triangulo","extrano","Matching","Stranger","Stranger","Stranger","Stranger",5,444,0.444,1
"198",2832782,22,"Mujer","Diestro",5,198,"cuadrado","extrano","Nonmatching","Stranger","Friend","Friend","Close",1,514,0.514,1
"199",2832782,22,"Mujer","Diestro",5,199,"circulo","tu","Matching","Self","Self","Self","Self",5,249,0.249,1
"200",2832782,22,"Mujer","Diestro",5,200,"circulo","amigo","Nonmatching","Friend","Self","Self","Self",1,696,0.696,1
"201",2832782,22,"Mujer","Diestro",5,201,"circulo","extrano","Nonmatching","Stranger","Self","Self","Self",1,601,0.601,1
"202",2832782,22,"Mujer","Diestro",5,202,"cuadrado","tu","Nonmatching","Self","Friend","Friend","Close",5,365,0.365,0
"203",2832782,22,"Mujer","Diestro",5,203,"circulo","tu","Matching","Self","Self","Self","Self",5,452,0.452,1
"204",2832782,22,"Mujer","Diestro",5,204,"triangulo","extrano","Matching","Stranger","Stranger","Stranger","Stranger",1,595,0.595,0
"205",2832782,22,"Mujer","Diestro",5,205,"cuadrado","tu","Nonmatching","Self","Friend","Friend","Close",1,630,0.63,1
"206",2832782,22,"Mujer","Diestro",5,206,"triangulo","extrano","Matching","Stranger","Stranger","Stranger","Stranger",5,917,0.917,1
"207",2832782,22,"Mujer","Diestro",5,207,"circulo","extrano","Nonmatching","Stranger","Self","Self","Self",1,433,0.433,1
"208",2832782,22,"Mujer","Diestro",5,208,"cuadrado","tu","Nonmatching","Self","Friend","Friend","Close",5,448,0.448,0
"209",2832782,22,"Mujer","Diestro",5,209,"circulo","tu","Matching","Self","Self","Self","Self",5,460,0.46,1
"210",2832782,22,"Mujer","Diestro",5,210,"cuadrado","amigo","Matching","Friend","Friend","Friend","Close",5,576,0.576,1
"211",2832782,22,"Mujer","Diestro",5,211,"cuadrado","amigo","Matching","Friend","Friend","Friend","Close",5,468,0.468,1
"212",2832782,22,"Mujer","Diestro",5,212,"circulo","amigo","Nonmatching","Friend","Self","Self","Self",1,551,0.551,1
"213",2832782,22,"Mujer","Diestro",5,213,"circulo","amigo","Nonmatching","Friend","Self","Self","Self",1,540,0.54,1
"214",2832782,22,"Mujer","Diestro",5,214,"circulo","tu","Matching","Self","Self","Self","Self",5,479,0.479,1
"215",2832782,22,"Mujer","Diestro",5,215,"triangulo","tu","Nonmatching","Self","Stranger","Stranger","Stranger",1,570,0.57,1
"216",2832782,22,"Mujer","Diestro",5,216,"triangulo","amigo","Nonmatching","Friend","Stranger","Stranger","Stranger",1,793,0.793,1
"217",2832782,22,"Mujer","Diestro",5,217,"circulo","amigo","Nonmatching","Friend","Self","Self","Self",1,506,0.506,1
"218",2832782,22,"Mujer","Diestro",5,218,"triangulo","extrano","Matching","Stranger","Stranger","Stranger","Stranger",5,705,0.705,1
"219",2832782,22,"Mujer","Diestro",5,219,"cuadrado","extrano","Nonmatching","Stranger","Friend","Friend","Close",1,577,0.577,1
"220",2832782,22,"Mujer","Diestro",5,220,"circulo","extrano","Nonmatching","Stranger","Self","Self","Self",1,622,0.622,1
"221",2832782,22,"Mujer","Diestro",5,221,"triangulo","extrano","Matching","Stranger","Stranger","Stranger","Stranger",5,609,0.609,1
"222",2832782,22,"Mujer","Diestro",5,222,"circulo","tu","Matching","Self","Self","Self","Self",5,469,0.469,1
"223",2832782,22,"Mujer","Diestro",5,223,"triangulo","extrano","Matching","Stranger","Stranger","Stranger","Stranger",5,765,0.765,1
"224",2832782,22,"Mujer","Diestro",5,224,"circulo","tu","Matching","Self","Self","Self","Self",5,484,0.484,1
"225",2832782,22,"Mujer","Diestro",5,225,"triangulo","amigo","Nonmatching","Friend","Stranger","Stranger","Stranger",1,580,0.58,1
"226",2832782,22,"Mujer","Diestro",5,226,"triangulo","tu","Nonmatching","Self","Stranger","Stranger","Stranger",1,687,0.687,1
"227",2832782,22,"Mujer","Diestro",5,227,"cuadrado","extrano","Nonmatching","Stranger","Friend","Friend","Close",1,521,0.521,1
"228",2832782,22,"Mujer","Diestro",5,228,"cuadrado","amigo","Matching","Friend","Friend","Friend","Close",5,310,0.31,1
"229",2832782,22,"Mujer","Diestro",5,229,"circulo","tu","Matching","Self","Self","Self","Self",5,354,0.354,1
"230",2832782,22,"Mujer","Diestro",5,230,"triangulo","tu","Nonmatching","Self","Stranger","Stranger","Stranger",1,551,0.551,1
"231",2832782,22,"Mujer","Diestro",5,231,"triangulo","tu","Nonmatching","Self","Stranger","Stranger","Stranger",1,491,0.491,1
"232",2832782,22,"Mujer","Diestro",5,232,"triangulo","amigo","Nonmatching","Friend","Stranger","Stranger","Stranger",1,543,0.543,1
"233",2832782,22,"Mujer","Diestro",5,233,"cuadrado","tu","Nonmatching","Self","Friend","Friend","Close",5,427,0.427,0
"234",2832782,22,"Mujer","Diestro",5,234,"cuadrado","amigo","Matching","Friend","Friend","Friend","Close",5,482,0.482,1
"235",2832782,22,"Mujer","Diestro",5,235,"cuadrado","amigo","Matching","Friend","Friend","Friend","Close",5,348,0.348,1
"236",2832782,22,"Mujer","Diestro",5,236,"triangulo","extrano","Matching","Stranger","Stranger","Stranger","Stranger",5,837,0.837,1
"237",2832782,22,"Mujer","Diestro",5,237,"cuadrado","amigo","Matching","Friend","Friend","Friend","Close",5,374,0.374,1
"238",2832782,22,"Mujer","Diestro",5,238,"cuadrado","amigo","Matching","Friend","Friend","Friend","Close",5,350,0.35,1
"239",2832782,22,"Mujer","Diestro",5,239,"circulo","tu","Matching","Self","Self","Self","Self",5,444,0.444,1
"240",2832782,22,"Mujer","Diestro",5,240,"circulo","extrano","Nonmatching","Stranger","Self","Self","Self",1,583,0.583,1
"241",5390520,18,"Mujer","Diestro",1,1,"cuadrado","tu","Nonmatching","Self","Friend","Friend","Close",1,1003,1.003,1
"242",5390520,18,"Mujer","Diestro",1,2,"circulo","tu","Nonmatching","Self","Stranger","Stranger","Stranger",1,758,0.758,1
"243",5390520,18,"Mujer","Diestro",1,3,"triangulo","extrano","Nonmatching","Stranger","Self","Self","Self",1,1016,1.016,1
"244",5390520,18,"Mujer","Diestro",1,4,"circulo","extrano","Matching","Stranger","Stranger","Stranger","Stranger",1,748,0.748,0
"245",5390520,18,"Mujer","Diestro",1,5,"circulo","amigo","Nonmatching","Friend","Stranger","Stranger","Stranger",1,946,0.946,1
"246",5390520,18,"Mujer","Diestro",1,6,"circulo","extrano","Matching","Stranger","Stranger","Stranger","Stranger",1,847,0.847,0
"247",5390520,18,"Mujer","Diestro",1,7,"triangulo","extrano","Nonmatching","Stranger","Self","Self","Self",1,796,0.796,1
"248",5390520,18,"Mujer","Diestro",1,8,"triangulo","amigo","Nonmatching","Friend","Self","Self","Self",1,655,0.655,1
"249",5390520,18,"Mujer","Diestro",1,9,"circulo","extrano","Matching","Stranger","Stranger","Stranger","Stranger",5,1011,1.011,1
"250",5390520,18,"Mujer","Diestro",1,10,"triangulo","tu","Matching","Self","Self","Self","Self",5,500,0.5,1
"251",5390520,18,"Mujer","Diestro",1,11,"circulo","extrano","Matching","Stranger","Stranger","Stranger","Stranger",5,740,0.74,1
"252",5390520,18,"Mujer","Diestro",1,12,"circulo","amigo","Nonmatching","Friend","Stranger","Stranger","Stranger",NA,0,0,0
"253",5390520,18,"Mujer","Diestro",1,13,"cuadrado","extrano","Nonmatching","Stranger","Friend","Friend","Close",1,1003,1.003,1
"254",5390520,18,"Mujer","Diestro",1,14,"cuadrado","amigo","Matching","Friend","Friend","Friend","Close",5,1069,1.069,1
"255",5390520,18,"Mujer","Diestro",1,15,"circulo","amigo","Nonmatching","Friend","Stranger","Stranger","Stranger",1,926,0.926,1
"256",5390520,18,"Mujer","Diestro",1,16,"cuadrado","amigo","Matching","Friend","Friend","Friend","Close",5,1022,1.022,1
"257",5390520,18,"Mujer","Diestro",1,17,"circulo","extrano","Matching","Stranger","Stranger","Stranger","Stranger",5,766,0.766,1
"258",5390520,18,"Mujer","Diestro",1,18,"cuadrado","tu","Nonmatching","Self","Friend","Friend","Close",1,625,0.625,1
"259",5390520,18,"Mujer","Diestro",1,19,"triangulo","tu","Matching","Self","Self","Self","Self",5,519,0.519,1
"260",5390520,18,"Mujer","Diestro",1,20,"circulo","tu","Nonmatching","Self","Stranger","Stranger","Stranger",1,699,0.699,1
"261",5390520,18,"Mujer","Diestro",1,21,"circulo","extrano","Matching","Stranger","Stranger","Stranger","Stranger",5,833,0.833,1
"262",5390520,18,"Mujer","Diestro",1,22,"triangulo","amigo","Nonmatching","Friend","Self","Self","Self",1,817,0.817,1
"263",5390520,18,"Mujer","Diestro",1,23,"triangulo","amigo","Nonmatching","Friend","Self","Self","Self",1,817,0.817,1
"264",5390520,18,"Mujer","Diestro",1,24,"triangulo","extrano","Nonmatching","Stranger","Self","Self","Self",1,811,0.811,1
"265",5390520,18,"Mujer","Diestro",1,25,"triangulo","tu","Matching","Self","Self","Self","Self",5,431,0.431,1
"266",5390520,18,"Mujer","Diestro",1,26,"triangulo","tu","Matching","Self","Self","Self","Self",5,382,0.382,1
"267",5390520,18,"Mujer","Diestro",1,27,"cuadrado","tu","Nonmatching","Self","Friend","Friend","Close",1,705,0.705,1
"268",5390520,18,"Mujer","Diestro",1,28,"circulo","extrano","Matching","Stranger","Stranger","Stranger","Stranger",NA,0,0,0
"269",5390520,18,"Mujer","Diestro",1,29,"triangulo","extrano","Nonmatching","Stranger","Self","Self","Self",1,919,0.919,1
"270",5390520,18,"Mujer","Diestro",1,30,"cuadrado","amigo","Matching","Friend","Friend","Friend","Close",5,579,0.579,1
"271",5390520,18,"Mujer","Diestro",1,31,"cuadrado","amigo","Matching","Friend","Friend","Friend","Close",5,491,0.491,1
"272",5390520,18,"Mujer","Diestro",1,32,"cuadrado","extrano","Nonmatching","Stranger","Friend","Friend","Close",5,494,0.494,0
"273",5390520,18,"Mujer","Diestro",1,33,"triangulo","tu","Matching","Self","Self","Self","Self",5,418,0.418,1
"274",5390520,18,"Mujer","Diestro",1,34,"circulo","extrano","Matching","Stranger","Stranger","Stranger","Stranger",5,754,0.754,1
"275",5390520,18,"Mujer","Diestro",1,35,"cuadrado","extrano","Nonmatching","Stranger","Friend","Friend","Close",1,738,0.738,1
"276",5390520,18,"Mujer","Diestro",1,36,"triangulo","tu","Matching","Self","Self","Self","Self",5,242,0.242,1
"277",5390520,18,"Mujer","Diestro",1,37,"triangulo","tu","Matching","Self","Self","Self","Self",5,318,0.318,1
"278",5390520,18,"Mujer","Diestro",1,38,"cuadrado","amigo","Matching","Friend","Friend","Friend","Close",5,545,0.545,1
"279",5390520,18,"Mujer","Diestro",1,39,"cuadrado","tu","Nonmatching","Self","Friend","Friend","Close",1,605,0.605,1
"280",5390520,18,"Mujer","Diestro",1,40,"triangulo","tu","Matching","Self","Self","Self","Self",5,444,0.444,1
"281",5390520,18,"Mujer","Diestro",1,41,"cuadrado","amigo","Matching","Friend","Friend","Friend","Close",5,585,0.585,1
"282",5390520,18,"Mujer","Diestro",1,42,"cuadrado","extrano","Nonmatching","Stranger","Friend","Friend","Close",1,460,0.46,1
"283",5390520,18,"Mujer","Diestro",1,43,"triangulo","amigo","Nonmatching","Friend","Self","Self","Self",5,491,0.491,0
"284",5390520,18,"Mujer","Diestro",1,44,"cuadrado","amigo","Matching","Friend","Friend","Friend","Close",1,836,0.836,0
"285",5390520,18,"Mujer","Diestro",1,45,"circulo","tu","Nonmatching","Self","Stranger","Stranger","Stranger",5,356,0.356,0
"286",5390520,18,"Mujer","Diestro",1,46,"cuadrado","amigo","Matching","Friend","Friend","Friend","Close",NA,0,0,0
"287",5390520,18,"Mujer","Diestro",1,47,"circulo","amigo","Nonmatching","Friend","Stranger","Stranger","Stranger",1,624,0.624,1
"288",5390520,18,"Mujer","Diestro",1,48,"circulo","tu","Nonmatching","Self","Stranger","Stranger","Stranger",1,631,0.631,1
"289",5390520,18,"Mujer","Diestro",2,49,"circulo","extrano","Matching","Stranger","Stranger","Stranger","Stranger",1,432,0.432,0
"290",5390520,18,"Mujer","Diestro",2,50,"triangulo","extrano","Nonmatching","Stranger","Self","Self","Self",1,588,0.588,1
"291",5390520,18,"Mujer","Diestro",2,51,"triangulo","tu","Matching","Self","Self","Self","Self",5,648,0.648,1
"292",5390520,18,"Mujer","Diestro",2,52,"circulo","tu","Nonmatching","Self","Stranger","Stranger","Stranger",1,568,0.568,1
"293",5390520,18,"Mujer","Diestro",2,53,"triangulo","extrano","Nonmatching","Stranger","Self","Self","Self",1,670,0.67,1
"294",5390520,18,"Mujer","Diestro",2,54,"circulo","amigo","Nonmatching","Friend","Stranger","Stranger","Stranger",1,370,0.37,1
"295",5390520,18,"Mujer","Diestro",2,55,"circulo","extrano","Matching","Stranger","Stranger","Stranger","Stranger",5,652,0.652,1
"296",5390520,18,"Mujer","Diestro",2,56,"circulo","amigo","Nonmatching","Friend","Stranger","Stranger","Stranger",1,702,0.702,1
"297",5390520,18,"Mujer","Diestro",2,57,"circulo","amigo","Nonmatching","Friend","Stranger","Stranger","Stranger",1,660,0.66,1
"298",5390520,18,"Mujer","Diestro",2,58,"circulo","tu","Nonmatching","Self","Stranger","Stranger","Stranger",5,297,0.297,0
"299",5390520,18,"Mujer","Diestro",2,59,"cuadrado","amigo","Matching","Friend","Friend","Friend","Close",1,644,0.644,0
"300",5390520,18,"Mujer","Diestro",2,60,"triangulo","tu","Matching","Self","Self","Self","Self",5,305,0.305,1
"301",5390520,18,"Mujer","Diestro",2,61,"circulo","extrano","Matching","Stranger","Stranger","Stranger","Stranger",1,711,0.711,0
"302",5390520,18,"Mujer","Diestro",2,62,"triangulo","tu","Matching","Self","Self","Self","Self",5,463,0.463,1
"303",5390520,18,"Mujer","Diestro",2,63,"cuadrado","tu","Nonmatching","Self","Friend","Friend","Close",1,855,0.855,1
"304",5390520,18,"Mujer","Diestro",2,64,"cuadrado","tu","Nonmatching","Self","Friend","Friend","Close",1,637,0.637,1
"305",5390520,18,"Mujer","Diestro",2,65,"circulo","extrano","Matching","Stranger","Stranger","Stranger","Stranger",1,943,0.943,0
"306",5390520,18,"Mujer","Diestro",2,66,"triangulo","amigo","Nonmatching","Friend","Self","Self","Self",NA,0,0,0
"307",5390520,18,"Mujer","Diestro",2,67,"triangulo","tu","Matching","Self","Self","Self","Self",NA,0,0,0
"308",5390520,18,"Mujer","Diestro",2,68,"triangulo","tu","Matching","Self","Self","Self","Self",5,306,0.306,1
"309",5390520,18,"Mujer","Diestro",2,69,"cuadrado","amigo","Matching","Friend","Friend","Friend","Close",5,648,0.648,1
"310",5390520,18,"Mujer","Diestro",2,70,"circulo","tu","Nonmatching","Self","Stranger","Stranger","Stranger",1,496,0.496,1
"311",5390520,18,"Mujer","Diestro",2,71,"cuadrado","amigo","Matching","Friend","Friend","Friend","Close",5,684,0.684,1
"312",5390520,18,"Mujer","Diestro",2,72,"cuadrado","amigo","Matching","Friend","Friend","Friend","Close",NA,0,0,0
"313",5390520,18,"Mujer","Diestro",2,73,"triangulo","tu","Matching","Self","Self","Self","Self",5,439,0.439,1
"314",5390520,18,"Mujer","Diestro",2,74,"circulo","extrano","Matching","Stranger","Stranger","Stranger","Stranger",5,741,0.741,1
"315",5390520,18,"Mujer","Diestro",2,75,"triangulo","amigo","Nonmatching","Friend","Self","Self","Self",1,651,0.651,1
"316",5390520,18,"Mujer","Diestro",2,76,"circulo","extrano","Matching","Stranger","Stranger","Stranger","Stranger",NA,0,0,0
"317",5390520,18,"Mujer","Diestro",2,77,"circulo","extrano","Matching","Stranger","Stranger","Stranger","Stranger",5,437,0.437,1
"318",5390520,18,"Mujer","Diestro",2,78,"circulo","extrano","Matching","Stranger","Stranger","Stranger","Stranger",5,299,0.299,1
"319",5390520,18,"Mujer","Diestro",2,79,"triangulo","extrano","Nonmatching","Stranger","Self","Self","Self",1,874,0.874,1
"320",5390520,18,"Mujer","Diestro",2,80,"triangulo","amigo","Nonmatching","Friend","Self","Self","Self",5,853,0.853,0
"321",5390520,18,"Mujer","Diestro",2,81,"cuadrado","amigo","Matching","Friend","Friend","Friend","Close",5,930,0.93,1
"322",5390520,18,"Mujer","Diestro",2,82,"cuadrado","extrano","Nonmatching","Stranger","Friend","Friend","Close",5,374,0.374,0
"323",5390520,18,"Mujer","Diestro",2,83,"cuadrado","extrano","Nonmatching","Stranger","Friend","Friend","Close",1,601,0.601,1
"324",5390520,18,"Mujer","Diestro",2,84,"triangulo","extrano","Nonmatching","Stranger","Self","Self","Self",1,484,0.484,1
"325",5390520,18,"Mujer","Diestro",2,85,"cuadrado","amigo","Matching","Friend","Friend","Friend","Close",5,547,0.547,1
"326",5390520,18,"Mujer","Diestro",2,86,"triangulo","tu","Matching","Self","Self","Self","Self",5,397,0.397,1
"327",5390520,18,"Mujer","Diestro",2,87,"cuadrado","amigo","Matching","Friend","Friend","Friend","Close",5,812,0.812,1
"328",5390520,18,"Mujer","Diestro",2,88,"cuadrado","extrano","Nonmatching","Stranger","Friend","Friend","Close",1,603,0.603,1
"329",5390520,18,"Mujer","Diestro",2,89,"cuadrado","tu","Nonmatching","Self","Friend","Friend","Close",5,735,0.735,0
"330",5390520,18,"Mujer","Diestro",2,90,"triangulo","amigo","Nonmatching","Friend","Self","Self","Self",NA,0,0,0
"331",5390520,18,"Mujer","Diestro",2,91,"cuadrado","extrano","Nonmatching","Stranger","Friend","Friend","Close",1,769,0.769,1
"332",5390520,18,"Mujer","Diestro",2,92,"circulo","amigo","Nonmatching","Friend","Stranger","Stranger","Stranger",5,724,0.724,0
"333",5390520,18,"Mujer","Diestro",2,93,"cuadrado","tu","Nonmatching","Self","Friend","Friend","Close",1,988,0.988,1
"334",5390520,18,"Mujer","Diestro",2,94,"cuadrado","amigo","Matching","Friend","Friend","Friend","Close",5,694,0.694,1
"335",5390520,18,"Mujer","Diestro",2,95,"circulo","tu","Nonmatching","Self","Stranger","Stranger","Stranger",5,384,0.384,0
"336",5390520,18,"Mujer","Diestro",2,96,"triangulo","tu","Matching","Self","Self","Self","Self",5,862,0.862,1
"337",5390520,18,"Mujer","Diestro",3,97,"cuadrado","amigo","Matching","Friend","Friend","Friend","Close",5,710,0.71,1
"338",5390520,18,"Mujer","Diestro",3,98,"circulo","extrano","Matching","Stranger","Stranger","Stranger","Stranger",5,837,0.837,1
"339",5390520,18,"Mujer","Diestro",3,99,"triangulo","extrano","Nonmatching","Stranger","Self","Self","Self",1,1026,1.026,1
"340",5390520,18,"Mujer","Diestro",3,100,"triangulo","tu","Matching","Self","Self","Self","Self",5,657,0.657,1
"341",5390520,18,"Mujer","Diestro",3,101,"triangulo","amigo","Nonmatching","Friend","Self","Self","Self",1,830,0.83,1
"342",5390520,18,"Mujer","Diestro",3,102,"cuadrado","amigo","Matching","Friend","Friend","Friend","Close",5,809,0.809,1
"343",5390520,18,"Mujer","Diestro",3,103,"triangulo","tu","Matching","Self","Self","Self","Self",5,418,0.418,1
"344",5390520,18,"Mujer","Diestro",3,104,"circulo","extrano","Matching","Stranger","Stranger","Stranger","Stranger",5,600,0.6,1
"345",5390520,18,"Mujer","Diestro",3,105,"circulo","tu","Nonmatching","Self","Stranger","Stranger","Stranger",1,732,0.732,1
"346",5390520,18,"Mujer","Diestro",3,106,"cuadrado","amigo","Matching","Friend","Friend","Friend","Close",5,956,0.956,1
"347",5390520,18,"Mujer","Diestro",3,107,"triangulo","extrano","Nonmatching","Stranger","Self","Self","Self",1,695,0.695,1
"348",5390520,18,"Mujer","Diestro",3,108,"circulo","tu","Nonmatching","Self","Stranger","Stranger","Stranger",1,673,0.673,1
"349",5390520,18,"Mujer","Diestro",3,109,"cuadrado","extrano","Nonmatching","Stranger","Friend","Friend","Close",1,925,0.925,1
"350",5390520,18,"Mujer","Diestro",3,110,"cuadrado","amigo","Matching","Friend","Friend","Friend","Close",NA,0,0,0
"351",5390520,18,"Mujer","Diestro",3,111,"circulo","extrano","Matching","Stranger","Stranger","Stranger","Stranger",NA,0,0,0
"352",5390520,18,"Mujer","Diestro",3,112,"cuadrado","tu","Nonmatching","Self","Friend","Friend","Close",5,296,0.296,0
"353",5390520,18,"Mujer","Diestro",3,113,"cuadrado","amigo","Matching","Friend","Friend","Friend","Close",5,377,0.377,1
"354",5390520,18,"Mujer","Diestro",3,114,"triangulo","tu","Matching","Self","Self","Self","Self",5,359,0.359,1
"355",5390520,18,"Mujer","Diestro",3,115,"circulo","extrano","Matching","Stranger","Stranger","Stranger","Stranger",5,755,0.755,1
"356",5390520,18,"Mujer","Diestro",3,116,"circulo","extrano","Matching","Stranger","Stranger","Stranger","Stranger",5,637,0.637,1
"357",5390520,18,"Mujer","Diestro",3,117,"circulo","amigo","Nonmatching","Friend","Stranger","Stranger","Stranger",5,644,0.644,0
"358",5390520,18,"Mujer","Diestro",3,118,"circulo","extrano","Matching","Stranger","Stranger","Stranger","Stranger",5,981,0.981,1
"359",5390520,18,"Mujer","Diestro",3,119,"circulo","amigo","Nonmatching","Friend","Stranger","Stranger","Stranger",5,772,0.772,0
"360",5390520,18,"Mujer","Diestro",3,120,"cuadrado","amigo","Matching","Friend","Friend","Friend","Close",NA,0,0,0
"361",5390520,18,"Mujer","Diestro",3,121,"triangulo","amigo","Nonmatching","Friend","Self","Self","Self",1,889,0.889,1
"362",5390520,18,"Mujer","Diestro",3,122,"cuadrado","tu","Nonmatching","Self","Friend","Friend","Close",5,439,0.439,0
"363",5390520,18,"Mujer","Diestro",3,123,"circulo","amigo","Nonmatching","Friend","Stranger","Stranger","Stranger",5,904,0.904,0
"364",5390520,18,"Mujer","Diestro",3,124,"cuadrado","extrano","Nonmatching","Stranger","Friend","Friend","Close",1,731,0.731,1
"365",5390520,18,"Mujer","Diestro",3,125,"circulo","amigo","Nonmatching","Friend","Stranger","Stranger","Stranger",5,1024,1.024,0
"366",5390520,18,"Mujer","Diestro",3,126,"circulo","tu","Nonmatching","Self","Stranger","Stranger","Stranger",5,448,0.448,0
"367",5390520,18,"Mujer","Diestro",3,127,"triangulo","tu","Matching","Self","Self","Self","Self",5,758,0.758,1
"368",5390520,18,"Mujer","Diestro",3,128,"triangulo","extrano","Nonmatching","Stranger","Self","Self","Self",1,689,0.689,1
"369",5390520,18,"Mujer","Diestro",3,129,"triangulo","tu","Matching","Self","Self","Self","Self",5,479,0.479,1
"370",5390520,18,"Mujer","Diestro",3,130,"circulo","tu","Nonmatching","Self","Stranger","Stranger","Stranger",1,665,0.665,1
"371",5390520,18,"Mujer","Diestro",3,131,"cuadrado","tu","Nonmatching","Self","Friend","Friend","Close",1,852,0.852,1
"372",5390520,18,"Mujer","Diestro",3,132,"triangulo","extrano","Nonmatching","Stranger","Self","Self","Self",1,833,0.833,1
"373",5390520,18,"Mujer","Diestro",3,133,"triangulo","amigo","Nonmatching","Friend","Self","Self","Self",1,617,0.617,1
"374",5390520,18,"Mujer","Diestro",3,134,"triangulo","tu","Matching","Self","Self","Self","Self",5,260,0.26,1
"375",5390520,18,"Mujer","Diestro",3,135,"cuadrado","amigo","Matching","Friend","Friend","Friend","Close",5,884,0.884,1
"376",5390520,18,"Mujer","Diestro",3,136,"cuadrado","tu","Nonmatching","Self","Friend","Friend","Close",1,725,0.725,1
"377",5390520,18,"Mujer","Diestro",3,137,"circulo","extrano","Matching","Stranger","Stranger","Stranger","Stranger",NA,0,0,0
"378",5390520,18,"Mujer","Diestro",3,138,"cuadrado","extrano","Nonmatching","Stranger","Friend","Friend","Close",1,747,0.747,1
"379",5390520,18,"Mujer","Diestro",3,139,"triangulo","tu","Matching","Self","Self","Self","Self",5,517,0.517,1
"380",5390520,18,"Mujer","Diestro",3,140,"cuadrado","extrano","Nonmatching","Stranger","Friend","Friend","Close",5,791,0.791,0
"381",5390520,18,"Mujer","Diestro",3,141,"circulo","extrano","Matching","Stranger","Stranger","Stranger","Stranger",NA,0,0,0
"382",5390520,18,"Mujer","Diestro",3,142,"cuadrado","amigo","Matching","Friend","Friend","Friend","Close",5,337,0.337,1
"383",5390520,18,"Mujer","Diestro",3,143,"triangulo","tu","Matching","Self","Self","Self","Self",5,354,0.354,1
"384",5390520,18,"Mujer","Diestro",3,144,"triangulo","amigo","Nonmatching","Friend","Self","Self","Self",1,558,0.558,1
"385",5390520,18,"Mujer","Diestro",4,145,"circulo","tu","Nonmatching","Self","Stranger","Stranger","Stranger",5,516,0.516,0
"386",5390520,18,"Mujer","Diestro",4,146,"circulo","amigo","Nonmatching","Friend","Stranger","Stranger","Stranger",1,886,0.886,1
"387",5390520,18,"Mujer","Diestro",4,147,"triangulo","tu","Matching","Self","Self","Self","Self",5,282,0.282,1
"388",5390520,18,"Mujer","Diestro",4,148,"cuadrado","extrano","Nonmatching","Stranger","Friend","Friend","Close",1,731,0.731,1
"389",5390520,18,"Mujer","Diestro",4,149,"cuadrado","amigo","Matching","Friend","Friend","Friend","Close",5,1062,1.062,1
"390",5390520,18,"Mujer","Diestro",4,150,"cuadrado","tu","Nonmatching","Self","Friend","Friend","Close",1,600,0.6,1
"391",5390520,18,"Mujer","Diestro",4,151,"circulo","tu","Nonmatching","Self","Stranger","Stranger","Stranger",1,663,0.663,1
"392",5390520,18,"Mujer","Diestro",4,152,"cuadrado","extrano","Nonmatching","Stranger","Friend","Friend","Close",NA,0,0,0
"393",5390520,18,"Mujer","Diestro",4,153,"circulo","extrano","Matching","Stranger","Stranger","Stranger","Stranger",1,535,0.535,0
"394",5390520,18,"Mujer","Diestro",4,154,"cuadrado","tu","Nonmatching","Self","Friend","Friend","Close",1,583,0.583,1
"395",5390520,18,"Mujer","Diestro",4,155,"triangulo","tu","Matching","Self","Self","Self","Self",5,358,0.358,1
"396",5390520,18,"Mujer","Diestro",4,156,"circulo","extrano","Matching","Stranger","Stranger","Stranger","Stranger",NA,0,0,0
"397",5390520,18,"Mujer","Diestro",4,157,"triangulo","tu","Matching","Self","Self","Self","Self",NA,0,0,0
"398",5390520,18,"Mujer","Diestro",4,158,"triangulo","extrano","Nonmatching","Stranger","Self","Self","Self",5,537,0.537,0
"399",5390520,18,"Mujer","Diestro",4,159,"circulo","tu","Nonmatching","Self","Stranger","Stranger","Stranger",NA,0,0,0
"400",5390520,18,"Mujer","Diestro",4,160,"triangulo","tu","Matching","Self","Self","Self","Self",5,359,0.359,1
"401",5390520,18,"Mujer","Diestro",4,161,"cuadrado","amigo","Matching","Friend","Friend","Friend","Close",5,613,0.613,1
"402",5390520,18,"Mujer","Diestro",4,162,"triangulo","extrano","Nonmatching","Stranger","Self","Self","Self",1,473,0.473,1
"403",5390520,18,"Mujer","Diestro",4,163,"triangulo","amigo","Nonmatching","Friend","Self","Self","Self",NA,0,0,0
"404",5390520,18,"Mujer","Diestro",4,164,"cuadrado","amigo","Matching","Friend","Friend","Friend","Close",5,430,0.43,1
"405",5390520,18,"Mujer","Diestro",4,165,"circulo","extrano","Matching","Stranger","Stranger","Stranger","Stranger",5,714,0.714,1
"406",5390520,18,"Mujer","Diestro",4,166,"circulo","extrano","Matching","Stranger","Stranger","Stranger","Stranger",5,338,0.338,1
"407",5390520,18,"Mujer","Diestro",4,167,"cuadrado","extrano","Nonmatching","Stranger","Friend","Friend","Close",1,639,0.639,1
"408",5390520,18,"Mujer","Diestro",4,168,"triangulo","extrano","Nonmatching","Stranger","Self","Self","Self",1,678,0.678,1
"409",5390520,18,"Mujer","Diestro",4,169,"circulo","extrano","Matching","Stranger","Stranger","Stranger","Stranger",1,350,0.35,0
"410",5390520,18,"Mujer","Diestro",4,170,"triangulo","tu","Matching","Self","Self","Self","Self",5,290,0.29,1
"411",5390520,18,"Mujer","Diestro",4,171,"triangulo","tu","Matching","Self","Self","Self","Self",NA,0,0,0
"412",5390520,18,"Mujer","Diestro",4,172,"cuadrado","amigo","Matching","Friend","Friend","Friend","Close",5,324,0.324,1
"413",5390520,18,"Mujer","Diestro",4,173,"circulo","extrano","Matching","Stranger","Stranger","Stranger","Stranger",1,758,0.758,0
"414",5390520,18,"Mujer","Diestro",4,174,"cuadrado","tu","Nonmatching","Self","Friend","Friend","Close",5,342,0.342,0
"415",5390520,18,"Mujer","Diestro",4,175,"triangulo","tu","Matching","Self","Self","Self","Self",NA,0,0,0
"416",5390520,18,"Mujer","Diestro",4,176,"cuadrado","amigo","Matching","Friend","Friend","Friend","Close",5,321,0.321,1
"417",5390520,18,"Mujer","Diestro",4,177,"circulo","amigo","Nonmatching","Friend","Stranger","Stranger","Stranger",1,619,0.619,1
"418",5390520,18,"Mujer","Diestro",4,178,"triangulo","amigo","Nonmatching","Friend","Self","Self","Self",1,540,0.54,1
"419",5390520,18,"Mujer","Diestro",4,179,"cuadrado","amigo","Matching","Friend","Friend","Friend","Close",5,737,0.737,1
"420",5390520,18,"Mujer","Diestro",4,180,"circulo","extrano","Matching","Stranger","Stranger","Stranger","Stranger",5,443,0.443,1
"421",5390520,18,"Mujer","Diestro",4,181,"cuadrado","extrano","Nonmatching","Stranger","Friend","Friend","Close",1,982,0.982,1
"422",5390520,18,"Mujer","Diestro",4,182,"circulo","amigo","Nonmatching","Friend","Stranger","Stranger","Stranger",5,800,0.8,0
"423",5390520,18,"Mujer","Diestro",4,183,"circulo","tu","Nonmatching","Self","Stranger","Stranger","Stranger",5,830,0.83,0
"424",5390520,18,"Mujer","Diestro",4,184,"triangulo","extrano","Nonmatching","Stranger","Self","Self","Self",1,760,0.76,1
"425",5390520,18,"Mujer","Diestro",4,185,"cuadrado","tu","Nonmatching","Self","Friend","Friend","Close",1,631,0.631,1
"426",5390520,18,"Mujer","Diestro",4,186,"cuadrado","amigo","Matching","Friend","Friend","Friend","Close",5,464,0.464,1
"427",5390520,18,"Mujer","Diestro",4,187,"triangulo","amigo","Nonmatching","Friend","Self","Self","Self",1,750,0.75,1
"428",5390520,18,"Mujer","Diestro",4,188,"triangulo","amigo","Nonmatching","Friend","Self","Self","Self",1,410,0.41,1
"429",5390520,18,"Mujer","Diestro",4,189,"cuadrado","amigo","Matching","Friend","Friend","Friend","Close",1,384,0.384,0
"430",5390520,18,"Mujer","Diestro",4,190,"circulo","amigo","Nonmatching","Friend","Stranger","Stranger","Stranger",1,664,0.664,1
"431",5390520,18,"Mujer","Diestro",4,191,"triangulo","tu","Matching","Self","Self","Self","Self",5,576,0.576,1
"432",5390520,18,"Mujer","Diestro",4,192,"circulo","extrano","Matching","Stranger","Stranger","Stranger","Stranger",5,591,0.591,1
"433",5390520,18,"Mujer","Diestro",5,193,"cuadrado","amigo","Matching","Friend","Friend","Friend","Close",NA,0,0,0
"434",5390520,18,"Mujer","Diestro",5,194,"triangulo","extrano","Nonmatching","Stranger","Self","Self","Self",5,752,0.752,0
"435",5390520,18,"Mujer","Diestro",5,195,"circulo","tu","Nonmatching","Self","Stranger","Stranger","Stranger",5,371,0.371,0
"436",5390520,18,"Mujer","Diestro",5,196,"circulo","amigo","Nonmatching","Friend","Stranger","Stranger","Stranger",5,451,0.451,0
"437",5390520,18,"Mujer","Diestro",5,197,"triangulo","extrano","Nonmatching","Stranger","Self","Self","Self",5,880,0.88,0
"438",5390520,18,"Mujer","Diestro",5,198,"triangulo","tu","Matching","Self","Self","Self","Self",5,557,0.557,1
"439",5390520,18,"Mujer","Diestro",5,199,"circulo","amigo","Nonmatching","Friend","Stranger","Stranger","Stranger",1,619,0.619,1
"440",5390520,18,"Mujer","Diestro",5,200,"circulo","extrano","Matching","Stranger","Stranger","Stranger","Stranger",5,743,0.743,1
"441",5390520,18,"Mujer","Diestro",5,201,"circulo","extrano","Matching","Stranger","Stranger","Stranger","Stranger",5,573,0.573,1
"442",5390520,18,"Mujer","Diestro",5,202,"circulo","extrano","Matching","Stranger","Stranger","Stranger","Stranger",5,605,0.605,1
"443",5390520,18,"Mujer","Diestro",5,203,"circulo","extrano","Matching","Stranger","Stranger","Stranger","Stranger",5,751,0.751,1
"444",5390520,18,"Mujer","Diestro",5,204,"triangulo","tu","Matching","Self","Self","Self","Self",5,542,0.542,1
"445",5390520,18,"Mujer","Diestro",5,205,"circulo","tu","Nonmatching","Self","Stranger","Stranger","Stranger",1,568,0.568,1
"446",5390520,18,"Mujer","Diestro",5,206,"triangulo","tu","Matching","Self","Self","Self","Self",5,775,0.775,1
"447",5390520,18,"Mujer","Diestro",5,207,"circulo","tu","Nonmatching","Self","Stranger","Stranger","Stranger",1,601,0.601,1
"448",5390520,18,"Mujer","Diestro",5,208,"cuadrado","extrano","Nonmatching","Stranger","Friend","Friend","Close",1,860,0.86,1
"449",5390520,18,"Mujer","Diestro",5,209,"cuadrado","amigo","Matching","Friend","Friend","Friend","Close",5,409,0.409,1
"450",5390520,18,"Mujer","Diestro",5,210,"triangulo","amigo","Nonmatching","Friend","Self","Self","Self",1,693,0.693,1
"451",5390520,18,"Mujer","Diestro",5,211,"cuadrado","amigo","Matching","Friend","Friend","Friend","Close",1,959,0.959,0
"452",5390520,18,"Mujer","Diestro",5,212,"cuadrado","amigo","Matching","Friend","Friend","Friend","Close",5,418,0.418,1
"453",5390520,18,"Mujer","Diestro",5,213,"cuadrado","amigo","Matching","Friend","Friend","Friend","Close",5,547,0.547,1
"454",5390520,18,"Mujer","Diestro",5,214,"triangulo","tu","Matching","Self","Self","Self","Self",5,453,0.453,1
"455",5390520,18,"Mujer","Diestro",5,215,"triangulo","extrano","Nonmatching","Stranger","Self","Self","Self",1,626,0.626,1
"456",5390520,18,"Mujer","Diestro",5,216,"cuadrado","extrano","Nonmatching","Stranger","Friend","Friend","Close",5,519,0.519,0
"457",5390520,18,"Mujer","Diestro",5,217,"cuadrado","tu","Nonmatching","Self","Friend","Friend","Close",1,638,0.638,1
"458",5390520,18,"Mujer","Diestro",5,218,"cuadrado","amigo","Matching","Friend","Friend","Friend","Close",5,725,0.725,1
"459",5390520,18,"Mujer","Diestro",5,219,"triangulo","tu","Matching","Self","Self","Self","Self",1,686,0.686,0
"460",5390520,18,"Mujer","Diestro",5,220,"cuadrado","amigo","Matching","Friend","Friend","Friend","Close",NA,0,0,0
"461",5390520,18,"Mujer","Diestro",5,221,"cuadrado","tu","Nonmatching","Self","Friend","Friend","Close",5,229,0.229,0
"462",5390520,18,"Mujer","Diestro",5,222,"triangulo","extrano","Nonmatching","Stranger","Self","Self","Self",5,755,0.755,0
"463",5390520,18,"Mujer","Diestro",5,223,"circulo","amigo","Nonmatching","Friend","Stranger","Stranger","Stranger",NA,0,0,0
"464",5390520,18,"Mujer","Diestro",5,224,"triangulo","amigo","Nonmatching","Friend","Self","Self","Self",NA,0,0,0
"465",5390520,18,"Mujer","Diestro",5,225,"cuadrado","tu","Nonmatching","Self","Friend","Friend","Close",1,786,0.786,1
"466",5390520,18,"Mujer","Diestro",5,226,"triangulo","tu","Matching","Self","Self","Self","Self",5,416,0.416,1
"467",5390520,18,"Mujer","Diestro",5,227,"triangulo","amigo","Nonmatching","Friend","Self","Self","Self",5,702,0.702,0
"468",5390520,18,"Mujer","Diestro",5,228,"triangulo","amigo","Nonmatching","Friend","Self","Self","Self",1,734,0.734,1
"469",5390520,18,"Mujer","Diestro",5,229,"circulo","tu","Nonmatching","Self","Stranger","Stranger","Stranger",1,708,0.708,1
"470",5390520,18,"Mujer","Diestro",5,230,"circulo","extrano","Matching","Stranger","Stranger","Stranger","Stranger",5,656,0.656,1
"471",5390520,18,"Mujer","Diestro",5,231,"circulo","amigo","Nonmatching","Friend","Stranger","Stranger","Stranger",1,733,0.733,1
"472",5390520,18,"Mujer","Diestro",5,232,"circulo","extrano","Matching","Stranger","Stranger","Stranger","Stranger",5,693,0.693,1
"473",5390520,18,"Mujer","Diestro",5,233,"cuadrado","amigo","Matching","Friend","Friend","Friend","Close",NA,0,0,0
"474",5390520,18,"Mujer","Diestro",5,234,"cuadrado","extrano","Nonmatching","Stranger","Friend","Friend","Close",5,760,0.76,0
"475",5390520,18,"Mujer","Diestro",5,235,"cuadrado","tu","Nonmatching","Self","Friend","Friend","Close",1,684,0.684,1
"476",5390520,18,"Mujer","Diestro",5,236,"triangulo","tu","Matching","Self","Self","Self","Self",5,408,0.408,1
"477",5390520,18,"Mujer","Diestro",5,237,"triangulo","tu","Matching","Self","Self","Self","Self",5,565,0.565,1
"478",5390520,18,"Mujer","Diestro",5,238,"cuadrado","extrano","Nonmatching","Stranger","Friend","Friend","Close",1,746,0.746,1
"479",5390520,18,"Mujer","Diestro",5,239,"circulo","extrano","Matching","Stranger","Stranger","Stranger","Stranger",5,673,0.673,1
"480",5390520,18,"Mujer","Diestro",5,240,"circulo","extrano","Matching","Stranger","Stranger","Stranger","Stranger",5,601,0.601,1
"481",6121887,17,"Mujer","Diestro",1,1,"cuadrado","extrano","Matching","Stranger","Stranger","Stranger","Stranger",1,616,0.616,0
"482",6121887,17,"Mujer","Diestro",1,2,"cuadrado","extrano","Matching","Stranger","Stranger","Stranger","Stranger",5,853,0.853,1
"483",6121887,17,"Mujer","Diestro",1,3,"circulo","tu","Matching","Self","Self","Self","Self",5,455,0.455,1
"484",6121887,17,"Mujer","Diestro",1,4,"triangulo","amigo","Matching","Friend","Friend","Friend","Close",5,572,0.572,1
"485",6121887,17,"Mujer","Diestro",1,5,"triangulo","tu","Nonmatching","Self","Friend","Friend","Close",1,137,0.137,1
"486",6121887,17,"Mujer","Diestro",1,6,"circulo","extrano","Nonmatching","Stranger","Self","Self","Self",5,400,0.4,0
"487",6121887,17,"Mujer","Diestro",1,7,"circulo","amigo","Nonmatching","Friend","Self","Self","Self",NA,0,0,0
"488",6121887,17,"Mujer","Diestro",1,8,"cuadrado","extrano","Matching","Stranger","Stranger","Stranger","Stranger",5,668,0.668,1
"489",6121887,17,"Mujer","Diestro",1,9,"circulo","extrano","Nonmatching","Stranger","Self","Self","Self",1,776,0.776,1
"490",6121887,17,"Mujer","Diestro",1,10,"cuadrado","extrano","Matching","Stranger","Stranger","Stranger","Stranger",5,958,0.958,1
"491",6121887,17,"Mujer","Diestro",1,11,"circulo","tu","Matching","Self","Self","Self","Self",5,485,0.485,1
"492",6121887,17,"Mujer","Diestro",1,12,"cuadrado","tu","Nonmatching","Self","Stranger","Stranger","Stranger",5,272,0.272,0
"493",6121887,17,"Mujer","Diestro",1,13,"triangulo","amigo","Matching","Friend","Friend","Friend","Close",1,357,0.357,0
"494",6121887,17,"Mujer","Diestro",1,14,"triangulo","amigo","Matching","Friend","Friend","Friend","Close",5,664,0.664,1
"495",6121887,17,"Mujer","Diestro",1,15,"triangulo","amigo","Matching","Friend","Friend","Friend","Close",5,539,0.539,1
"496",6121887,17,"Mujer","Diestro",1,16,"triangulo","tu","Nonmatching","Self","Friend","Friend","Close",1,423,0.423,1
"497",6121887,17,"Mujer","Diestro",1,17,"circulo","extrano","Nonmatching","Stranger","Self","Self","Self",5,583,0.583,0
"498",6121887,17,"Mujer","Diestro",1,18,"cuadrado","extrano","Matching","Stranger","Stranger","Stranger","Stranger",NA,0,0,0
"499",6121887,17,"Mujer","Diestro",1,19,"circulo","tu","Matching","Self","Self","Self","Self",5,528,0.528,1
"500",6121887,17,"Mujer","Diestro",1,20,"circulo","tu","Matching","Self","Self","Self","Self",5,412,0.412,1
"501",6121887,17,"Mujer","Diestro",1,21,"circulo","extrano","Nonmatching","Stranger","Self","Self","Self",1,517,0.517,1
"502",6121887,17,"Mujer","Diestro",1,22,"triangulo","extrano","Nonmatching","Stranger","Friend","Friend","Close",1,1038,1.038,1
"503",6121887,17,"Mujer","Diestro",1,23,"triangulo","tu","Nonmatching","Self","Friend","Friend","Close",1,552,0.552,1
"504",6121887,17,"Mujer","Diestro",1,24,"triangulo","extrano","Nonmatching","Stranger","Friend","Friend","Close",5,247,0.247,0
"505",6121887,17,"Mujer","Diestro",1,25,"cuadrado","extrano","Matching","Stranger","Stranger","Stranger","Stranger",5,828,0.828,1
"506",6121887,17,"Mujer","Diestro",1,26,"circulo","amigo","Nonmatching","Friend","Self","Self","Self",1,425,0.425,1
"507",6121887,17,"Mujer","Diestro",1,27,"triangulo","amigo","Matching","Friend","Friend","Friend","Close",5,378,0.378,1
"508",6121887,17,"Mujer","Diestro",1,28,"cuadrado","extrano","Matching","Stranger","Stranger","Stranger","Stranger",1,407,0.407,0
"509",6121887,17,"Mujer","Diestro",1,29,"cuadrado","tu","Nonmatching","Self","Stranger","Stranger","Stranger",1,601,0.601,1
"510",6121887,17,"Mujer","Diestro",1,30,"cuadrado","amigo","Nonmatching","Friend","Stranger","Stranger","Stranger",1,695,0.695,1
"511",6121887,17,"Mujer","Diestro",1,31,"triangulo","amigo","Matching","Friend","Friend","Friend","Close",5,184,0.184,1
"512",6121887,17,"Mujer","Diestro",1,32,"triangulo","extrano","Nonmatching","Stranger","Friend","Friend","Close",1,455,0.455,1
"513",6121887,17,"Mujer","Diestro",1,33,"triangulo","extrano","Nonmatching","Stranger","Friend","Friend","Close",1,389,0.389,1
"514",6121887,17,"Mujer","Diestro",1,34,"cuadrado","amigo","Nonmatching","Friend","Stranger","Stranger","Stranger",1,709,0.709,1
"515",6121887,17,"Mujer","Diestro",1,35,"cuadrado","tu","Nonmatching","Self","Stranger","Stranger","Stranger",1,615,0.615,1
"516",6121887,17,"Mujer","Diestro",1,36,"cuadrado","tu","Nonmatching","Self","Stranger","Stranger","Stranger",1,427,0.427,1
"517",6121887,17,"Mujer","Diestro",1,37,"triangulo","tu","Nonmatching","Self","Friend","Friend","Close",1,398,0.398,1
"518",6121887,17,"Mujer","Diestro",1,38,"triangulo","amigo","Matching","Friend","Friend","Friend","Close",1,288,0.288,0
"519",6121887,17,"Mujer","Diestro",1,39,"circulo","amigo","Nonmatching","Friend","Self","Self","Self",1,752,0.752,1
"520",6121887,17,"Mujer","Diestro",1,40,"cuadrado","amigo","Nonmatching","Friend","Stranger","Stranger","Stranger",1,433,0.433,1
"521",6121887,17,"Mujer","Diestro",1,41,"circulo","tu","Matching","Self","Self","Self","Self",5,466,0.466,1
"522",6121887,17,"Mujer","Diestro",1,42,"cuadrado","amigo","Nonmatching","Friend","Stranger","Stranger","Stranger",1,388,0.388,1
"523",6121887,17,"Mujer","Diestro",1,43,"circulo","tu","Matching","Self","Self","Self","Self",5,587,0.587,1
"524",6121887,17,"Mujer","Diestro",1,44,"circulo","amigo","Nonmatching","Friend","Self","Self","Self",1,568,0.568,1
"525",6121887,17,"Mujer","Diestro",1,45,"circulo","tu","Matching","Self","Self","Self","Self",1,587,0.587,0
"526",6121887,17,"Mujer","Diestro",1,46,"circulo","tu","Matching","Self","Self","Self","Self",5,319,0.319,1
"527",6121887,17,"Mujer","Diestro",1,47,"triangulo","amigo","Matching","Friend","Friend","Friend","Close",1,454,0.454,0
"528",6121887,17,"Mujer","Diestro",1,48,"cuadrado","extrano","Matching","Stranger","Stranger","Stranger","Stranger",1,696,0.696,0
"529",6121887,17,"Mujer","Diestro",2,49,"circulo","tu","Matching","Self","Self","Self","Self",5,566,0.566,1
"530",6121887,17,"Mujer","Diestro",2,50,"circulo","extrano","Nonmatching","Stranger","Self","Self","Self",1,967,0.967,1
"531",6121887,17,"Mujer","Diestro",2,51,"triangulo","tu","Nonmatching","Self","Friend","Friend","Close",1,612,0.612,1
"532",6121887,17,"Mujer","Diestro",2,52,"triangulo","amigo","Matching","Friend","Friend","Friend","Close",5,462,0.462,1
"533",6121887,17,"Mujer","Diestro",2,53,"cuadrado","extrano","Matching","Stranger","Stranger","Stranger","Stranger",1,616,0.616,0
"534",6121887,17,"Mujer","Diestro",2,54,"cuadrado","amigo","Nonmatching","Friend","Stranger","Stranger","Stranger",1,607,0.607,1
"535",6121887,17,"Mujer","Diestro",2,55,"cuadrado","extrano","Matching","Stranger","Stranger","Stranger","Stranger",5,494,0.494,1
"536",6121887,17,"Mujer","Diestro",2,56,"cuadrado","tu","Nonmatching","Self","Stranger","Stranger","Stranger",1,434,0.434,1
"537",6121887,17,"Mujer","Diestro",2,57,"circulo","extrano","Nonmatching","Stranger","Self","Self","Self",1,818,0.818,1
"538",6121887,17,"Mujer","Diestro",2,58,"circulo","amigo","Nonmatching","Friend","Self","Self","Self",1,646,0.646,1
"539",6121887,17,"Mujer","Diestro",2,59,"circulo","tu","Matching","Self","Self","Self","Self",5,214,0.214,1
"540",6121887,17,"Mujer","Diestro",2,60,"cuadrado","extrano","Matching","Stranger","Stranger","Stranger","Stranger",1,454,0.454,0
"541",6121887,17,"Mujer","Diestro",2,61,"cuadrado","extrano","Matching","Stranger","Stranger","Stranger","Stranger",5,624,0.624,1
"542",6121887,17,"Mujer","Diestro",2,62,"cuadrado","extrano","Matching","Stranger","Stranger","Stranger","Stranger",5,312,0.312,1
"543",6121887,17,"Mujer","Diestro",2,63,"triangulo","extrano","Nonmatching","Stranger","Friend","Friend","Close",1,717,0.717,1
"544",6121887,17,"Mujer","Diestro",2,64,"triangulo","extrano","Nonmatching","Stranger","Friend","Friend","Close",1,569,0.569,1
"545",6121887,17,"Mujer","Diestro",2,65,"triangulo","extrano","Nonmatching","Stranger","Friend","Friend","Close",1,475,0.475,1
"546",6121887,17,"Mujer","Diestro",2,66,"triangulo","amigo","Matching","Friend","Friend","Friend","Close",5,347,0.347,1
"547",6121887,17,"Mujer","Diestro",2,67,"triangulo","amigo","Matching","Friend","Friend","Friend","Close",5,389,0.389,1
"548",6121887,17,"Mujer","Diestro",2,68,"triangulo","extrano","Nonmatching","Stranger","Friend","Friend","Close",1,598,0.598,1
"549",6121887,17,"Mujer","Diestro",2,69,"circulo","tu","Matching","Self","Self","Self","Self",5,762,0.762,1
"550",6121887,17,"Mujer","Diestro",2,70,"circulo","extrano","Nonmatching","Stranger","Self","Self","Self",1,593,0.593,1
"551",6121887,17,"Mujer","Diestro",2,71,"circulo","amigo","Nonmatching","Friend","Self","Self","Self",1,1015,1.015,1
"552",6121887,17,"Mujer","Diestro",2,72,"cuadrado","extrano","Matching","Stranger","Stranger","Stranger","Stranger",5,650,0.65,1
"553",6121887,17,"Mujer","Diestro",2,73,"triangulo","amigo","Matching","Friend","Friend","Friend","Close",5,453,0.453,1
"554",6121887,17,"Mujer","Diestro",2,74,"cuadrado","extrano","Matching","Stranger","Stranger","Stranger","Stranger",1,346,0.346,0
"555",6121887,17,"Mujer","Diestro",2,75,"triangulo","tu","Nonmatching","Self","Friend","Friend","Close",5,406,0.406,0
"556",6121887,17,"Mujer","Diestro",2,76,"triangulo","amigo","Matching","Friend","Friend","Friend","Close",5,891,0.891,1
"557",6121887,17,"Mujer","Diestro",2,77,"cuadrado","amigo","Nonmatching","Friend","Stranger","Stranger","Stranger",1,713,0.713,1
"558",6121887,17,"Mujer","Diestro",2,78,"triangulo","tu","Nonmatching","Self","Friend","Friend","Close",1,908,0.908,1
"559",6121887,17,"Mujer","Diestro",2,79,"circulo","amigo","Nonmatching","Friend","Self","Self","Self",5,482,0.482,0
"560",6121887,17,"Mujer","Diestro",2,80,"circulo","tu","Matching","Self","Self","Self","Self",5,803,0.803,1
"561",6121887,17,"Mujer","Diestro",2,81,"circulo","tu","Matching","Self","Self","Self","Self",5,570,0.57,1
"562",6121887,17,"Mujer","Diestro",2,82,"circulo","tu","Matching","Self","Self","Self","Self",5,498,0.498,1
"563",6121887,17,"Mujer","Diestro",2,83,"cuadrado","tu","Nonmatching","Self","Stranger","Stranger","Stranger",1,599,0.599,1
"564",6121887,17,"Mujer","Diestro",2,84,"cuadrado","tu","Nonmatching","Self","Stranger","Stranger","Stranger",1,675,0.675,1
"565",6121887,17,"Mujer","Diestro",2,85,"triangulo","amigo","Matching","Friend","Friend","Friend","Close",5,564,0.564,1
"566",6121887,17,"Mujer","Diestro",2,86,"cuadrado","extrano","Matching","Stranger","Stranger","Stranger","Stranger",1,548,0.548,0
"567",6121887,17,"Mujer","Diestro",2,87,"cuadrado","amigo","Nonmatching","Friend","Stranger","Stranger","Stranger",1,854,0.854,1
"568",6121887,17,"Mujer","Diestro",2,88,"circulo","tu","Matching","Self","Self","Self","Self",5,377,0.377,1
"569",6121887,17,"Mujer","Diestro",2,89,"triangulo","amigo","Matching","Friend","Friend","Friend","Close",5,831,0.831,1
"570",6121887,17,"Mujer","Diestro",2,90,"cuadrado","amigo","Nonmatching","Friend","Stranger","Stranger","Stranger",1,802,0.802,1
"571",6121887,17,"Mujer","Diestro",2,91,"circulo","extrano","Nonmatching","Stranger","Self","Self","Self",1,1030,1.03,1
"572",6121887,17,"Mujer","Diestro",2,92,"circulo","amigo","Nonmatching","Friend","Self","Self","Self",1,1050,1.05,1
"573",6121887,17,"Mujer","Diestro",2,93,"triangulo","amigo","Matching","Friend","Friend","Friend","Close",5,673,0.673,1
"574",6121887,17,"Mujer","Diestro",2,94,"triangulo","tu","Nonmatching","Self","Friend","Friend","Close",1,589,0.589,1
"575",6121887,17,"Mujer","Diestro",2,95,"cuadrado","tu","Nonmatching","Self","Stranger","Stranger","Stranger",1,463,0.463,1
"576",6121887,17,"Mujer","Diestro",2,96,"circulo","tu","Matching","Self","Self","Self","Self",5,288,0.288,1
"577",6121887,17,"Mujer","Diestro",3,97,"triangulo","extrano","Nonmatching","Stranger","Friend","Friend","Close",1,1072,1.072,1
"578",6121887,17,"Mujer","Diestro",3,98,"cuadrado","tu","Nonmatching","Self","Stranger","Stranger","Stranger",1,501,0.501,1
"579",6121887,17,"Mujer","Diestro",3,99,"circulo","tu","Matching","Self","Self","Self","Self",5,250,0.25,1
"580",6121887,17,"Mujer","Diestro",3,100,"triangulo","amigo","Matching","Friend","Friend","Friend","Close",5,577,0.577,1
"581",6121887,17,"Mujer","Diestro",3,101,"triangulo","amigo","Matching","Friend","Friend","Friend","Close",5,595,0.595,1
"582",6121887,17,"Mujer","Diestro",3,102,"triangulo","amigo","Matching","Friend","Friend","Friend","Close",5,278,0.278,1
"583",6121887,17,"Mujer","Diestro",3,103,"cuadrado","amigo","Nonmatching","Friend","Stranger","Stranger","Stranger",1,692,0.692,1
"584",6121887,17,"Mujer","Diestro",3,104,"cuadrado","extrano","Matching","Stranger","Stranger","Stranger","Stranger",5,694,0.694,1
"585",6121887,17,"Mujer","Diestro",3,105,"cuadrado","tu","Nonmatching","Self","Stranger","Stranger","Stranger",1,571,0.571,1
"586",6121887,17,"Mujer","Diestro",3,106,"circulo","tu","Matching","Self","Self","Self","Self",5,432,0.432,1
"587",6121887,17,"Mujer","Diestro",3,107,"circulo","tu","Matching","Self","Self","Self","Self",5,407,0.407,1
"588",6121887,17,"Mujer","Diestro",3,108,"triangulo","tu","Nonmatching","Self","Friend","Friend","Close",1,555,0.555,1
"589",6121887,17,"Mujer","Diestro",3,109,"circulo","tu","Matching","Self","Self","Self","Self",5,516,0.516,1
"590",6121887,17,"Mujer","Diestro",3,110,"triangulo","extrano","Nonmatching","Stranger","Friend","Friend","Close",NA,0,0,0
"591",6121887,17,"Mujer","Diestro",3,111,"triangulo","extrano","Nonmatching","Stranger","Friend","Friend","Close",1,709,0.709,1
"592",6121887,17,"Mujer","Diestro",3,112,"cuadrado","extrano","Matching","Stranger","Stranger","Stranger","Stranger",1,481,0.481,0
"593",6121887,17,"Mujer","Diestro",3,113,"circulo","amigo","Nonmatching","Friend","Self","Self","Self",5,462,0.462,0
"594",6121887,17,"Mujer","Diestro",3,114,"circulo","tu","Matching","Self","Self","Self","Self",5,374,0.374,1
"595",6121887,17,"Mujer","Diestro",3,115,"triangulo","amigo","Matching","Friend","Friend","Friend","Close",5,601,0.601,1
"596",6121887,17,"Mujer","Diestro",3,116,"triangulo","amigo","Matching","Friend","Friend","Friend","Close",5,642,0.642,1
"597",6121887,17,"Mujer","Diestro",3,117,"triangulo","tu","Nonmatching","Self","Friend","Friend","Close",1,613,0.613,1
"598",6121887,17,"Mujer","Diestro",3,118,"triangulo","tu","Nonmatching","Self","Friend","Friend","Close",1,669,0.669,1
"599",6121887,17,"Mujer","Diestro",3,119,"triangulo","amigo","Matching","Friend","Friend","Friend","Close",5,442,0.442,1
"600",6121887,17,"Mujer","Diestro",3,120,"cuadrado","extrano","Matching","Stranger","Stranger","Stranger","Stranger",5,662,0.662,1
"601",6121887,17,"Mujer","Diestro",3,121,"cuadrado","extrano","Matching","Stranger","Stranger","Stranger","Stranger",5,417,0.417,1
"602",6121887,17,"Mujer","Diestro",3,122,"circulo","tu","Matching","Self","Self","Self","Self",5,451,0.451,1
"603",6121887,17,"Mujer","Diestro",3,123,"cuadrado","amigo","Nonmatching","Friend","Stranger","Stranger","Stranger",1,818,0.818,1
"604",6121887,17,"Mujer","Diestro",3,124,"triangulo","extrano","Nonmatching","Stranger","Friend","Friend","Close",1,582,0.582,1
"605",6121887,17,"Mujer","Diestro",3,125,"circulo","extrano","Nonmatching","Stranger","Self","Self","Self",1,836,0.836,1
"606",6121887,17,"Mujer","Diestro",3,126,"cuadrado","tu","Nonmatching","Self","Stranger","Stranger","Stranger",5,356,0.356,0
"607",6121887,17,"Mujer","Diestro",3,127,"circulo","amigo","Nonmatching","Friend","Self","Self","Self",1,998,0.998,1
"608",6121887,17,"Mujer","Diestro",3,128,"cuadrado","extrano","Matching","Stranger","Stranger","Stranger","Stranger",1,700,0.7,0
"609",6121887,17,"Mujer","Diestro",3,129,"circulo","tu","Matching","Self","Self","Self","Self",5,347,0.347,1
"610",6121887,17,"Mujer","Diestro",3,130,"cuadrado","extrano","Matching","Stranger","Stranger","Stranger","Stranger",5,957,0.957,1
"611",6121887,17,"Mujer","Diestro",3,131,"cuadrado","amigo","Nonmatching","Friend","Stranger","Stranger","Stranger",1,497,0.497,1
"612",6121887,17,"Mujer","Diestro",3,132,"circulo","extrano","Nonmatching","Stranger","Self","Self","Self",1,691,0.691,1
"613",6121887,17,"Mujer","Diestro",3,133,"triangulo","amigo","Matching","Friend","Friend","Friend","Close",5,757,0.757,1
"614",6121887,17,"Mujer","Diestro",3,134,"circulo","amigo","Nonmatching","Friend","Self","Self","Self",5,767,0.767,0
"615",6121887,17,"Mujer","Diestro",3,135,"cuadrado","extrano","Matching","Stranger","Stranger","Stranger","Stranger",5,691,0.691,1
"616",6121887,17,"Mujer","Diestro",3,136,"triangulo","amigo","Matching","Friend","Friend","Friend","Close",1,629,0.629,0
"617",6121887,17,"Mujer","Diestro",3,137,"triangulo","tu","Nonmatching","Self","Friend","Friend","Close",1,983,0.983,1
"618",6121887,17,"Mujer","Diestro",3,138,"circulo","amigo","Nonmatching","Friend","Self","Self","Self",5,885,0.885,0
"619",6121887,17,"Mujer","Diestro",3,139,"cuadrado","tu","Nonmatching","Self","Stranger","Stranger","Stranger",1,555,0.555,1
"620",6121887,17,"Mujer","Diestro",3,140,"circulo","extrano","Nonmatching","Stranger","Self","Self","Self",1,799,0.799,1
"621",6121887,17,"Mujer","Diestro",3,141,"circulo","extrano","Nonmatching","Stranger","Self","Self","Self",1,626,0.626,1
"622",6121887,17,"Mujer","Diestro",3,142,"cuadrado","extrano","Matching","Stranger","Stranger","Stranger","Stranger",5,487,0.487,1
"623",6121887,17,"Mujer","Diestro",3,143,"cuadrado","amigo","Nonmatching","Friend","Stranger","Stranger","Stranger",1,765,0.765,1
"624",6121887,17,"Mujer","Diestro",3,144,"circulo","tu","Matching","Self","Self","Self","Self",5,447,0.447,1
"625",6121887,17,"Mujer","Diestro",4,145,"circulo","extrano","Nonmatching","Stranger","Self","Self","Self",1,607,0.607,1
"626",6121887,17,"Mujer","Diestro",4,146,"circulo","tu","Matching","Self","Self","Self","Self",5,417,0.417,1
"627",6121887,17,"Mujer","Diestro",4,147,"triangulo","amigo","Matching","Friend","Friend","Friend","Close",5,482,0.482,1
"628",6121887,17,"Mujer","Diestro",4,148,"circulo","amigo","Nonmatching","Friend","Self","Self","Self",5,326,0.326,0
"629",6121887,17,"Mujer","Diestro",4,149,"triangulo","tu","Nonmatching","Self","Friend","Friend","Close",5,274,0.274,0
"630",6121887,17,"Mujer","Diestro",4,150,"triangulo","extrano","Nonmatching","Stranger","Friend","Friend","Close",1,1030,1.03,1
"631",6121887,17,"Mujer","Diestro",4,151,"cuadrado","extrano","Matching","Stranger","Stranger","Stranger","Stranger",5,639,0.639,1
"632",6121887,17,"Mujer","Diestro",4,152,"cuadrado","extrano","Matching","Stranger","Stranger","Stranger","Stranger",1,444,0.444,0
"633",6121887,17,"Mujer","Diestro",4,153,"cuadrado","tu","Nonmatching","Self","Stranger","Stranger","Stranger",1,532,0.532,1
"634",6121887,17,"Mujer","Diestro",4,154,"circulo","tu","Matching","Self","Self","Self","Self",5,398,0.398,1
"635",6121887,17,"Mujer","Diestro",4,155,"circulo","tu","Matching","Self","Self","Self","Self",5,413,0.413,1
"636",6121887,17,"Mujer","Diestro",4,156,"circulo","tu","Matching","Self","Self","Self","Self",5,572,0.572,1
"637",6121887,17,"Mujer","Diestro",4,157,"circulo","amigo","Nonmatching","Friend","Self","Self","Self",1,570,0.57,1
"638",6121887,17,"Mujer","Diestro",4,158,"circulo","tu","Matching","Self","Self","Self","Self",5,495,0.495,1
"639",6121887,17,"Mujer","Diestro",4,159,"cuadrado","tu","Nonmatching","Self","Stranger","Stranger","Stranger",1,652,0.652,1
"640",6121887,17,"Mujer","Diestro",4,160,"cuadrado","amigo","Nonmatching","Friend","Stranger","Stranger","Stranger",1,930,0.93,1
"641",6121887,17,"Mujer","Diestro",4,161,"circulo","amigo","Nonmatching","Friend","Self","Self","Self",1,688,0.688,1
"642",6121887,17,"Mujer","Diestro",4,162,"circulo","extrano","Nonmatching","Stranger","Self","Self","Self",1,627,0.627,1
"643",6121887,17,"Mujer","Diestro",4,163,"cuadrado","amigo","Nonmatching","Friend","Stranger","Stranger","Stranger",5,728,0.728,0
"644",6121887,17,"Mujer","Diestro",4,164,"cuadrado","amigo","Nonmatching","Friend","Stranger","Stranger","Stranger",1,359,0.359,1
"645",6121887,17,"Mujer","Diestro",4,165,"circulo","amigo","Nonmatching","Friend","Self","Self","Self",1,626,0.626,1
"646",6121887,17,"Mujer","Diestro",4,166,"triangulo","amigo","Matching","Friend","Friend","Friend","Close",5,536,0.536,1
"647",6121887,17,"Mujer","Diestro",4,167,"triangulo","amigo","Matching","Friend","Friend","Friend","Close",1,491,0.491,0
"648",6121887,17,"Mujer","Diestro",4,168,"triangulo","tu","Nonmatching","Self","Friend","Friend","Close",1,816,0.816,1
"649",6121887,17,"Mujer","Diestro",4,169,"triangulo","amigo","Matching","Friend","Friend","Friend","Close",5,624,0.624,1
"650",6121887,17,"Mujer","Diestro",4,170,"circulo","tu","Matching","Self","Self","Self","Self",5,477,0.477,1
"651",6121887,17,"Mujer","Diestro",4,171,"cuadrado","tu","Nonmatching","Self","Stranger","Stranger","Stranger",1,510,0.51,1
"652",6121887,17,"Mujer","Diestro",4,172,"triangulo","amigo","Matching","Friend","Friend","Friend","Close",5,576,0.576,1
"653",6121887,17,"Mujer","Diestro",4,173,"cuadrado","extrano","Matching","Stranger","Stranger","Stranger","Stranger",5,713,0.713,1
"654",6121887,17,"Mujer","Diestro",4,174,"cuadrado","extrano","Matching","Stranger","Stranger","Stranger","Stranger",5,390,0.39,1
"655",6121887,17,"Mujer","Diestro",4,175,"circulo","tu","Matching","Self","Self","Self","Self",5,561,0.561,1
"656",6121887,17,"Mujer","Diestro",4,176,"triangulo","amigo","Matching","Friend","Friend","Friend","Close",5,583,0.583,1
"657",6121887,17,"Mujer","Diestro",4,177,"cuadrado","amigo","Nonmatching","Friend","Stranger","Stranger","Stranger",1,478,0.478,1
"658",6121887,17,"Mujer","Diestro",4,178,"triangulo","tu","Nonmatching","Self","Friend","Friend","Close",1,635,0.635,1
"659",6121887,17,"Mujer","Diestro",4,179,"cuadrado","extrano","Matching","Stranger","Stranger","Stranger","Stranger",5,671,0.671,1
"660",6121887,17,"Mujer","Diestro",4,180,"cuadrado","extrano","Matching","Stranger","Stranger","Stranger","Stranger",5,864,0.864,1
"661",6121887,17,"Mujer","Diestro",4,181,"triangulo","extrano","Nonmatching","Stranger","Friend","Friend","Close",5,392,0.392,0
"662",6121887,17,"Mujer","Diestro",4,182,"circulo","extrano","Nonmatching","Stranger","Self","Self","Self",1,711,0.711,1
"663",6121887,17,"Mujer","Diestro",4,183,"cuadrado","extrano","Matching","Stranger","Stranger","Stranger","Stranger",5,439,0.439,1
"664",6121887,17,"Mujer","Diestro",4,184,"cuadrado","tu","Nonmatching","Self","Stranger","Stranger","Stranger",1,628,0.628,1
"665",6121887,17,"Mujer","Diestro",4,185,"circulo","tu","Matching","Self","Self","Self","Self",5,449,0.449,1
"666",6121887,17,"Mujer","Diestro",4,186,"cuadrado","extrano","Matching","Stranger","Stranger","Stranger","Stranger",5,672,0.672,1
"667",6121887,17,"Mujer","Diestro",4,187,"triangulo","amigo","Matching","Friend","Friend","Friend","Close",5,672,0.672,1
"668",6121887,17,"Mujer","Diestro",4,188,"circulo","extrano","Nonmatching","Stranger","Self","Self","Self",1,666,0.666,1
"669",6121887,17,"Mujer","Diestro",4,189,"triangulo","extrano","Nonmatching","Stranger","Friend","Friend","Close",1,935,0.935,1
"670",6121887,17,"Mujer","Diestro",4,190,"triangulo","amigo","Matching","Friend","Friend","Friend","Close",5,467,0.467,1
"671",6121887,17,"Mujer","Diestro",4,191,"triangulo","extrano","Nonmatching","Stranger","Friend","Friend","Close",1,533,0.533,1
"672",6121887,17,"Mujer","Diestro",4,192,"triangulo","tu","Nonmatching","Self","Friend","Friend","Close",1,676,0.676,1
"673",6121887,17,"Mujer","Diestro",5,193,"circulo","extrano","Nonmatching","Stranger","Self","Self","Self",1,767,0.767,1
"674",6121887,17,"Mujer","Diestro",5,194,"circulo","amigo","Nonmatching","Friend","Self","Self","Self",5,486,0.486,0
"675",6121887,17,"Mujer","Diestro",5,195,"cuadrado","extrano","Matching","Stranger","Stranger","Stranger","Stranger",1,478,0.478,0
"676",6121887,17,"Mujer","Diestro",5,196,"triangulo","amigo","Matching","Friend","Friend","Friend","Close",5,574,0.574,1
"677",6121887,17,"Mujer","Diestro",5,197,"circulo","amigo","Nonmatching","Friend","Self","Self","Self",1,563,0.563,1
"678",6121887,17,"Mujer","Diestro",5,198,"circulo","extrano","Nonmatching","Stranger","Self","Self","Self",1,573,0.573,1
"679",6121887,17,"Mujer","Diestro",5,199,"triangulo","tu","Nonmatching","Self","Friend","Friend","Close",1,715,0.715,1
"680",6121887,17,"Mujer","Diestro",5,200,"circulo","extrano","Nonmatching","Stranger","Self","Self","Self",1,658,0.658,1
"681",6121887,17,"Mujer","Diestro",5,201,"circulo","tu","Matching","Self","Self","Self","Self",5,573,0.573,1
"682",6121887,17,"Mujer","Diestro",5,202,"triangulo","tu","Nonmatching","Self","Friend","Friend","Close",1,611,0.611,1
"683",6121887,17,"Mujer","Diestro",5,203,"circulo","tu","Matching","Self","Self","Self","Self",5,470,0.47,1
"684",6121887,17,"Mujer","Diestro",5,204,"cuadrado","extrano","Matching","Stranger","Stranger","Stranger","Stranger",1,540,0.54,0
"685",6121887,17,"Mujer","Diestro",5,205,"cuadrado","extrano","Matching","Stranger","Stranger","Stranger","Stranger",5,623,0.623,1
"686",6121887,17,"Mujer","Diestro",5,206,"circulo","tu","Matching","Self","Self","Self","Self",5,484,0.484,1
"687",6121887,17,"Mujer","Diestro",5,207,"cuadrado","amigo","Nonmatching","Friend","Stranger","Stranger","Stranger",1,499,0.499,1
"688",6121887,17,"Mujer","Diestro",5,208,"triangulo","amigo","Matching","Friend","Friend","Friend","Close",5,335,0.335,1
"689",6121887,17,"Mujer","Diestro",5,209,"triangulo","extrano","Nonmatching","Stranger","Friend","Friend","Close",1,849,0.849,1
"690",6121887,17,"Mujer","Diestro",5,210,"circulo","tu","Matching","Self","Self","Self","Self",5,406,0.406,1
"691",6121887,17,"Mujer","Diestro",5,211,"cuadrado","extrano","Matching","Stranger","Stranger","Stranger","Stranger",5,641,0.641,1
"692",6121887,17,"Mujer","Diestro",5,212,"cuadrado","extrano","Matching","Stranger","Stranger","Stranger","Stranger",5,426,0.426,1
"693",6121887,17,"Mujer","Diestro",5,213,"cuadrado","tu","Nonmatching","Self","Stranger","Stranger","Stranger",1,608,0.608,1
"694",6121887,17,"Mujer","Diestro",5,214,"triangulo","tu","Nonmatching","Self","Friend","Friend","Close",1,504,0.504,1
"695",6121887,17,"Mujer","Diestro",5,215,"triangulo","extrano","Nonmatching","Stranger","Friend","Friend","Close",1,749,0.749,1
"696",6121887,17,"Mujer","Diestro",5,216,"circulo","tu","Matching","Self","Self","Self","Self",5,456,0.456,1
"697",6121887,17,"Mujer","Diestro",5,217,"circulo","tu","Matching","Self","Self","Self","Self",1,591,0.591,0
"698",6121887,17,"Mujer","Diestro",5,218,"cuadrado","extrano","Matching","Stranger","Stranger","Stranger","Stranger",5,952,0.952,1
"699",6121887,17,"Mujer","Diestro",5,219,"triangulo","amigo","Matching","Friend","Friend","Friend","Close",5,750,0.75,1
"700",6121887,17,"Mujer","Diestro",5,220,"cuadrado","tu","Nonmatching","Self","Stranger","Stranger","Stranger",1,579,0.579,1
"701",6121887,17,"Mujer","Diestro",5,221,"triangulo","amigo","Matching","Friend","Friend","Friend","Close",5,569,0.569,1
"702",6121887,17,"Mujer","Diestro",5,222,"triangulo","amigo","Matching","Friend","Friend","Friend","Close",5,580,0.58,1
"703",6121887,17,"Mujer","Diestro",5,223,"circulo","amigo","Nonmatching","Friend","Self","Self","Self",1,591,0.591,1
"704",6121887,17,"Mujer","Diestro",5,224,"circulo","tu","Matching","Self","Self","Self","Self",5,409,0.409,1
"705",6121887,17,"Mujer","Diestro",5,225,"cuadrado","tu","Nonmatching","Self","Stranger","Stranger","Stranger",1,526,0.526,1
"706",6121887,17,"Mujer","Diestro",5,226,"triangulo","amigo","Matching","Friend","Friend","Friend","Close",5,434,0.434,1
"707",6121887,17,"Mujer","Diestro",5,227,"triangulo","amigo","Matching","Friend","Friend","Friend","Close",5,447,0.447,1
"708",6121887,17,"Mujer","Diestro",5,228,"cuadrado","extrano","Matching","Stranger","Stranger","Stranger","Stranger",5,641,0.641,1
"709",6121887,17,"Mujer","Diestro",5,229,"cuadrado","amigo","Nonmatching","Friend","Stranger","Stranger","Stranger",1,553,0.553,1
"710",6121887,17,"Mujer","Diestro",5,230,"circulo","extrano","Nonmatching","Stranger","Self","Self","Self",1,926,0.926,1
"711",6121887,17,"Mujer","Diestro",5,231,"cuadrado","extrano","Matching","Stranger","Stranger","Stranger","Stranger",5,656,0.656,1
"712",6121887,17,"Mujer","Diestro",5,232,"triangulo","amigo","Matching","Friend","Friend","Friend","Close",5,637,0.637,1
"713",6121887,17,"Mujer","Diestro",5,233,"circulo","tu","Matching","Self","Self","Self","Self",5,415,0.415,1
"714",6121887,17,"Mujer","Diestro",5,234,"circulo","amigo","Nonmatching","Friend","Self","Self","Self",5,448,0.448,0
"715",6121887,17,"Mujer","Diestro",5,235,"cuadrado","tu","Nonmatching","Self","Stranger","Stranger","Stranger",1,536,0.536,1
"716",6121887,17,"Mujer","Diestro",5,236,"triangulo","extrano","Nonmatching","Stranger","Friend","Friend","Close",1,996,0.996,1
"717",6121887,17,"Mujer","Diestro",5,237,"cuadrado","amigo","Nonmatching","Friend","Stranger","Stranger","Stranger",1,655,0.655,1
"718",6121887,17,"Mujer","Diestro",5,238,"triangulo","extrano","Nonmatching","Stranger","Friend","Friend","Close",1,607,0.607,1
"719",6121887,17,"Mujer","Diestro",5,239,"triangulo","tu","Nonmatching","Self","Friend","Friend","Close",1,656,0.656,1
"720",6121887,17,"Mujer","Diestro",5,240,"cuadrado","amigo","Nonmatching","Friend","Stranger","Stranger","Stranger",1,652,0.652,1
"721",9341983,21,"Mujer","Diestro",1,1,"cuadrado","tu","Matching","Self","Self","Self","Self",5,474,0.474,1
"722",9341983,21,"Mujer","Diestro",1,2,"cuadrado","extrano","Nonmatching","Stranger","Self","Self","Self",1,625,0.625,1
"723",9341983,21,"Mujer","Diestro",1,3,"circulo","amigo","Nonmatching","Friend","Stranger","Stranger","Stranger",5,543,0.543,0
"724",9341983,21,"Mujer","Diestro",1,4,"triangulo","amigo","Matching","Friend","Friend","Friend","Close",5,360,0.36,1
"725",9341983,21,"Mujer","Diestro",1,5,"triangulo","extrano","Nonmatching","Stranger","Friend","Friend","Close",1,779,0.779,1
"726",9341983,21,"Mujer","Diestro",1,6,"triangulo","tu","Nonmatching","Self","Friend","Friend","Close",1,967,0.967,1
"727",9341983,21,"Mujer","Diestro",1,7,"cuadrado","tu","Matching","Self","Self","Self","Self",5,481,0.481,1
"728",9341983,21,"Mujer","Diestro",1,8,"cuadrado","amigo","Nonmatching","Friend","Self","Self","Self",5,772,0.772,0
"729",9341983,21,"Mujer","Diestro",1,9,"cuadrado","tu","Matching","Self","Self","Self","Self",5,626,0.626,1
"730",9341983,21,"Mujer","Diestro",1,10,"circulo","extrano","Matching","Stranger","Stranger","Stranger","Stranger",5,841,0.841,1
"731",9341983,21,"Mujer","Diestro",1,11,"circulo","amigo","Nonmatching","Friend","Stranger","Stranger","Stranger",1,524,0.524,1
"732",9341983,21,"Mujer","Diestro",1,12,"circulo","tu","Nonmatching","Self","Stranger","Stranger","Stranger",1,700,0.7,1
"733",9341983,21,"Mujer","Diestro",1,13,"cuadrado","tu","Matching","Self","Self","Self","Self",5,476,0.476,1
"734",9341983,21,"Mujer","Diestro",1,14,"cuadrado","amigo","Nonmatching","Friend","Self","Self","Self",1,835,0.835,1
"735",9341983,21,"Mujer","Diestro",1,15,"cuadrado","tu","Matching","Self","Self","Self","Self",5,412,0.412,1
"736",9341983,21,"Mujer","Diestro",1,16,"circulo","tu","Nonmatching","Self","Stranger","Stranger","Stranger",1,741,0.741,1
"737",9341983,21,"Mujer","Diestro",1,17,"triangulo","tu","Nonmatching","Self","Friend","Friend","Close",1,496,0.496,1
"738",9341983,21,"Mujer","Diestro",1,18,"cuadrado","extrano","Nonmatching","Stranger","Self","Self","Self",1,741,0.741,1
"739",9341983,21,"Mujer","Diestro",1,19,"cuadrado","extrano","Nonmatching","Stranger","Self","Self","Self",1,488,0.488,1
"740",9341983,21,"Mujer","Diestro",1,20,"cuadrado","tu","Matching","Self","Self","Self","Self",5,772,0.772,1
"741",9341983,21,"Mujer","Diestro",1,21,"triangulo","amigo","Matching","Friend","Friend","Friend","Close",1,1013,1.013,0
"742",9341983,21,"Mujer","Diestro",1,22,"triangulo","tu","Nonmatching","Self","Friend","Friend","Close",1,712,0.712,1
"743",9341983,21,"Mujer","Diestro",1,23,"triangulo","extrano","Nonmatching","Stranger","Friend","Friend","Close",1,1099,1.099,1
"744",9341983,21,"Mujer","Diestro",1,24,"triangulo","amigo","Matching","Friend","Friend","Friend","Close",5,539,0.539,1
"745",9341983,21,"Mujer","Diestro",1,25,"circulo","extrano","Matching","Stranger","Stranger","Stranger","Stranger",5,528,0.528,1
"746",9341983,21,"Mujer","Diestro",1,26,"triangulo","amigo","Matching","Friend","Friend","Friend","Close",1,1079,1.079,0
"747",9341983,21,"Mujer","Diestro",1,27,"triangulo","amigo","Matching","Friend","Friend","Friend","Close",5,577,0.577,1
"748",9341983,21,"Mujer","Diestro",1,28,"triangulo","extrano","Nonmatching","Stranger","Friend","Friend","Close",1,463,0.463,1
"749",9341983,21,"Mujer","Diestro",1,29,"circulo","extrano","Matching","Stranger","Stranger","Stranger","Stranger",5,781,0.781,1
"750",9341983,21,"Mujer","Diestro",1,30,"circulo","extrano","Matching","Stranger","Stranger","Stranger","Stranger",5,346,0.346,1
"751",9341983,21,"Mujer","Diestro",1,31,"cuadrado","tu","Matching","Self","Self","Self","Self",5,394,0.394,1
"752",9341983,21,"Mujer","Diestro",1,32,"circulo","tu","Nonmatching","Self","Stranger","Stranger","Stranger",1,553,0.553,1
"753",9341983,21,"Mujer","Diestro",1,33,"cuadrado","amigo","Nonmatching","Friend","Self","Self","Self",1,892,0.892,1
"754",9341983,21,"Mujer","Diestro",1,34,"triangulo","amigo","Matching","Friend","Friend","Friend","Close",5,633,0.633,1
"755",9341983,21,"Mujer","Diestro",1,35,"triangulo","extrano","Nonmatching","Stranger","Friend","Friend","Close",1,634,0.634,1
"756",9341983,21,"Mujer","Diestro",1,36,"circulo","extrano","Matching","Stranger","Stranger","Stranger","Stranger",5,501,0.501,1
"757",9341983,21,"Mujer","Diestro",1,37,"triangulo","amigo","Matching","Friend","Friend","Friend","Close",1,668,0.668,0
"758",9341983,21,"Mujer","Diestro",1,38,"circulo","amigo","Nonmatching","Friend","Stranger","Stranger","Stranger",1,999,0.999,1
"759",9341983,21,"Mujer","Diestro",1,39,"circulo","amigo","Nonmatching","Friend","Stranger","Stranger","Stranger",1,625,0.625,1
"760",9341983,21,"Mujer","Diestro",1,40,"circulo","tu","Nonmatching","Self","Stranger","Stranger","Stranger",1,727,0.727,1
"761",9341983,21,"Mujer","Diestro",1,41,"cuadrado","extrano","Nonmatching","Stranger","Self","Self","Self",1,745,0.745,1
"762",9341983,21,"Mujer","Diestro",1,42,"circulo","extrano","Matching","Stranger","Stranger","Stranger","Stranger",5,790,0.79,1
"763",9341983,21,"Mujer","Diestro",1,43,"cuadrado","amigo","Nonmatching","Friend","Self","Self","Self",1,897,0.897,1
"764",9341983,21,"Mujer","Diestro",1,44,"triangulo","tu","Nonmatching","Self","Friend","Friend","Close",5,478,0.478,0
"765",9341983,21,"Mujer","Diestro",1,45,"cuadrado","tu","Matching","Self","Self","Self","Self",5,619,0.619,1
"766",9341983,21,"Mujer","Diestro",1,46,"circulo","extrano","Matching","Stranger","Stranger","Stranger","Stranger",5,551,0.551,1
"767",9341983,21,"Mujer","Diestro",1,47,"circulo","extrano","Matching","Stranger","Stranger","Stranger","Stranger",5,726,0.726,1
"768",9341983,21,"Mujer","Diestro",1,48,"triangulo","amigo","Matching","Friend","Friend","Friend","Close",NA,0,0,0
"769",9341983,21,"Mujer","Diestro",2,49,"triangulo","tu","Nonmatching","Self","Friend","Friend","Close",5,390,0.39,0
"770",9341983,21,"Mujer","Diestro",2,50,"triangulo","extrano","Nonmatching","Stranger","Friend","Friend","Close",1,770,0.77,1
"771",9341983,21,"Mujer","Diestro",2,51,"circulo","extrano","Matching","Stranger","Stranger","Stranger","Stranger",5,255,0.255,1
"772",9341983,21,"Mujer","Diestro",2,52,"circulo","extrano","Matching","Stranger","Stranger","Stranger","Stranger",5,416,0.416,1
"773",9341983,21,"Mujer","Diestro",2,53,"cuadrado","tu","Matching","Self","Self","Self","Self",5,412,0.412,1
"774",9341983,21,"Mujer","Diestro",2,54,"circulo","extrano","Matching","Stranger","Stranger","Stranger","Stranger",5,356,0.356,1
"775",9341983,21,"Mujer","Diestro",2,55,"triangulo","extrano","Nonmatching","Stranger","Friend","Friend","Close",1,481,0.481,1
"776",9341983,21,"Mujer","Diestro",2,56,"circulo","extrano","Matching","Stranger","Stranger","Stranger","Stranger",5,247,0.247,1
"777",9341983,21,"Mujer","Diestro",2,57,"cuadrado","extrano","Nonmatching","Stranger","Self","Self","Self",1,489,0.489,1
"778",9341983,21,"Mujer","Diestro",2,58,"circulo","tu","Nonmatching","Self","Stranger","Stranger","Stranger",1,833,0.833,1
"779",9341983,21,"Mujer","Diestro",2,59,"circulo","tu","Nonmatching","Self","Stranger","Stranger","Stranger",1,642,0.642,1
"780",9341983,21,"Mujer","Diestro",2,60,"cuadrado","tu","Matching","Self","Self","Self","Self",5,395,0.395,1
"781",9341983,21,"Mujer","Diestro",2,61,"triangulo","tu","Nonmatching","Self","Friend","Friend","Close",1,565,0.565,1
"782",9341983,21,"Mujer","Diestro",2,62,"triangulo","amigo","Matching","Friend","Friend","Friend","Close",5,580,0.58,1
"783",9341983,21,"Mujer","Diestro",2,63,"circulo","extrano","Matching","Stranger","Stranger","Stranger","Stranger",5,654,0.654,1
"784",9341983,21,"Mujer","Diestro",2,64,"triangulo","amigo","Matching","Friend","Friend","Friend","Close",NA,0,0,0
"785",9341983,21,"Mujer","Diestro",2,65,"cuadrado","amigo","Nonmatching","Friend","Self","Self","Self",1,699,0.699,1
"786",9341983,21,"Mujer","Diestro",2,66,"circulo","extrano","Matching","Stranger","Stranger","Stranger","Stranger",5,409,0.409,1
"787",9341983,21,"Mujer","Diestro",2,67,"triangulo","amigo","Matching","Friend","Friend","Friend","Close",5,681,0.681,1
"788",9341983,21,"Mujer","Diestro",2,68,"cuadrado","amigo","Nonmatching","Friend","Self","Self","Self",1,599,0.599,1
"789",9341983,21,"Mujer","Diestro",2,69,"cuadrado","amigo","Nonmatching","Friend","Self","Self","Self",5,665,0.665,0
"790",9341983,21,"Mujer","Diestro",2,70,"cuadrado","tu","Matching","Self","Self","Self","Self",5,438,0.438,1
"791",9341983,21,"Mujer","Diestro",2,71,"circulo","tu","Nonmatching","Self","Stranger","Stranger","Stranger",1,625,0.625,1
"792",9341983,21,"Mujer","Diestro",2,72,"triangulo","amigo","Matching","Friend","Friend","Friend","Close",5,526,0.526,1
"793",9341983,21,"Mujer","Diestro",2,73,"circulo","extrano","Matching","Stranger","Stranger","Stranger","Stranger",5,445,0.445,1
"794",9341983,21,"Mujer","Diestro",2,74,"cuadrado","extrano","Nonmatching","Stranger","Self","Self","Self",1,434,0.434,1
"795",9341983,21,"Mujer","Diestro",2,75,"cuadrado","amigo","Nonmatching","Friend","Self","Self","Self",5,441,0.441,0
"796",9341983,21,"Mujer","Diestro",2,76,"triangulo","extrano","Nonmatching","Stranger","Friend","Friend","Close",1,604,0.604,1
"797",9341983,21,"Mujer","Diestro",2,77,"cuadrado","tu","Matching","Self","Self","Self","Self",5,502,0.502,1
"798",9341983,21,"Mujer","Diestro",2,78,"triangulo","extrano","Nonmatching","Stranger","Friend","Friend","Close",1,834,0.834,1
"799",9341983,21,"Mujer","Diestro",2,79,"cuadrado","tu","Matching","Self","Self","Self","Self",5,518,0.518,1
"800",9341983,21,"Mujer","Diestro",2,80,"circulo","amigo","Nonmatching","Friend","Stranger","Stranger","Stranger",1,777,0.777,1
"801",9341983,21,"Mujer","Diestro",2,81,"circulo","amigo","Nonmatching","Friend","Stranger","Stranger","Stranger",1,646,0.646,1
"802",9341983,21,"Mujer","Diestro",2,82,"cuadrado","extrano","Nonmatching","Stranger","Self","Self","Self",1,1045,1.045,1
"803",9341983,21,"Mujer","Diestro",2,83,"cuadrado","tu","Matching","Self","Self","Self","Self",5,611,0.611,1
"804",9341983,21,"Mujer","Diestro",2,84,"cuadrado","tu","Matching","Self","Self","Self","Self",5,519,0.519,1
"805",9341983,21,"Mujer","Diestro",2,85,"circulo","extrano","Matching","Stranger","Stranger","Stranger","Stranger",5,611,0.611,1
"806",9341983,21,"Mujer","Diestro",2,86,"circulo","amigo","Nonmatching","Friend","Stranger","Stranger","Stranger",1,835,0.835,1
"807",9341983,21,"Mujer","Diestro",2,87,"cuadrado","extrano","Nonmatching","Stranger","Self","Self","Self",1,681,0.681,1
"808",9341983,21,"Mujer","Diestro",2,88,"triangulo","amigo","Matching","Friend","Friend","Friend","Close",5,611,0.611,1
"809",9341983,21,"Mujer","Diestro",2,89,"cuadrado","tu","Matching","Self","Self","Self","Self",5,213,0.213,1
"810",9341983,21,"Mujer","Diestro",2,90,"triangulo","amigo","Matching","Friend","Friend","Friend","Close",5,495,0.495,1
"811",9341983,21,"Mujer","Diestro",2,91,"triangulo","tu","Nonmatching","Self","Friend","Friend","Close",1,781,0.781,1
"812",9341983,21,"Mujer","Diestro",2,92,"circulo","tu","Nonmatching","Self","Stranger","Stranger","Stranger",1,623,0.623,1
"813",9341983,21,"Mujer","Diestro",2,93,"triangulo","amigo","Matching","Friend","Friend","Friend","Close",5,559,0.559,1
"814",9341983,21,"Mujer","Diestro",2,94,"triangulo","amigo","Matching","Friend","Friend","Friend","Close",5,801,0.801,1
"815",9341983,21,"Mujer","Diestro",2,95,"circulo","amigo","Nonmatching","Friend","Stranger","Stranger","Stranger",1,696,0.696,1
"816",9341983,21,"Mujer","Diestro",2,96,"triangulo","tu","Nonmatching","Self","Friend","Friend","Close",5,334,0.334,0
"817",9341983,21,"Mujer","Diestro",3,97,"cuadrado","amigo","Nonmatching","Friend","Self","Self","Self",1,707,0.707,1
"818",9341983,21,"Mujer","Diestro",3,98,"circulo","extrano","Matching","Stranger","Stranger","Stranger","Stranger",5,608,0.608,1
"819",9341983,21,"Mujer","Diestro",3,99,"circulo","amigo","Nonmatching","Friend","Stranger","Stranger","Stranger",1,679,0.679,1
"820",9341983,21,"Mujer","Diestro",3,100,"circulo","amigo","Nonmatching","Friend","Stranger","Stranger","Stranger",1,520,0.52,1
"821",9341983,21,"Mujer","Diestro",3,101,"triangulo","amigo","Matching","Friend","Friend","Friend","Close",1,479,0.479,0
"822",9341983,21,"Mujer","Diestro",3,102,"circulo","amigo","Nonmatching","Friend","Stranger","Stranger","Stranger",1,763,0.763,1
"823",9341983,21,"Mujer","Diestro",3,103,"triangulo","extrano","Nonmatching","Stranger","Friend","Friend","Close",1,584,0.584,1
"824",9341983,21,"Mujer","Diestro",3,104,"circulo","extrano","Matching","Stranger","Stranger","Stranger","Stranger",5,826,0.826,1
"825",9341983,21,"Mujer","Diestro",3,105,"circulo","tu","Nonmatching","Self","Stranger","Stranger","Stranger",5,240,0.24,0
