SessionDate,Subject,Age,Handedness,MotherTongue,LabelOrder,Procedure[SubTrial],CloseShape,CloseWord,MediumShape,MediumWord,FarShape,FarWord,BlockType,Target.RT,Target.ACC,Target.CRESP,Target.RESP,Congruent,Incongruent,Sex,Stimulus,Word
06-07-2017,2816,21,right,Hebrew,UFS,Assos,triangle.bmp,Self,square.bmp,Friend,circle.bmp,Stranger,,,,,,m,z,female,,
06-07-2017,2816,21,right,Hebrew,UFS,PracProc,triangle.bmp,Self,square.bmp,Friend,circle.bmp,Stranger,MediumBlock,,,,,m,z,female,square.bmp,Friend
06-07-2017,2816,21,right,Hebrew,UFS,PracProc,triangle.bmp,Self,square.bmp,Friend,circle.bmp,Stranger,CloseBlock,,,,,m,z,female,square.bmp,Self
06-07-2017,2816,21,right,Hebrew,UFS,PracProc,triangle.bmp,Self,square.bmp,Friend,circle.bmp,Stranger,FarBlock,,,,,m,z,female,square.bmp,Stranger
06-07-2017,2816,21,right,Hebrew,UFS,PracProc,triangle.bmp,Self,square.bmp,Friend,circle.bmp,Stranger,MediumBlock,,,,,m,z,female,triangle.bmp,Friend
06-07-2017,2816,21,right,Hebrew,UFS,PracProc,triangle.bmp,Self,square.bmp,Friend,circle.bmp,Stranger,FarBlock,,,,,m,z,female,triangle.bmp,Stranger
06-07-2017,2816,21,right,Hebrew,UFS,PracProc,triangle.bmp,Self,square.bmp,Friend,circle.bmp,Stranger,CloseBlock,,,,,m,z,female,circle.bmp,Self
06-07-2017,2816,21,right,Hebrew,UFS,PracProc,triangle.bmp,Self,square.bmp,Friend,circle.bmp,Stranger,CloseBlock,,,,,m,z,female,triangle.bmp,Self
06-07-2017,2816,21,right,Hebrew,UFS,PracProc,triangle.bmp,Self,square.bmp,Friend,circle.bmp,Stranger,FarBlock,,,,,m,z,female,circle.bmp,Stranger
06-07-2017,2816,21,right,Hebrew,UFS,PracProc,triangle.bmp,Self,square.bmp,Friend,circle.bmp,Stranger,MediumBlock,,,,,m,z,female,square.bmp,Friend
06-07-2017,2816,21,right,Hebrew,UFS,PracProc,triangle.bmp,Self,square.bmp,Friend,circle.bmp,Stranger,MediumBlock,,,,,m,z,female,circle.bmp,Friend
06-07-2017,2816,21,right,Hebrew,UFS,PracProc,triangle.bmp,Self,square.bmp,Friend,circle.bmp,Stranger,CloseBlock,,,,,m,z,female,triangle.bmp,Self
06-07-2017,2816,21,right,Hebrew,UFS,PracProc,triangle.bmp,Self,square.bmp,Friend,circle.bmp,Stranger,FarBlock,,,,,m,z,female,circle.bmp,Stranger
06-07-2017,2816,21,right,Hebrew,UFS,FBbreak,triangle.bmp,Self,square.bmp,Friend,circle.bmp,Stranger,,,,,,m,z,female,,
06-07-2017,2816,21,right,Hebrew,UFS,inst,triangle.bmp,Self,square.bmp,Friend,circle.bmp,Stranger,,,,,,m,z,female,,
06-07-2017,2816,21,right,Hebrew,UFS,MMProc,triangle.bmp,Self,square.bmp,Friend,circle.bmp,Stranger,MediumBlock,1761,1,m,m,m,z,female,square.bmp,Friend
06-07-2017,2816,21,right,Hebrew,UFS,MMProc,triangle.bmp,Self,square.bmp,Friend,circle.bmp,Stranger,MediumBlock,609,1,m,m,m,z,female,square.bmp,Friend
06-07-2017,2816,21,right,Hebrew,UFS,MMProc,triangle.bmp,Self,square.bmp,Friend,circle.bmp,Stranger,MediumBlock,688,1,z,z,m,z,female,circle.bmp,Friend
06-07-2017,2816,21,right,Hebrew,UFS,MMProc,triangle.bmp,Self,square.bmp,Friend,circle.bmp,Stranger,CloseBlock,635,1,z,z,m,z,female,circle.bmp,Self
06-07-2017,2816,21,right,Hebrew,UFS,MMProc,triangle.bmp,Self,square.bmp,Friend,circle.bmp,Stranger,FarBlock,954,1,m,m,m,z,female,circle.bmp,Stranger
06-07-2017,2816,21,right,Hebrew,UFS,MMProc,triangle.bmp,Self,square.bmp,Friend,circle.bmp,Stranger,FarBlock,748,1,z,z,m,z,female,triangle.bmp,Stranger
06-07-2017,2816,21,right,Hebrew,UFS,MMProc,triangle.bmp,Self,square.bmp,Friend,circle.bmp,Stranger,CloseBlock,727,1,z,z,m,z,female,circle.bmp,Self
06-07-2017,2816,21,right,Hebrew,UFS,MMProc,triangle.bmp,Self,square.bmp,Friend,circle.bmp,Stranger,MediumBlock,979,1,z,z,m,z,female,triangle.bmp,Friend
06-07-2017,2816,21,right,Hebrew,UFS,MMProc,triangle.bmp,Self,square.bmp,Friend,circle.bmp,Stranger,FarBlock,804,1,z,z,m,z,female,square.bmp,Stranger
06-07-2017,2816,21,right,Hebrew,UFS,MMProc,triangle.bmp,Self,square.bmp,Friend,circle.bmp,Stranger,FarBlock,877,1,m,m,m,z,female,circle.bmp,Stranger
06-07-2017,2816,21,right,Hebrew,UFS,MMProc,triangle.bmp,Self,square.bmp,Friend,circle.bmp,Stranger,CloseBlock,723,1,m,m,m,z,female,triangle.bmp,Self
06-07-2017,2816,21,right,Hebrew,UFS,MMProc,triangle.bmp,Self,square.bmp,Friend,circle.bmp,Stranger,MediumBlock,895,1,m,m,m,z,female,square.bmp,Friend
06-07-2017,2816,21,right,Hebrew,UFS,MMProc,triangle.bmp,Self,square.bmp,Friend,circle.bmp,Stranger,CloseBlock,1012,1,z,z,m,z,female,square.bmp,Self
06-07-2017,2816,21,right,Hebrew,UFS,MMProc,triangle.bmp,Self,square.bmp,Friend,circle.bmp,Stranger,FarBlock,740,1,m,m,m,z,female,circle.bmp,Stranger
06-07-2017,2816,21,right,Hebrew,UFS,MMProc,triangle.bmp,Self,square.bmp,Friend,circle.bmp,Stranger,FarBlock,960,1,z,z,m,z,female,square.bmp,Stranger
06-07-2017,2816,21,right,Hebrew,UFS,MMProc,triangle.bmp,Self,square.bmp,Friend,circle.bmp,Stranger,FarBlock,658,1,z,z,m,z,female,square.bmp,Stranger
06-07-2017,2816,21,right,Hebrew,UFS,MMProc,triangle.bmp,Self,square.bmp,Friend,circle.bmp,Stranger,MediumBlock,801,1,z,z,m,z,female,circle.bmp,Friend
06-07-2017,2816,21,right,Hebrew,UFS,MMProc,triangle.bmp,Self,square.bmp,Friend,circle.bmp,Stranger,CloseBlock,730,1,m,m,m,z,female,triangle.bmp,Self
06-07-2017,2816,21,right,Hebrew,UFS,MMProc,triangle.bmp,Self,square.bmp,Friend,circle.bmp,Stranger,FarBlock,790,1,m,m,m,z,female,circle.bmp,Stranger
06-07-2017,2816,21,right,Hebrew,UFS,MMProc,triangle.bmp,Self,square.bmp,Friend,circle.bmp,Stranger,CloseBlock,736,1,z,z,m,z,female,circle.bmp,Self
06-07-2017,2816,21,right,Hebrew,UFS,MMProc,triangle.bmp,Self,square.bmp,Friend,circle.bmp,Stranger,FarBlock,907,1,z,z,m,z,female,triangle.bmp,Stranger
06-07-2017,2816,21,right,Hebrew,UFS,MMProc,triangle.bmp,Self,square.bmp,Friend,circle.bmp,Stranger,CloseBlock,736,1,m,m,m,z,female,triangle.bmp,Self
06-07-2017,2816,21,right,Hebrew,UFS,MMProc,triangle.bmp,Self,square.bmp,Friend,circle.bmp,Stranger,FarBlock,909,1,z,z,m,z,female,square.bmp,Stranger
06-07-2017,2816,21,right,Hebrew,UFS,MMProc,triangle.bmp,Self,square.bmp,Friend,circle.bmp,Stranger,CloseBlock,705,1,m,m,m,z,female,triangle.bmp,Self
06-07-2017,2816,21,right,Hebrew,UFS,MMProc,triangle.bmp,Self,square.bmp,Friend,circle.bmp,Stranger,FarBlock,798,1,z,z,m,z,female,square.bmp,Stranger
06-07-2017,2816,21,right,Hebrew,UFS,MMProc,triangle.bmp,Self,square.bmp,Friend,circle.bmp,Stranger,MediumBlock,1175,1,z,z,m,z,female,triangle.bmp,Friend
06-07-2017,2816,21,right,Hebrew,UFS,MMProc,triangle.bmp,Self,square.bmp,Friend,circle.bmp,Stranger,FarBlock,945,1,z,z,m,z,female,square.bmp,Stranger
06-07-2017,2816,21,right,Hebrew,UFS,MMProc,triangle.bmp,Self,square.bmp,Friend,circle.bmp,Stranger,MediumBlock,612,1,m,m,m,z,female,square.bmp,Friend
06-07-2017,2816,21,right,Hebrew,UFS,MMProc,triangle.bmp,Self,square.bmp,Friend,circle.bmp,Stranger,MediumBlock,805,1,z,z,m,z,female,circle.bmp,Friend
06-07-2017,2816,21,right,Hebrew,UFS,MMProc,triangle.bmp,Self,square.bmp,Friend,circle.bmp,Stranger,MediumBlock,670,1,z,z,m,z,female,circle.bmp,Friend
06-07-2017,2816,21,right,Hebrew,UFS,MMProc,triangle.bmp,Self,square.bmp,Friend,circle.bmp,Stranger,MediumBlock,556,1,m,m,m,z,female,square.bmp,Friend
06-07-2017,2816,21,right,Hebrew,UFS,MMProc,triangle.bmp,Self,square.bmp,Friend,circle.bmp,Stranger,CloseBlock,511,1,m,m,m,z,female,triangle.bmp,Self
06-07-2017,2816,21,right,Hebrew,UFS,MMProc,triangle.bmp,Self,square.bmp,Friend,circle.bmp,Stranger,FarBlock,500,0,m,z,m,z,female,circle.bmp,Stranger
06-07-2017,2816,21,right,Hebrew,UFS,MMProc,triangle.bmp,Self,square.bmp,Friend,circle.bmp,Stranger,FarBlock,1409,1,z,z,m,z,female,triangle.bmp,Stranger
06-07-2017,2816,21,right,Hebrew,UFS,MMProc,triangle.bmp,Self,square.bmp,Friend,circle.bmp,Stranger,FarBlock,705,1,m,m,m,z,female,circle.bmp,Stranger
06-07-2017,2816,21,right,Hebrew,UFS,MMProc,triangle.bmp,Self,square.bmp,Friend,circle.bmp,Stranger,FarBlock,782,1,z,z,m,z,female,triangle.bmp,Stranger
06-07-2017,2816,21,right,Hebrew,UFS,MMProc,triangle.bmp,Self,square.bmp,Friend,circle.bmp,Stranger,MediumBlock,872,1,z,z,m,z,female,circle.bmp,Friend
06-07-2017,2816,21,right,Hebrew,UFS,MMProc,triangle.bmp,Self,square.bmp,Friend,circle.bmp,Stranger,MediumBlock,845,1,m,m,m,z,female,square.bmp,Friend
06-07-2017,2816,21,right,Hebrew,UFS,MMProc,triangle.bmp,Self,square.bmp,Friend,circle.bmp,Stranger,MediumBlock,932,1,m,m,m,z,female,square.bmp,Friend
06-07-2017,2816,21,right,Hebrew,UFS,MMProc,triangle.bmp,Self,square.bmp,Friend,circle.bmp,Stranger,MediumBlock,760,1,z,z,m,z,female,circle.bmp,Friend
06-07-2017,2816,21,right,Hebrew,UFS,MMProc,triangle.bmp,Self,square.bmp,Friend,circle.bmp,Stranger,MediumBlock,738,1,m,m,m,z,female,square.bmp,Friend
06-07-2017,2816,21,right,Hebrew,UFS,MMProc,triangle.bmp,Self,square.bmp,Friend,circle.bmp,Stranger,MediumBlock,958,1,z,z,m,z,female,circle.bmp,Friend
06-07-2017,2816,21,right,Hebrew,UFS,MMProc,triangle.bmp,Self,square.bmp,Friend,circle.bmp,Stranger,MediumBlock,671,1,m,m,m,z,female,square.bmp,Friend
06-07-2017,2816,21,right,Hebrew,UFS,MMProc,triangle.bmp,Self,square.bmp,Friend,circle.bmp,Stranger,FarBlock,1422,1,m,m,m,z,female,circle.bmp,Stranger
06-07-2017,2816,21,right,Hebrew,UFS,MMProc,triangle.bmp,Self,square.bmp,Friend,circle.bmp,Stranger,CloseBlock,845,1,m,m,m,z,female,triangle.bmp,Self
06-07-2017,2816,21,right,Hebrew,UFS,MMProc,triangle.bmp,Self,square.bmp,Friend,circle.bmp,Stranger,CloseBlock,596,1,m,m,m,z,female,triangle.bmp,Self
06-07-2017,2816,21,right,Hebrew,UFS,MMProc,triangle.bmp,Self,square.bmp,Friend,circle.bmp,Stranger,CloseBlock,581,1,m,m,m,z,female,triangle.bmp,Self
06-07-2017,2816,21,right,Hebrew,UFS,MMProc,triangle.bmp,Self,square.bmp,Friend,circle.bmp,Stranger,CloseBlock,679,1,z,z,m,z,female,circle.bmp,Self
06-07-2017,2816,21,right,Hebrew,UFS,MMProc,triangle.bmp,Self,square.bmp,Friend,circle.bmp,Stranger,MediumBlock,741,1,m,m,m,z,female,square.bmp,Friend
06-07-2017,2816,21,right,Hebrew,UFS,MMProc,triangle.bmp,Self,square.bmp,Friend,circle.bmp,Stranger,CloseBlock,705,1,m,m,m,z,female,triangle.bmp,Self
06-07-2017,2816,21,right,Hebrew,UFS,MMProc,triangle.bmp,Self,square.bmp,Friend,circle.bmp,Stranger,FarBlock,702,1,m,m,m,z,female,circle.bmp,Stranger
06-07-2017,2816,21,right,Hebrew,UFS,MMProc,triangle.bmp,Self,square.bmp,Friend,circle.bmp,Stranger,CloseBlock,555,0,z,m,m,z,female,square.bmp,Self
06-07-2017,2816,21,right,Hebrew,UFS,MMProc,triangle.bmp,Self,square.bmp,Friend,circle.bmp,Stranger,CloseBlock,741,0,z,m,m,z,female,square.bmp,Self
06-07-2017,2816,21,right,Hebrew,UFS,MMProc,triangle.bmp,Self,square.bmp,Friend,circle.bmp,Stranger,FarBlock,1065,1,m,m,m,z,female,circle.bmp,Stranger
06-07-2017,2816,21,right,Hebrew,UFS,MMProc,triangle.bmp,Self,square.bmp,Friend,circle.bmp,Stranger,CloseBlock,1335,0,z,m,m,z,female,circle.bmp,Self
06-07-2017,2816,21,right,Hebrew,UFS,MMProc,triangle.bmp,Self,square.bmp,Friend,circle.bmp,Stranger,CloseBlock,1377,1,m,m,m,z,female,triangle.bmp,Self
06-07-2017,2816,21,right,Hebrew,UFS,MMProc,triangle.bmp,Self,square.bmp,Friend,circle.bmp,Stranger,FarBlock,1362,1,z,z,m,z,female,triangle.bmp,Stranger
06-07-2017,2816,21,right,Hebrew,UFS,MMProc,triangle.bmp,Self,square.bmp,Friend,circle.bmp,Stranger,CloseBlock,1060,1,z,z,m,z,female,circle.bmp,Self
06-07-2017,2816,21,right,Hebrew,UFS,MMProc,triangle.bmp,Self,square.bmp,Friend,circle.bmp,Stranger,FarBlock,930,1,m,m,m,z,female,circle.bmp,Stranger
06-07-2017,2816,21,right,Hebrew,UFS,MMProc,triangle.bmp,Self,square.bmp,Friend,circle.bmp,Stranger,MediumBlock,773,1,m,m,m,z,female,square.bmp,Friend
06-07-2017,2816,21,right,Hebrew,UFS,MMProc,triangle.bmp,Self,square.bmp,Friend,circle.bmp,Stranger,FarBlock,1232,1,m,m,m,z,female,circle.bmp,Stranger
06-07-2017,2816,21,right,Hebrew,UFS,MMProc,triangle.bmp,Self,square.bmp,Friend,circle.bmp,Stranger,CloseBlock,1687,1,z,z,m,z,female,square.bmp,Self
06-07-2017,2816,21,right,Hebrew,UFS,MMProc,triangle.bmp,Self,square.bmp,Friend,circle.bmp,Stranger,FarBlock,876,1,m,m,m,z,female,circle.bmp,Stranger
06-07-2017,2816,21,right,Hebrew,UFS,MMProc,triangle.bmp,Self,square.bmp,Friend,circle.bmp,Stranger,MediumBlock,818,1,z,z,m,z,female,circle.bmp,Friend
06-07-2017,2816,21,right,Hebrew,UFS,MMProc,triangle.bmp,Self,square.bmp,Friend,circle.bmp,Stranger,FarBlock,747,1,m,m,m,z,female,circle.bmp,Stranger
06-07-2017,2816,21,right,Hebrew,UFS,MMProc,triangle.bmp,Self,square.bmp,Friend,circle.bmp,Stranger,FarBlock,758,1,z,z,m,z,female,square.bmp,Stranger
06-07-2017,2816,21,right,Hebrew,UFS,MMProc,triangle.bmp,Self,square.bmp,Friend,circle.bmp,Stranger,CloseBlock,2096,1,z,z,m,z,female,circle.bmp,Self
06-07-2017,2816,21,right,Hebrew,UFS,MMProc,triangle.bmp,Self,square.bmp,Friend,circle.bmp,Stranger,FarBlock,772,1,m,m,m,z,female,circle.bmp,Stranger
06-07-2017,2816,21,right,Hebrew,UFS,MMProc,triangle.bmp,Self,square.bmp,Friend,circle.bmp,Stranger,MediumBlock,638,1,m,m,m,z,female,square.bmp,Friend
06-07-2017,2816,21,right,Hebrew,UFS,MMProc,triangle.bmp,Self,square.bmp,Friend,circle.bmp,Stranger,CloseBlock,910,1,z,z,m,z,female,square.bmp,Self
06-07-2017,2816,21,right,Hebrew,UFS,MMProc,triangle.bmp,Self,square.bmp,Friend,circle.bmp,Stranger,CloseBlock,1138,1,z,z,m,z,female,square.bmp,Self
06-07-2017,2816,21,right,Hebrew,UFS,MMProc,triangle.bmp,Self,square.bmp,Friend,circle.bmp,Stranger,FarBlock,637,0,z,m,m,z,female,triangle.bmp,Stranger
06-07-2017,2816,21,right,Hebrew,UFS,MMProc,triangle.bmp,Self,square.bmp,Friend,circle.bmp,Stranger,FarBlock,948,1,m,m,m,z,female,circle.bmp,Stranger
06-07-2017,2816,21,right,Hebrew,UFS,MMProc,triangle.bmp,Self,square.bmp,Friend,circle.bmp,Stranger,FarBlock,759,1,z,z,m,z,female,triangle.bmp,Stranger
06-07-2017,2816,21,right,Hebrew,UFS,MMProc,triangle.bmp,Self,square.bmp,Friend,circle.bmp,Stranger,CloseBlock,914,1,m,m,m,z,female,triangle.bmp,Self
06-07-2017,2816,21,right,Hebrew,UFS,MMProc,triangle.bmp,Self,square.bmp,Friend,circle.bmp,Stranger,MediumBlock,662,1,m,m,m,z,female,square.bmp,Friend
06-07-2017,2816,21,right,Hebrew,UFS,MMProc,triangle.bmp,Self,square.bmp,Friend,circle.bmp,Stranger,MediumBlock,1668,1,z,z,m,z,female,triangle.bmp,Friend
06-07-2017,2816,21,right,Hebrew,UFS,MMProc,triangle.bmp,Self,square.bmp,Friend,circle.bmp,Stranger,MediumBlock,890,1,z,z,m,z,female,circle.bmp,Friend
06-07-2017,2816,21,right,Hebrew,UFS,MMProc,triangle.bmp,Self,square.bmp,Friend,circle.bmp,Stranger,MediumBlock,1087,1,z,z,m,z,female,triangle.bmp,Friend
06-07-2017,2816,21,right,Hebrew,UFS,MMProc,triangle.bmp,Self,square.bmp,Friend,circle.bmp,Stranger,MediumBlock,652,1,m,m,m,z,female,square.bmp,Friend
06-07-2017,2816,21,right,Hebrew,UFS,MMProc,triangle.bmp,Self,square.bmp,Friend,circle.bmp,Stranger,FarBlock,764,1,z,z,m,z,female,square.bmp,Stranger
06-07-2017,2816,21,right,Hebrew,UFS,MMProc,triangle.bmp,Self,square.bmp,Friend,circle.bmp,Stranger,CloseBlock,1190,0,z,m,m,z,female,circle.bmp,Self
06-07-2017,2816,21,right,Hebrew,UFS,MMProc,triangle.bmp,Self,square.bmp,Friend,circle.bmp,Stranger,CloseBlock,743,1,m,m,m,z,female,triangle.bmp,Self
06-07-2017,2816,21,right,Hebrew,UFS,MMProc,triangle.bmp,Self,square.bmp,Friend,circle.bmp,Stranger,FarBlock,738,0,z,m,m,z,female,square.bmp,Stranger
06-07-2017,2816,21,right,Hebrew,UFS,MMProc,triangle.bmp,Self,square.bmp,Friend,circle.bmp,Stranger,CloseBlock,1316,1,m,m,m,z,female,triangle.bmp,Self
06-07-2017,2816,21,right,Hebrew,UFS,MMProc,triangle.bmp,Self,square.bmp,Friend,circle.bmp,Stranger,MediumBlock,792,1,z,z,m,z,female,triangle.bmp,Friend
06-07-2017,2816,21,right,Hebrew,UFS,MMProc,triangle.bmp,Self,square.bmp,Friend,circle.bmp,Stranger,FarBlock,2034,1,z,z,m,z,female,triangle.bmp,Stranger
06-07-2017,2816,21,right,Hebrew,UFS,MMProc,triangle.bmp,Self,square.bmp,Friend,circle.bmp,Stranger,CloseBlock,889,1,z,z,m,z,female,square.bmp,Self
06-07-2017,2816,21,right,Hebrew,UFS,MMProc,triangle.bmp,Self,square.bmp,Friend,circle.bmp,Stranger,MediumBlock,1982,1,z,z,m,z,female,circle.bmp,Friend
06-07-2017,2816,21,right,Hebrew,UFS,MMProc,triangle.bmp,Self,square.bmp,Friend,circle.bmp,Stranger,FarBlock,903,1,m,m,m,z,female,circle.bmp,Stranger
06-07-2017,2816,21,right,Hebrew,UFS,MMProc,triangle.bmp,Self,square.bmp,Friend,circle.bmp,Stranger,MediumBlock,668,1,m,m,m,z,female,square.bmp,Friend
06-07-2017,2816,21,right,Hebrew,UFS,MMProc,triangle.bmp,Self,square.bmp,Friend,circle.bmp,Stranger,MediumBlock,907,1,m,m,m,z,female,square.bmp,Friend
06-07-2017,2816,21,right,Hebrew,UFS,MMProc,triangle.bmp,Self,square.bmp,Friend,circle.bmp,Stranger,FarBlock,895,1,m,m,m,z,female,circle.bmp,Stranger
06-07-2017,2816,21,right,Hebrew,UFS,MMProc,triangle.bmp,Self,square.bmp,Friend,circle.bmp,Stranger,FarBlock,1572,1,m,m,m,z,female,circle.bmp,Stranger
06-07-2017,2816,21,right,Hebrew,UFS,MMProc,triangle.bmp,Self,square.bmp,Friend,circle.bmp,Stranger,MediumBlock,605,1,m,m,m,z,female,square.bmp,Friend
06-07-2017,2816,21,right,Hebrew,UFS,MMProc,triangle.bmp,Self,square.bmp,Friend,circle.bmp,Stranger,CloseBlock,2158,1,z,z,m,z,female,circle.bmp,Self
06-07-2017,2816,21,right,Hebrew,UFS,MMProc,triangle.bmp,Self,square.bmp,Friend,circle.bmp,Stranger,MediumBlock,607,1,m,m,m,z,female,square.bmp,Friend
06-07-2017,2816,21,right,Hebrew,UFS,MMProc,triangle.bmp,Self,square.bmp,Friend,circle.bmp,Stranger,CloseBlock,544,1,m,m,m,z,female,triangle.bmp,Self
06-07-2017,2816,21,right,Hebrew,UFS,MMProc,triangle.bmp,Self,square.bmp,Friend,circle.bmp,Stranger,MediumBlock,900,1,m,m,m,z,female,square.bmp,Friend
06-07-2017,2816,21,right,Hebrew,UFS,MMProc,triangle.bmp,Self,square.bmp,Friend,circle.bmp,Stranger,CloseBlock,681,1,m,m,m,z,female,triangle.bmp,Self
06-07-2017,2816,21,right,Hebrew,UFS,MMProc,triangle.bmp,Self,square.bmp,Friend,circle.bmp,Stranger,MediumBlock,998,1,z,z,m,z,female,triangle.bmp,Friend
06-07-2017,2816,21,right,Hebrew,UFS,MMProc,triangle.bmp,Self,square.bmp,Friend,circle.bmp,Stranger,MediumBlock,824,1,z,z,m,z,female,triangle.bmp,Friend
06-07-2017,2816,21,right,Hebrew,UFS,MMProc,triangle.bmp,Self,square.bmp,Friend,circle.bmp,Stranger,CloseBlock,640,1,m,m,m,z,female,triangle.bmp,Self
06-07-2017,2816,21,right,Hebrew,UFS,MMProc,triangle.bmp,Self,square.bmp,Friend,circle.bmp,Stranger,MediumBlock,687,1,m,m,m,z,female,square.bmp,Friend
06-07-2017,2816,21,right,Hebrew,UFS,MMProc,triangle.bmp,Self,square.bmp,Friend,circle.bmp,Stranger,MediumBlock,845,0,z,m,m,z,female,triangle.bmp,Friend
06-07-2017,2816,21,right,Hebrew,UFS,MMProc,triangle.bmp,Self,square.bmp,Friend,circle.bmp,Stranger,CloseBlock,1148,1,m,m,m,z,female,triangle.bmp,Self
06-07-2017,2816,21,right,Hebrew,UFS,MMProc,triangle.bmp,Self,square.bmp,Friend,circle.bmp,Stranger,CloseBlock,1238,1,z,z,m,z,female,square.bmp,Self
06-07-2017,2816,21,right,Hebrew,UFS,MMProc,triangle.bmp,Self,square.bmp,Friend,circle.bmp,Stranger,CloseBlock,1262,1,z,z,m,z,female,square.bmp,Self
06-07-2017,2816,21,right,Hebrew,UFS,MMProc,triangle.bmp,Self,square.bmp,Friend,circle.bmp,Stranger,FarBlock,819,1,z,z,m,z,female,triangle.bmp,Stranger
06-07-2017,2816,21,right,Hebrew,UFS,MMProc,triangle.bmp,Self,square.bmp,Friend,circle.bmp,Stranger,CloseBlock,908,1,z,z,m,z,female,square.bmp,Self
06-07-2017,2816,21,right,Hebrew,UFS,MMProc,triangle.bmp,Self,square.bmp,Friend,circle.bmp,Stranger,MediumBlock,1008,1,z,z,m,z,female,triangle.bmp,Friend
06-07-2017,2816,21,right,Hebrew,UFS,MMProc,triangle.bmp,Self,square.bmp,Friend,circle.bmp,Stranger,FarBlock,944,1,m,m,m,z,female,circle.bmp,Stranger
06-07-2017,2816,21,right,Hebrew,UFS,MMProc,triangle.bmp,Self,square.bmp,Friend,circle.bmp,Stranger,CloseBlock,739,1,m,m,m,z,female,triangle.bmp,Self
06-07-2017,2816,21,right,Hebrew,UFS,MMProc,triangle.bmp,Self,square.bmp,Friend,circle.bmp,Stranger,FarBlock,702,0,m,z,m,z,female,circle.bmp,Stranger
06-07-2017,2816,21,right,Hebrew,UFS,MMProc,triangle.bmp,Self,square.bmp,Friend,circle.bmp,Stranger,CloseBlock,1188,1,z,z,m,z,female,circle.bmp,Self
06-07-2017,2816,21,right,Hebrew,UFS,MMProc,triangle.bmp,Self,square.bmp,Friend,circle.bmp,Stranger,FarBlock,1421,1,z,z,m,z,female,triangle.bmp,Stranger
06-07-2017,2816,21,right,Hebrew,UFS,MMProc,triangle.bmp,Self,square.bmp,Friend,circle.bmp,Stranger,CloseBlock,797,1,m,m,m,z,female,triangle.bmp,Self
06-07-2017,2816,21,right,Hebrew,UFS,MMProc,triangle.bmp,Self,square.bmp,Friend,circle.bmp,Stranger,CloseBlock,709,1,m,m,m,z,female,triangle.bmp,Self
06-07-2017,2816,21,right,Hebrew,UFS,MMProc,triangle.bmp,Self,square.bmp,Friend,circle.bmp,Stranger,FarBlock,1026,1,z,z,m,z,female,square.bmp,Stranger
06-07-2017,2816,21,right,Hebrew,UFS,MMProc,triangle.bmp,Self,square.bmp,Friend,circle.bmp,Stranger,MediumBlock,802,1,z,z,m,z,female,triangle.bmp,Friend
06-07-2017,2816,21,right,Hebrew,UFS,FBbreak1,triangle.bmp,Self,square.bmp,Friend,circle.bmp,Stranger,,,,,,m,z,female,,
06-07-2017,2816,21,right,Hebrew,UFS,MMProc,triangle.bmp,Self,square.bmp,Friend,circle.bmp,Stranger,FarBlock,3457,1,m,m,m,z,female,circle.bmp,Stranger
06-07-2017,2816,21,right,Hebrew,UFS,MMProc,triangle.bmp,Self,square.bmp,Friend,circle.bmp,Stranger,FarBlock,813,1,m,m,m,z,female,circle.bmp,Stranger
06-07-2017,2816,21,right,Hebrew,UFS,MMProc,triangle.bmp,Self,square.bmp,Friend,circle.bmp,Stranger,MediumBlock,630,1,m,m,m,z,female,square.bmp,Friend
06-07-2017,2816,21,right,Hebrew,UFS,MMProc,triangle.bmp,Self,square.bmp,Friend,circle.bmp,Stranger,FarBlock,677,1,z,z,m,z,female,triangle.bmp,Stranger
06-07-2017,2816,21,right,Hebrew,UFS,MMProc,triangle.bmp,Self,square.bmp,Friend,circle.bmp,Stranger,MediumBlock,578,1,m,m,m,z,female,square.bmp,Friend
06-07-2017,2816,21,right,Hebrew,UFS,MMProc,triangle.bmp,Self,square.bmp,Friend,circle.bmp,Stranger,FarBlock,965,1,m,m,m,z,female,circle.bmp,Stranger
06-07-2017,2816,21,right,Hebrew,UFS,MMProc,triangle.bmp,Self,square.bmp,Friend,circle.bmp,Stranger,MediumBlock,583,1,m,m,m,z,female,square.bmp,Friend
06-07-2017,2816,21,right,Hebrew,UFS,MMProc,triangle.bmp,Self,square.bmp,Friend,circle.bmp,Stranger,MediumBlock,633,1,m,m,m,z,female,square.bmp,Friend
06-07-2017,2816,21,right,Hebrew,UFS,MMProc,triangle.bmp,Self,square.bmp,Friend,circle.bmp,Stranger,MediumBlock,1320,1,z,z,m,z,female,triangle.bmp,Friend
06-07-2017,2816,21,right,Hebrew,UFS,MMProc,triangle.bmp,Self,square.bmp,Friend,circle.bmp,Stranger,FarBlock,1340,1,z,z,m,z,female,triangle.bmp,Stranger
06-07-2017,2816,21,right,Hebrew,UFS,MMProc,triangle.bmp,Self,square.bmp,Friend,circle.bmp,Stranger,CloseBlock,591,1,m,m,m,z,female,triangle.bmp,Self
06-07-2017,2816,21,right,Hebrew,UFS,MMProc,triangle.bmp,Self,square.bmp,Friend,circle.bmp,Stranger,CloseBlock,576,1,m,m,m,z,female,triangle.bmp,Self
06-07-2017,2816,21,right,Hebrew,UFS,MMProc,triangle.bmp,Self,square.bmp,Friend,circle.bmp,Stranger,CloseBlock,722,1,z,z,m,z,female,circle.bmp,Self
06-07-2017,2816,21,right,Hebrew,UFS,MMProc,triangle.bmp,Self,square.bmp,Friend,circle.bmp,Stranger,CloseBlock,1039,1,z,z,m,z,female,square.bmp,Self
06-07-2017,2816,21,right,Hebrew,UFS,MMProc,triangle.bmp,Self,square.bmp,Friend,circle.bmp,Stranger,MediumBlock,798,1,m,m,m,z,female,square.bmp,Friend
06-07-2017,2816,21,right,Hebrew,UFS,MMProc,triangle.bmp,Self,square.bmp,Friend,circle.bmp,Stranger,MediumBlock,759,1,z,z,m,z,female,circle.bmp,Friend
06-07-2017,2816,21,right,Hebrew,UFS,MMProc,triangle.bmp,Self,square.bmp,Friend,circle.bmp,Stranger,MediumBlock,609,1,m,m,m,z,female,square.bmp,Friend
06-07-2017,2816,21,right,Hebrew,UFS,MMProc,triangle.bmp,Self,square.bmp,Friend,circle.bmp,Stranger,CloseBlock,610,1,m,m,m,z,female,triangle.bmp,Self
06-07-2017,2816,21,right,Hebrew,UFS,MMProc,triangle.bmp,Self,square.bmp,Friend,circle.bmp,Stranger,MediumBlock,706,1,z,z,m,z,female,triangle.bmp,Friend
06-07-2017,2816,21,right,Hebrew,UFS,MMProc,triangle.bmp,Self,square.bmp,Friend,circle.bmp,Stranger,CloseBlock,959,1,z,z,m,z,female,circle.bmp,Self
06-07-2017,2816,21,right,Hebrew,UFS,MMProc,triangle.bmp,Self,square.bmp,Friend,circle.bmp,Stranger,CloseBlock,705,1,m,m,m,z,female,triangle.bmp,Self
06-07-2017,2816,21,right,Hebrew,UFS,MMProc,triangle.bmp,Self,square.bmp,Friend,circle.bmp,Stranger,MediumBlock,702,1,z,z,m,z,female,triangle.bmp,Friend
06-07-2017,2816,21,right,Hebrew,UFS,MMProc,triangle.bmp,Self,square.bmp,Friend,circle.bmp,Stranger,CloseBlock,924,1,m,m,m,z,female,triangle.bmp,Self
06-07-2017,2816,21,right,Hebrew,UFS,MMProc,triangle.bmp,Self,square.bmp,Friend,circle.bmp,Stranger,CloseBlock,672,1,m,m,m,z,female,triangle.bmp,Self
06-07-2017,2816,21,right,Hebrew,UFS,MMProc,triangle.bmp,Self,square.bmp,Friend,circle.bmp,Stranger,MediumBlock,638,1,z,z,m,z,female,triangle.bmp,Friend
06-07-2017,2816,21,right,Hebrew,UFS,MMProc,triangle.bmp,Self,square.bmp,Friend,circle.bmp,Stranger,FarBlock,830,1,z,z,m,z,female,triangle.bmp,Stranger
06-07-2017,2816,21,right,Hebrew,UFS,MMProc,triangle.bmp,Self,square.bmp,Friend,circle.bmp,Stranger,FarBlock,597,1,z,z,m,z,female,square.bmp,Stranger
06-07-2017,2816,21,right,Hebrew,UFS,MMProc,triangle.bmp,Self,square.bmp,Friend,circle.bmp,Stranger,MediumBlock,1047,1,m,m,m,z,female,square.bmp,Friend
06-07-2017,2816,21,right,Hebrew,UFS,MMProc,triangle.bmp,Self,square.bmp,Friend,circle.bmp,Stranger,CloseBlock,885,1,m,m,m,z,female,triangle.bmp,Self
06-07-2017,2816,21,right,Hebrew,UFS,MMProc,triangle.bmp,Self,square.bmp,Friend,circle.bmp,Stranger,FarBlock,811,1,m,m,m,z,female,circle.bmp,Stranger
06-07-2017,2816,21,right,Hebrew,UFS,MMProc,triangle.bmp,Self,square.bmp,Friend,circle.bmp,Stranger,FarBlock,644,1,m,m,m,z,female,circle.bmp,Stranger
06-07-2017,2816,21,right,Hebrew,UFS,MMProc,triangle.bmp,Self,square.bmp,Friend,circle.bmp,Stranger,FarBlock,675,1,z,z,m,z,female,square.bmp,Stranger
06-07-2017,2816,21,right,Hebrew,UFS,MMProc,triangle.bmp,Self,square.bmp,Friend,circle.bmp,Stranger,MediumBlock,913,1,z,z,m,z,female,triangle.bmp,Friend
06-07-2017,2816,21,right,Hebrew,UFS,MMProc,triangle.bmp,Self,square.bmp,Friend,circle.bmp,Stranger,MediumBlock,853,1,z,z,m,z,female,circle.bmp,Friend
06-07-2017,2816,21,right,Hebrew,UFS,MMProc,triangle.bmp,Self,square.bmp,Friend,circle.bmp,Stranger,MediumBlock,604,1,m,m,m,z,female,square.bmp,Friend
06-07-2017,2816,21,right,Hebrew,UFS,MMProc,triangle.bmp,Self,square.bmp,Friend,circle.bmp,Stranger,CloseBlock,829,1,z,z,m,z,female,square.bmp,Self
06-07-2017,2816,21,right,Hebrew,UFS,MMProc,triangle.bmp,Self,square.bmp,Friend,circle.bmp,Stranger,CloseBlock,708,1,m,m,m,z,female,triangle.bmp,Self
06-07-2017,2816,21,right,Hebrew,UFS,MMProc,triangle.bmp,Self,square.bmp,Friend,circle.bmp,Stranger,FarBlock,657,1,m,m,m,z,female,circle.bmp,Stranger
06-07-2017,2816,21,right,Hebrew,UFS,MMProc,triangle.bmp,Self,square.bmp,Friend,circle.bmp,Stranger,CloseBlock,672,1,z,z,m,z,female,circle.bmp,Self
06-07-2017,2816,21,right,Hebrew,UFS,MMProc,triangle.bmp,Self,square.bmp,Friend,circle.bmp,Stranger,CloseBlock,686,1,m,m,m,z,female,triangle.bmp,Self
06-07-2017,2816,21,right,Hebrew,UFS,MMProc,triangle.bmp,Self,square.bmp,Friend,circle.bmp,Stranger,FarBlock,1837,1,m,m,m,z,female,circle.bmp,Stranger
06-07-2017,2816,21,right,Hebrew,UFS,MMProc,triangle.bmp,Self,square.bmp,Friend,circle.bmp,Stranger,FarBlock,683,1,m,m,m,z,female,circle.bmp,Stranger
06-07-2017,2816,21,right,Hebrew,UFS,MMProc,triangle.bmp,Self,square.bmp,Friend,circle.bmp,Stranger,MediumBlock,793,1,z,z,m,z,female,circle.bmp,Friend
06-07-2017,2816,21,right,Hebrew,UFS,MMProc,triangle.bmp,Self,square.bmp,Friend,circle.bmp,Stranger,FarBlock,882,1,z,z,m,z,female,triangle.bmp,Stranger
06-07-2017,2816,21,right,Hebrew,UFS,MMProc,triangle.bmp,Self,square.bmp,Friend,circle.bmp,Stranger,CloseBlock,568,1,m,m,m,z,female,triangle.bmp,Self
06-07-2017,2816,21,right,Hebrew,UFS,MMProc,triangle.bmp,Self,square.bmp,Friend,circle.bmp,Stranger,MediumBlock,730,1,z,z,m,z,female,circle.bmp,Friend
06-07-2017,2816,21,right,Hebrew,UFS,MMProc,triangle.bmp,Self,square.bmp,Friend,circle.bmp,Stranger,FarBlock,1014,1,z,z,m,z,female,square.bmp,Stranger
06-07-2017,2816,21,right,Hebrew,UFS,MMProc,triangle.bmp,Self,square.bmp,Friend,circle.bmp,Stranger,CloseBlock,758,1,z,z,m,z,female,circle.bmp,Self
06-07-2017,2816,21,right,Hebrew,UFS,MMProc,triangle.bmp,Self,square.bmp,Friend,circle.bmp,Stranger,MediumBlock,688,1,m,m,m,z,female,square.bmp,Friend
06-07-2017,2816,21,right,Hebrew,UFS,MMProc,triangle.bmp,Self,square.bmp,Friend,circle.bmp,Stranger,FarBlock,734,1,z,z,m,z,female,square.bmp,Stranger
06-07-2017,2816,21,right,Hebrew,UFS,MMProc,triangle.bmp,Self,square.bmp,Friend,circle.bmp,Stranger,CloseBlock,858,1,z,z,m,z,female,circle.bmp,Self
06-07-2017,2816,21,right,Hebrew,UFS,MMProc,triangle.bmp,Self,square.bmp,Friend,circle.bmp,Stranger,FarBlock,1056,1,m,m,m,z,female,circle.bmp,Stranger
06-07-2017,2816,21,right,Hebrew,UFS,MMProc,triangle.bmp,Self,square.bmp,Friend,circle.bmp,Stranger,FarBlock,830,1,z,z,m,z,female,triangle.bmp,Stranger
06-07-2017,2816,21,right,Hebrew,UFS,MMProc,triangle.bmp,Self,square.bmp,Friend,circle.bmp,Stranger,CloseBlock,838,1,z,z,m,z,female,square.bmp,Self
06-07-2017,2816,21,right,Hebrew,UFS,MMProc,triangle.bmp,Self,square.bmp,Friend,circle.bmp,Stranger,FarBlock,1261,1,z,z,m,z,female,triangle.bmp,Stranger
06-07-2017,2816,21,right,Hebrew,UFS,MMProc,triangle.bmp,Self,square.bmp,Friend,circle.bmp,Stranger,MediumBlock,979,1,z,z,m,z,female,circle.bmp,Friend
06-07-2017,2816,21,right,Hebrew,UFS,MMProc,triangle.bmp,Self,square.bmp,Friend,circle.bmp,Stranger,MediumBlock,709,1,z,z,m,z,female,circle.bmp,Friend
06-07-2017,2816,21,right,Hebrew,UFS,MMProc,triangle.bmp,Self,square.bmp,Friend,circle.bmp,Stranger,MediumBlock,546,1,m,m,m,z,female,square.bmp,Friend
06-07-2017,2816,21,right,Hebrew,UFS,MMProc,triangle.bmp,Self,square.bmp,Friend,circle.bmp,Stranger,CloseBlock,661,1,z,z,m,z,female,square.bmp,Self
06-07-2017,2816,21,right,Hebrew,UFS,MMProc,triangle.bmp,Self,square.bmp,Friend,circle.bmp,Stranger,CloseBlock,644,1,m,m,m,z,female,triangle.bmp,Self
06-07-2017,2816,21,right,Hebrew,UFS,MMProc,triangle.bmp,Self,square.bmp,Friend,circle.bmp,Stranger,FarBlock,628,0,m,z,m,z,female,circle.bmp,Stranger
06-07-2017,2816,21,right,Hebrew,UFS,MMProc,triangle.bmp,Self,square.bmp,Friend,circle.bmp,Stranger,FarBlock,1387,1,z,z,m,z,female,triangle.bmp,Stranger
06-07-2017,2816,21,right,Hebrew,UFS,MMProc,triangle.bmp,Self,square.bmp,Friend,circle.bmp,Stranger,CloseBlock,812,1,m,m,m,z,female,triangle.bmp,Self
06-07-2017,2816,21,right,Hebrew,UFS,MMProc,triangle.bmp,Self,square.bmp,Friend,circle.bmp,Stranger,MediumBlock,804,1,m,m,m,z,female,square.bmp,Friend
06-07-2017,2816,21,right,Hebrew,UFS,MMProc,triangle.bmp,Self,square.bmp,Friend,circle.bmp,Stranger,MediumBlock,813,1,z,z,m,z,female,triangle.bmp,Friend
06-07-2017,2816,21,right,Hebrew,UFS,MMProc,triangle.bmp,Self,square.bmp,Friend,circle.bmp,Stranger,MediumBlock,982,1,z,z,m,z,female,triangle.bmp,Friend
06-07-2017,2816,21,right,Hebrew,UFS,MMProc,triangle.bmp,Self,square.bmp,Friend,circle.bmp,Stranger,FarBlock,791,1,m,m,m,z,female,circle.bmp,Stranger
06-07-2017,2816,21,right,Hebrew,UFS,MMProc,triangle.bmp,Self,square.bmp,Friend,circle.bmp,Stranger,FarBlock,832,1,m,m,m,z,female,circle.bmp,Stranger
06-07-2017,2816,21,right,Hebrew,UFS,MMProc,triangle.bmp,Self,square.bmp,Friend,circle.bmp,Stranger,CloseBlock,871,1,z,z,m,z,female,circle.bmp,Self
06-07-2017,2816,21,right,Hebrew,UFS,MMProc,triangle.bmp,Self,square.bmp,Friend,circle.bmp,Stranger,CloseBlock,814,1,z,z,m,z,female,circle.bmp,Self
06-07-2017,2816,21,right,Hebrew,UFS,MMProc,triangle.bmp,Self,square.bmp,Friend,circle.bmp,Stranger,MediumBlock,694,1,m,m,m,z,female,square.bmp,Friend
06-07-2017,2816,21,right,Hebrew,UFS,MMProc,triangle.bmp,Self,square.bmp,Friend,circle.bmp,Stranger,MediumBlock,1155,1,m,m,m,z,female,square.bmp,Friend
06-07-2017,2816,21,right,Hebrew,UFS,MMProc,triangle.bmp,Self,square.bmp,Friend,circle.bmp,Stranger,CloseBlock,606,1,m,m,m,z,female,triangle.bmp,Self
06-07-2017,2816,21,right,Hebrew,UFS,MMProc,triangle.bmp,Self,square.bmp,Friend,circle.bmp,Stranger,FarBlock,543,1,m,m,m,z,female,circle.bmp,Stranger
06-07-2017,2816,21,right,Hebrew,UFS,MMProc,triangle.bmp,Self,square.bmp,Friend,circle.bmp,Stranger,MediumBlock,803,1,z,z,m,z,female,circle.bmp,Friend
06-07-2017,2816,21,right,Hebrew,UFS,MMProc,triangle.bmp,Self,square.bmp,Friend,circle.bmp,Stranger,FarBlock,876,1,z,z,m,z,female,square.bmp,Stranger
06-07-2017,2816,21,right,Hebrew,UFS,MMProc,triangle.bmp,Self,square.bmp,Friend,circle.bmp,Stranger,MediumBlock,562,1,m,m,m,z,female,square.bmp,Friend
06-07-2017,2816,21,right,Hebrew,UFS,MMProc,triangle.bmp,Self,square.bmp,Friend,circle.bmp,Stranger,FarBlock,724,1,m,m,m,z,female,circle.bmp,Stranger
06-07-2017,2816,21,right,Hebrew,UFS,MMProc,triangle.bmp,Self,square.bmp,Friend,circle.bmp,Stranger,FarBlock,688,1,m,m,m,z,female,circle.bmp,Stranger
06-07-2017,2816,21,right,Hebrew,UFS,MMProc,triangle.bmp,Self,square.bmp,Friend,circle.bmp,Stranger,MediumBlock,670,1,m,m,m,z,female,square.bmp,Friend
06-07-2017,2816,21,right,Hebrew,UFS,MMProc,triangle.bmp,Self,square.bmp,Friend,circle.bmp,Stranger,FarBlock,844,1,z,z,m,z,female,square.bmp,Stranger
06-07-2017,2816,21,right,Hebrew,UFS,MMProc,triangle.bmp,Self,square.bmp,Friend,circle.bmp,Stranger,MediumBlock,739,1,z,z,m,z,female,triangle.bmp,Friend
06-07-2017,2816,21,right,Hebrew,UFS,MMProc,triangle.bmp,Self,square.bmp,Friend,circle.bmp,Stranger,MediumBlock,703,1,z,z,m,z,female,circle.bmp,Friend
06-07-2017,2816,21,right,Hebrew,UFS,MMProc,triangle.bmp,Self,square.bmp,Friend,circle.bmp,Stranger,CloseBlock,748,0,z,m,m,z,female,circle.bmp,Self
06-07-2017,2816,21,right,Hebrew,UFS,MMProc,triangle.bmp,Self,square.bmp,Friend,circle.bmp,Stranger,FarBlock,942,1,m,m,m,z,female,circle.bmp,Stranger
06-07-2017,2816,21,right,Hebrew,UFS,MMProc,triangle.bmp,Self,square.bmp,Friend,circle.bmp,Stranger,FarBlock,801,1,z,z,m,z,female,triangle.bmp,Stranger
06-07-2017,2816,21,right,Hebrew,UFS,MMProc,triangle.bmp,Self,square.bmp,Friend,circle.bmp,Stranger,MediumBlock,587,1,m,m,m,z,female,square.bmp,Friend
06-07-2017,2816,21,right,Hebrew,UFS,MMProc,triangle.bmp,Self,square.bmp,Friend,circle.bmp,Stranger,CloseBlock,828,1,m,m,m,z,female,triangle.bmp,Self
06-07-2017,2816,21,right,Hebrew,UFS,MMProc,triangle.bmp,Self,square.bmp,Friend,circle.bmp,Stranger,FarBlock,693,1,m,m,m,z,female,circle.bmp,Stranger
06-07-2017,2816,21,right,Hebrew,UFS,MMProc,triangle.bmp,Self,square.bmp,Friend,circle.bmp,Stranger,MediumBlock,738,1,z,z,m,z,female,circle.bmp,Friend
06-07-2017,2816,21,right,Hebrew,UFS,MMProc,triangle.bmp,Self,square.bmp,Friend,circle.bmp,Stranger,CloseBlock,670,0,z,m,m,z,female,square.bmp,Self
06-07-2017,2816,21,right,Hebrew,UFS,MMProc,triangle.bmp,Self,square.bmp,Friend,circle.bmp,Stranger,CloseBlock,867,1,m,m,m,z,female,triangle.bmp,Self
06-07-2017,2816,21,right,Hebrew,UFS,MMProc,triangle.bmp,Self,square.bmp,Friend,circle.bmp,Stranger,CloseBlock,762,1,z,z,m,z,female,square.bmp,Self
06-07-2017,2816,21,right,Hebrew,UFS,MMProc,triangle.bmp,Self,square.bmp,Friend,circle.bmp,Stranger,FarBlock,1028,1,m,m,m,z,female,circle.bmp,Stranger
06-07-2017,2816,21,right,Hebrew,UFS,MMProc,triangle.bmp,Self,square.bmp,Friend,circle.bmp,Stranger,CloseBlock,676,1,m,m,m,z,female,triangle.bmp,Self
06-07-2017,2816,21,right,Hebrew,UFS,MMProc,triangle.bmp,Self,square.bmp,Friend,circle.bmp,Stranger,MediumBlock,722,1,z,z,m,z,female,triangle.bmp,Friend
06-07-2017,2816,21,right,Hebrew,UFS,MMProc,triangle.bmp,Self,square.bmp,Friend,circle.bmp,Stranger,FarBlock,638,1,m,m,m,z,female,circle.bmp,Stranger
06-07-2017,2816,21,right,Hebrew,UFS,MMProc,triangle.bmp,Self,square.bmp,Friend,circle.bmp,Stranger,CloseBlock,1310,1,z,z,m,z,female,square.bmp,Self
06-07-2017,2816,21,right,Hebrew,UFS,MMProc,triangle.bmp,Self,square.bmp,Friend,circle.bmp,Stranger,CloseBlock,610,1,z,z,m,z,female,square.bmp,Self
06-07-2017,2816,21,right,Hebrew,UFS,MMProc,triangle.bmp,Self,square.bmp,Friend,circle.bmp,Stranger,FarBlock,1010,1,z,z,m,z,female,triangle.bmp,Stranger
06-07-2017,2816,21,right,Hebrew,UFS,MMProc,triangle.bmp,Self,square.bmp,Friend,circle.bmp,Stranger,MediumBlock,593,1,m,m,m,z,female,square.bmp,Friend
06-07-2017,2816,21,right,Hebrew,UFS,MMProc,triangle.bmp,Self,square.bmp,Friend,circle.bmp,Stranger,CloseBlock,835,1,m,m,m,z,female,triangle.bmp,Self
06-07-2017,2816,21,right,Hebrew,UFS,MMProc,triangle.bmp,Self,square.bmp,Friend,circle.bmp,Stranger,FarBlock,795,1,z,z,m,z,female,square.bmp,Stranger
06-07-2017,2816,21,right,Hebrew,UFS,MMProc,triangle.bmp,Self,square.bmp,Friend,circle.bmp,Stranger,FarBlock,964,1,z,z,m,z,female,square.bmp,Stranger
06-07-2017,2816,21,right,Hebrew,UFS,MMProc,triangle.bmp,Self,square.bmp,Friend,circle.bmp,Stranger,MediumBlock,742,1,z,z,m,z,female,circle.bmp,Friend
06-07-2017,2816,21,right,Hebrew,UFS,MMProc,triangle.bmp,Self,square.bmp,Friend,circle.bmp,Stranger,FarBlock,897,1,z,z,m,z,female,triangle.bmp,Stranger
06-07-2017,2816,21,right,Hebrew,UFS,MMProc,triangle.bmp,Self,square.bmp,Friend,circle.bmp,Stranger,FarBlock,821,1,z,z,m,z,female,square.bmp,Stranger
06-07-2017,2816,21,right,Hebrew,UFS,MMProc,triangle.bmp,Self,square.bmp,Friend,circle.bmp,Stranger,FarBlock,606,1,m,m,m,z,female,circle.bmp,Stranger
06-07-2017,2816,21,right,Hebrew,UFS,MMProc,triangle.bmp,Self,square.bmp,Friend,circle.bmp,Stranger,CloseBlock,719,1,m,m,m,z,female,triangle.bmp,Self
06-07-2017,2816,21,right,Hebrew,UFS,MMProc,triangle.bmp,Self,square.bmp,Friend,circle.bmp,Stranger,MediumBlock,699,1,m,m,m,z,female,square.bmp,Friend
06-07-2017,2816,21,right,Hebrew,UFS,MMProc,triangle.bmp,Self,square.bmp,Friend,circle.bmp,Stranger,CloseBlock,936,1,z,z,m,z,female,square.bmp,Self
06-07-2017,2816,21,right,Hebrew,UFS,MMProc,triangle.bmp,Self,square.bmp,Friend,circle.bmp,Stranger,CloseBlock,716,1,z,z,m,z,female,square.bmp,Self
06-07-2017,2816,21,right,Hebrew,UFS,MMProc,triangle.bmp,Self,square.bmp,Friend,circle.bmp,Stranger,CloseBlock,585,0,z,m,m,z,female,circle.bmp,Self
06-07-2017,2816,21,right,Hebrew,UFS,MMProc,triangle.bmp,Self,square.bmp,Friend,circle.bmp,Stranger,FarBlock,1442,1,z,z,m,z,female,square.bmp,Stranger
06-07-2017,2816,21,right,Hebrew,UFS,MMProc,triangle.bmp,Self,square.bmp,Friend,circle.bmp,Stranger,CloseBlock,976,1,z,z,m,z,female,circle.bmp,Self
06-07-2017,2816,21,right,Hebrew,UFS,MMProc,triangle.bmp,Self,square.bmp,Friend,circle.bmp,Stranger,MediumBlock,562,1,m,m,m,z,female,square.bmp,Friend
06-07-2017,2816,21,right,Hebrew,UFS,MMProc,triangle.bmp,Self,square.bmp,Friend,circle.bmp,Stranger,MediumBlock,932,1,z,z,m,z,female,triangle.bmp,Friend
06-07-2017,2816,21,right,Hebrew,UFS,MMProc,triangle.bmp,Self,square.bmp,Friend,circle.bmp,Stranger,CloseBlock,760,1,m,m,m,z,female,triangle.bmp,Self
06-07-2017,2816,21,right,Hebrew,UFS,MMProc,triangle.bmp,Self,square.bmp,Friend,circle.bmp,Stranger,CloseBlock,562,1,m,m,m,z,female,triangle.bmp,Self
06-07-2017,2816,21,right,Hebrew,UFS,MMProc,triangle.bmp,Self,square.bmp,Friend,circle.bmp,Stranger,MediumBlock,517,1,m,m,m,z,female,square.bmp,Friend
06-07-2017,2816,21,right,Hebrew,UFS,FBbreak1,triangle.bmp,Self,square.bmp,Friend,circle.bmp,Stranger,,,,,,m,z,female,,
06-07-2017,2816,21,right,Hebrew,UFS,MMProc,triangle.bmp,Self,square.bmp,Friend,circle.bmp,Stranger,MediumBlock,1998,1,z,z,m,z,female,circle.bmp,Friend
06-07-2017,2816,21,right,Hebrew,UFS,MMProc,triangle.bmp,Self,square.bmp,Friend,circle.bmp,Stranger,MediumBlock,934,1,z,z,m,z,female,triangle.bmp,Friend
06-07-2017,2816,21,right,Hebrew,UFS,MMProc,triangle.bmp,Self,square.bmp,Friend,circle.bmp,Stranger,FarBlock,650,1,z,z,m,z,female,square.bmp,Stranger
06-07-2017,2816,21,right,Hebrew,UFS,MMProc,triangle.bmp,Self,square.bmp,Friend,circle.bmp,Stranger,CloseBlock,1225,1,m,m,m,z,female,triangle.bmp,Self
06-07-2017,2816,21,right,Hebrew,UFS,MMProc,triangle.bmp,Self,square.bmp,Friend,circle.bmp,Stranger,MediumBlock,672,1,z,z,m,z,female,triangle.bmp,Friend
06-07-2017,2816,21,right,Hebrew,UFS,MMProc,triangle.bmp,Self,square.bmp,Friend,circle.bmp,Stranger,FarBlock,686,1,z,z,m,z,female,square.bmp,Stranger
06-07-2017,2816,21,right,Hebrew,UFS,MMProc,triangle.bmp,Self,square.bmp,Friend,circle.bmp,Stranger,CloseBlock,588,1,z,z,m,z,female,square.bmp,Self
06-07-2017,2816,21,right,Hebrew,UFS,MMProc,triangle.bmp,Self,square.bmp,Friend,circle.bmp,Stranger,FarBlock,958,1,z,z,m,z,female,triangle.bmp,Stranger
06-07-2017,2816,21,right,Hebrew,UFS,MMProc,triangle.bmp,Self,square.bmp,Friend,circle.bmp,Stranger,FarBlock,528,1,m,m,m,z,female,circle.bmp,Stranger
06-07-2017,2816,21,right,Hebrew,UFS,MMProc,triangle.bmp,Self,square.bmp,Friend,circle.bmp,Stranger,FarBlock,788,1,z,z,m,z,female,square.bmp,Stranger
06-07-2017,2816,21,right,Hebrew,UFS,MMProc,triangle.bmp,Self,square.bmp,Friend,circle.bmp,Stranger,CloseBlock,877,1,m,m,m,z,female,triangle.bmp,Self
06-07-2017,2816,21,right,Hebrew,UFS,MMProc,triangle.bmp,Self,square.bmp,Friend,circle.bmp,Stranger,CloseBlock,900,1,m,m,m,z,female,triangle.bmp,Self
06-07-2017,2816,21,right,Hebrew,UFS,MMProc,triangle.bmp,Self,square.bmp,Friend,circle.bmp,Stranger,MediumBlock,825,1,z,z,m,z,female,circle.bmp,Friend
06-07-2017,2816,21,right,Hebrew,UFS,MMProc,triangle.bmp,Self,square.bmp,Friend,circle.bmp,Stranger,CloseBlock,640,1,m,m,m,z,female,triangle.bmp,Self
06-07-2017,2816,21,right,Hebrew,UFS,MMProc,triangle.bmp,Self,square.bmp,Friend,circle.bmp,Stranger,CloseBlock,480,1,m,m,m,z,female,triangle.bmp,Self
06-07-2017,2816,21,right,Hebrew,UFS,MMProc,triangle.bmp,Self,square.bmp,Friend,circle.bmp,Stranger,FarBlock,726,1,m,m,m,z,female,circle.bmp,Stranger
06-07-2017,2816,21,right,Hebrew,UFS,MMProc,triangle.bmp,Self,square.bmp,Friend,circle.bmp,Stranger,CloseBlock,786,1,z,z,m,z,female,square.bmp,Self
06-07-2017,2816,21,right,Hebrew,UFS,MMProc,triangle.bmp,Self,square.bmp,Friend,circle.bmp,Stranger,FarBlock,715,0,m,z,m,z,female,circle.bmp,Stranger
06-07-2017,2816,21,right,Hebrew,UFS,MMProc,triangle.bmp,Self,square.bmp,Friend,circle.bmp,Stranger,CloseBlock,896,1,z,z,m,z,female,circle.bmp,Self
06-07-2017,2816,21,right,Hebrew,UFS,MMProc,triangle.bmp,Self,square.bmp,Friend,circle.bmp,Stranger,FarBlock,804,1,z,z,m,z,female,square.bmp,Stranger
06-07-2017,2816,21,right,Hebrew,UFS,MMProc,triangle.bmp,Self,square.bmp,Friend,circle.bmp,Stranger,FarBlock,2381,1,m,m,m,z,female,circle.bmp,Stranger
06-07-2017,2816,21,right,Hebrew,UFS,MMProc,triangle.bmp,Self,square.bmp,Friend,circle.bmp,Stranger,MediumBlock,661,1,m,m,m,z,female,square.bmp,Friend
06-07-2017,2816,21,right,Hebrew,UFS,MMProc,triangle.bmp,Self,square.bmp,Friend,circle.bmp,Stranger,MediumBlock,788,1,z,z,m,z,female,triangle.bmp,Friend
06-07-2017,2816,21,right,Hebrew,UFS,MMProc,triangle.bmp,Self,square.bmp,Friend,circle.bmp,Stranger,CloseBlock,734,1,m,m,m,z,female,triangle.bmp,Self
06-07-2017,2816,21,right,Hebrew,UFS,MMProc,triangle.bmp,Self,square.bmp,Friend,circle.bmp,Stranger,MediumBlock,1096,1,z,z,m,z,female,circle.bmp,Friend
06-07-2017,2816,21,right,Hebrew,UFS,MMProc,triangle.bmp,Self,square.bmp,Friend,circle.bmp,Stranger,FarBlock,725,0,z,m,m,z,female,triangle.bmp,Stranger
06-07-2017,2816,21,right,Hebrew,UFS,MMProc,triangle.bmp,Self,square.bmp,Friend,circle.bmp,Stranger,FarBlock,1144,1,z,z,m,z,female,square.bmp,Stranger
06-07-2017,2816,21,right,Hebrew,UFS,MMProc,triangle.bmp,Self,square.bmp,Friend,circle.bmp,Stranger,CloseBlock,675,1,z,z,m,z,female,square.bmp,Self
06-07-2017,2816,21,right,Hebrew,UFS,MMProc,triangle.bmp,Self,square.bmp,Friend,circle.bmp,Stranger,CloseBlock,768,1,z,z,m,z,female,circle.bmp,Self
06-07-2017,2816,21,right,Hebrew,UFS,MMProc,triangle.bmp,Self,square.bmp,Friend,circle.bmp,Stranger,MediumBlock,683,1,z,z,m,z,female,triangle.bmp,Friend
06-07-2017,2816,21,right,Hebrew,UFS,MMProc,triangle.bmp,Self,square.bmp,Friend,circle.bmp,Stranger,MediumBlock,664,0,m,z,m,z,female,square.bmp,Friend
06-07-2017,2816,21,right,Hebrew,UFS,MMProc,triangle.bmp,Self,square.bmp,Friend,circle.bmp,Stranger,FarBlock,1679,0,m,z,m,z,female,circle.bmp,Stranger
06-07-2017,2816,21,right,Hebrew,UFS,MMProc,triangle.bmp,Self,square.bmp,Friend,circle.bmp,Stranger,FarBlock,1260,1,z,z,m,z,female,square.bmp,Stranger
06-07-2017,2816,21,right,Hebrew,UFS,MMProc,triangle.bmp,Self,square.bmp,Friend,circle.bmp,Stranger,CloseBlock,658,1,m,m,m,z,female,triangle.bmp,Self
06-07-2017,2816,21,right,Hebrew,UFS,MMProc,triangle.bmp,Self,square.bmp,Friend,circle.bmp,Stranger,MediumBlock,1104,1,z,z,m,z,female,triangle.bmp,Friend
06-07-2017,2816,21,right,Hebrew,UFS,MMProc,triangle.bmp,Self,square.bmp,Friend,circle.bmp,Stranger,MediumBlock,845,1,m,m,m,z,female,square.bmp,Friend
06-07-2017,2816,21,right,Hebrew,UFS,MMProc,triangle.bmp,Self,square.bmp,Friend,circle.bmp,Stranger,FarBlock,1987,1,m,m,m,z,female,circle.bmp,Stranger
06-07-2017,2816,21,right,Hebrew,UFS,MMProc,triangle.bmp,Self,square.bmp,Friend,circle.bmp,Stranger,CloseBlock,700,1,m,m,m,z,female,triangle.bmp,Self
06-07-2017,2816,21,right,Hebrew,UFS,MMProc,triangle.bmp,Self,square.bmp,Friend,circle.bmp,Stranger,FarBlock,777,1,z,z,m,z,female,triangle.bmp,Stranger
06-07-2017,2816,21,right,Hebrew,UFS,MMProc,triangle.bmp,Self,square.bmp,Friend,circle.bmp,Stranger,CloseBlock,1139,1,z,z,m,z,female,square.bmp,Self
06-07-2017,2816,21,right,Hebrew,UFS,MMProc,triangle.bmp,Self,square.bmp,Friend,circle.bmp,Stranger,FarBlock,654,1,z,z,m,z,female,square.bmp,Stranger
06-07-2017,2816,21,right,Hebrew,UFS,MMProc,triangle.bmp,Self,square.bmp,Friend,circle.bmp,Stranger,MediumBlock,669,1,m,m,m,z,female,square.bmp,Friend
06-07-2017,2816,21,right,Hebrew,UFS,MMProc,triangle.bmp,Self,square.bmp,Friend,circle.bmp,Stranger,CloseBlock,699,1,z,z,m,z,female,square.bmp,Self
06-07-2017,2816,21,right,Hebrew,UFS,MMProc,triangle.bmp,Self,square.bmp,Friend,circle.bmp,Stranger,MediumBlock,552,0,m,z,m,z,female,square.bmp,Friend
06-07-2017,2816,21,right,Hebrew,UFS,MMProc,triangle.bmp,Self,square.bmp,Friend,circle.bmp,Stranger,FarBlock,1939,1,z,z,m,z,female,triangle.bmp,Stranger
06-07-2017,2816,21,right,Hebrew,UFS,MMProc,triangle.bmp,Self,square.bmp,Friend,circle.bmp,Stranger,MediumBlock,974,1,m,m,m,z,female,square.bmp,Friend
06-07-2017,2816,21,right,Hebrew,UFS,MMProc,triangle.bmp,Self,square.bmp,Friend,circle.bmp,Stranger,CloseBlock,656,1,m,m,m,z,female,triangle.bmp,Self
06-07-2017,2816,21,right,Hebrew,UFS,MMProc,triangle.bmp,Self,square.bmp,Friend,circle.bmp,Stranger,FarBlock,1071,1,z,z,m,z,female,triangle.bmp,Stranger
06-07-2017,2816,21,right,Hebrew,UFS,MMProc,triangle.bmp,Self,square.bmp,Friend,circle.bmp,Stranger,FarBlock,1181,1,m,m,m,z,female,circle.bmp,Stranger
06-07-2017,2816,21,right,Hebrew,UFS,MMProc,triangle.bmp,Self,square.bmp,Friend,circle.bmp,Stranger,MediumBlock,838,1,z,z,m,z,female,triangle.bmp,Friend
06-07-2017,2816,21,right,Hebrew,UFS,MMProc,triangle.bmp,Self,square.bmp,Friend,circle.bmp,Stranger,FarBlock,1470,1,m,m,m,z,female,circle.bmp,Stranger
06-07-2017,2816,21,right,Hebrew,UFS,MMProc,triangle.bmp,Self,square.bmp,Friend,circle.bmp,Stranger,CloseBlock,827,1,m,m,m,z,female,triangle.bmp,Self
06-07-2017,2816,21,right,Hebrew,UFS,MMProc,triangle.bmp,Self,square.bmp,Friend,circle.bmp,Stranger,MediumBlock,707,1,z,z,m,z,female,triangle.bmp,Friend
06-07-2017,2816,21,right,Hebrew,UFS,MMProc,triangle.bmp,Self,square.bmp,Friend,circle.bmp,Stranger,FarBlock,975,1,m,m,m,z,female,circle.bmp,Stranger
06-07-2017,2816,21,right,Hebrew,UFS,MMProc,triangle.bmp,Self,square.bmp,Friend,circle.bmp,Stranger,CloseBlock,593,1,m,m,m,z,female,triangle.bmp,Self
06-07-2017,2816,21,right,Hebrew,UFS,MMProc,triangle.bmp,Self,square.bmp,Friend,circle.bmp,Stranger,CloseBlock,770,1,m,m,m,z,female,triangle.bmp,Self
06-07-2017,2816,21,right,Hebrew,UFS,MMProc,triangle.bmp,Self,square.bmp,Friend,circle.bmp,Stranger,CloseBlock,732,1,z,z,m,z,female,circle.bmp,Self
06-07-2017,2816,21,right,Hebrew,UFS,MMProc,triangle.bmp,Self,square.bmp,Friend,circle.bmp,Stranger,CloseBlock,664,1,m,m,m,z,female,triangle.bmp,Self
06-07-2017,2816,21,right,Hebrew,UFS,MMProc,triangle.bmp,Self,square.bmp,Friend,circle.bmp,Stranger,MediumBlock,727,1,m,m,m,z,female,square.bmp,Friend
06-07-2017,2816,21,right,Hebrew,UFS,MMProc,triangle.bmp,Self,square.bmp,Friend,circle.bmp,Stranger,CloseBlock,1747,1,z,z,m,z,female,circle.bmp,Self
06-07-2017,2816,21,right,Hebrew,UFS,MMProc,triangle.bmp,Self,square.bmp,Friend,circle.bmp,Stranger,CloseBlock,693,1,m,m,m,z,female,triangle.bmp,Self
06-07-2017,2816,21,right,Hebrew,UFS,MMProc,triangle.bmp,Self,square.bmp,Friend,circle.bmp,Stranger,MediumBlock,722,1,m,m,m,z,female,square.bmp,Friend
06-07-2017,2816,21,right,Hebrew,UFS,MMProc,triangle.bmp,Self,square.bmp,Friend,circle.bmp,Stranger,FarBlock,2078,1,z,z,m,z,female,square.bmp,Stranger
06-07-2017,2816,21,right,Hebrew,UFS,MMProc,triangle.bmp,Self,square.bmp,Friend,circle.bmp,Stranger,MediumBlock,3235,1,z,z,m,z,female,circle.bmp,Friend
06-07-2017,2816,21,right,Hebrew,UFS,MMProc,triangle.bmp,Self,square.bmp,Friend,circle.bmp,Stranger,CloseBlock,632,1,m,m,m,z,female,triangle.bmp,Self
06-07-2017,2816,21,right,Hebrew,UFS,MMProc,triangle.bmp,Self,square.bmp,Friend,circle.bmp,Stranger,MediumBlock,839,1,m,m,m,z,female,square.bmp,Friend
06-07-2017,2816,21,right,Hebrew,UFS,MMProc,triangle.bmp,Self,square.bmp,Friend,circle.bmp,Stranger,MediumBlock,703,1,z,z,m,z,female,triangle.bmp,Friend
06-07-2017,2816,21,right,Hebrew,UFS,MMProc,triangle.bmp,Self,square.bmp,Friend,circle.bmp,Stranger,MediumBlock,684,0,z,m,m,z,female,triangle.bmp,Friend
06-07-2017,2816,21,right,Hebrew,UFS,MMProc,triangle.bmp,Self,square.bmp,Friend,circle.bmp,Stranger,FarBlock,1554,1,m,m,m,z,female,circle.bmp,Stranger
06-07-2017,2816,21,right,Hebrew,UFS,MMProc,triangle.bmp,Self,square.bmp,Friend,circle.bmp,Stranger,FarBlock,684,1,m,m,m,z,female,circle.bmp,Stranger
06-07-2017,2816,21,right,Hebrew,UFS,MMProc,triangle.bmp,Self,square.bmp,Friend,circle.bmp,Stranger,MediumBlock,713,1,m,m,m,z,female,square.bmp,Friend
06-07-2017,2816,21,right,Hebrew,UFS,MMProc,triangle.bmp,Self,square.bmp,Friend,circle.bmp,Stranger,FarBlock,694,1,z,z,m,z,female,triangle.bmp,Stranger
06-07-2017,2816,21,right,Hebrew,UFS,MMProc,triangle.bmp,Self,square.bmp,Friend,circle.bmp,Stranger,CloseBlock,739,1,z,z,m,z,female,circle.bmp,Self
06-07-2017,2816,21,right,Hebrew,UFS,MMProc,triangle.bmp,Self,square.bmp,Friend,circle.bmp,Stranger,CloseBlock,831,1,z,z,m,z,female,square.bmp,Self
06-07-2017,2816,21,right,Hebrew,UFS,MMProc,triangle.bmp,Self,square.bmp,Friend,circle.bmp,Stranger,CloseBlock,1287,1,z,z,m,z,female,circle.bmp,Self
06-07-2017,2816,21,right,Hebrew,UFS,MMProc,triangle.bmp,Self,square.bmp,Friend,circle.bmp,Stranger,MediumBlock,653,1,m,m,m,z,female,square.bmp,Friend
06-07-2017,2816,21,right,Hebrew,UFS,MMProc,triangle.bmp,Self,square.bmp,Friend,circle.bmp,Stranger,CloseBlock,652,1,m,m,m,z,female,triangle.bmp,Self
06-07-2017,2816,21,right,Hebrew,UFS,MMProc,triangle.bmp,Self,square.bmp,Friend,circle.bmp,Stranger,CloseBlock,1083,1,m,m,m,z,female,triangle.bmp,Self
06-07-2017,2816,21,right,Hebrew,UFS,MMProc,triangle.bmp,Self,square.bmp,Friend,circle.bmp,Stranger,FarBlock,920,1,m,m,m,z,female,circle.bmp,Stranger
06-07-2017,2816,21,right,Hebrew,UFS,MMProc,triangle.bmp,Self,square.bmp,Friend,circle.bmp,Stranger,FarBlock,924,1,z,z,m,z,female,triangle.bmp,Stranger
06-07-2017,2816,21,right,Hebrew,UFS,MMProc,triangle.bmp,Self,square.bmp,Friend,circle.bmp,Stranger,CloseBlock,832,1,z,z,m,z,female,square.bmp,Self
06-07-2017,2816,21,right,Hebrew,UFS,MMProc,triangle.bmp,Self,square.bmp,Friend,circle.bmp,Stranger,FarBlock,839,1,z,z,m,z,female,square.bmp,Stranger
06-07-2017,2816,21,right,Hebrew,UFS,MMProc,triangle.bmp,Self,square.bmp,Friend,circle.bmp,Stranger,FarBlock,847,1,z,z,m,z,female,triangle.bmp,Stranger
06-07-2017,2816,21,right,Hebrew,UFS,MMProc,triangle.bmp,Self,square.bmp,Friend,circle.bmp,Stranger,MediumBlock,694,1,m,m,m,z,female,square.bmp,Friend
06-07-2017,2816,21,right,Hebrew,UFS,MMProc,triangle.bmp,Self,square.bmp,Friend,circle.bmp,Stranger,MediumBlock,836,1,m,m,m,z,female,square.bmp,Friend
06-07-2017,2816,21,right,Hebrew,UFS,MMProc,triangle.bmp,Self,square.bmp,Friend,circle.bmp,Stranger,CloseBlock,891,1,z,z,m,z,female,circle.bmp,Self
06-07-2017,2816,21,right,Hebrew,UFS,MMProc,triangle.bmp,Self,square.bmp,Friend,circle.bmp,Stranger,MediumBlock,785,1,z,z,m,z,female,circle.bmp,Friend
06-07-2017,2816,21,right,Hebrew,UFS,MMProc,triangle.bmp,Self,square.bmp,Friend,circle.bmp,Stranger,CloseBlock,666,1,z,z,m,z,female,circle.bmp,Self
06-07-2017,2816,21,right,Hebrew,UFS,MMProc,triangle.bmp,Self,square.bmp,Friend,circle.bmp,Stranger,MediumBlock,745,1,z,z,m,z,female,circle.bmp,Friend
06-07-2017,2816,21,right,Hebrew,UFS,MMProc,triangle.bmp,Self,square.bmp,Friend,circle.bmp,Stranger,FarBlock,788,1,z,z,m,z,female,triangle.bmp,Stranger
06-07-2017,2816,21,right,Hebrew,UFS,MMProc,triangle.bmp,Self,square.bmp,Friend,circle.bmp,Stranger,FarBlock,701,1,z,z,m,z,female,square.bmp,Stranger
06-07-2017,2816,21,right,Hebrew,UFS,MMProc,triangle.bmp,Self,square.bmp,Friend,circle.bmp,Stranger,FarBlock,715,1,m,m,m,z,female,circle.bmp,Stranger
06-07-2017,2816,21,right,Hebrew,UFS,MMProc,triangle.bmp,Self,square.bmp,Friend,circle.bmp,Stranger,MediumBlock,679,1,m,m,m,z,female,square.bmp,Friend
06-07-2017,2816,21,right,Hebrew,UFS,MMProc,triangle.bmp,Self,square.bmp,Friend,circle.bmp,Stranger,MediumBlock,853,1,z,z,m,z,female,circle.bmp,Friend
06-07-2017,2816,21,right,Hebrew,UFS,MMProc,triangle.bmp,Self,square.bmp,Friend,circle.bmp,Stranger,CloseBlock,844,1,m,m,m,z,female,triangle.bmp,Self
06-07-2017,2816,21,right,Hebrew,UFS,MMProc,triangle.bmp,Self,square.bmp,Friend,circle.bmp,Stranger,MediumBlock,1042,1,z,z,m,z,female,circle.bmp,Friend
06-07-2017,2816,21,right,Hebrew,UFS,MMProc,triangle.bmp,Self,square.bmp,Friend,circle.bmp,Stranger,FarBlock,1633,1,m,m,m,z,female,circle.bmp,Stranger
06-07-2017,2816,21,right,Hebrew,UFS,MMProc,triangle.bmp,Self,square.bmp,Friend,circle.bmp,Stranger,MediumBlock,1177,1,z,z,m,z,female,triangle.bmp,Friend
06-07-2017,2816,21,right,Hebrew,UFS,MMProc,triangle.bmp,Self,square.bmp,Friend,circle.bmp,Stranger,CloseBlock,946,1,z,z,m,z,female,square.bmp,Self
06-07-2017,2816,21,right,Hebrew,UFS,MMProc,triangle.bmp,Self,square.bmp,Friend,circle.bmp,Stranger,MediumBlock,981,1,z,z,m,z,female,circle.bmp,Friend
06-07-2017,2816,21,right,Hebrew,UFS,MMProc,triangle.bmp,Self,square.bmp,Friend,circle.bmp,Stranger,MediumBlock,647,1,z,z,m,z,female,circle.bmp,Friend
06-07-2017,2816,21,right,Hebrew,UFS,MMProc,triangle.bmp,Self,square.bmp,Friend,circle.bmp,Stranger,CloseBlock,694,1,z,z,m,z,female,circle.bmp,Self
06-07-2017,2816,21,right,Hebrew,UFS,MMProc,triangle.bmp,Self,square.bmp,Friend,circle.bmp,Stranger,FarBlock,612,1,m,m,m,z,female,circle.bmp,Stranger
06-07-2017,2816,21,right,Hebrew,UFS,MMProc,triangle.bmp,Self,square.bmp,Friend,circle.bmp,Stranger,FarBlock,725,1,m,m,m,z,female,circle.bmp,Stranger
06-07-2017,2816,21,right,Hebrew,UFS,MMProc,triangle.bmp,Self,square.bmp,Friend,circle.bmp,Stranger,MediumBlock,672,1,m,m,m,z,female,square.bmp,Friend
06-07-2017,2816,21,right,Hebrew,UFS,MMProc,triangle.bmp,Self,square.bmp,Friend,circle.bmp,Stranger,MediumBlock,655,1,m,m,m,z,female,square.bmp,Friend
06-07-2017,2816,21,right,Hebrew,UFS,MMProc,triangle.bmp,Self,square.bmp,Friend,circle.bmp,Stranger,MediumBlock,558,1,m,m,m,z,female,square.bmp,Friend
06-07-2017,2816,21,right,Hebrew,UFS,MMProc,triangle.bmp,Self,square.bmp,Friend,circle.bmp,Stranger,CloseBlock,640,0,z,m,m,z,female,square.bmp,Self
06-07-2017,2816,21,right,Hebrew,UFS,MMProc,triangle.bmp,Self,square.bmp,Friend,circle.bmp,Stranger,CloseBlock,1352,1,z,z,m,z,female,square.bmp,Self
06-07-2017,2816,21,right,Hebrew,UFS,MMProc,triangle.bmp,Self,square.bmp,Friend,circle.bmp,Stranger,MediumBlock,1067,1,m,m,m,z,female,square.bmp,Friend
06-07-2017,2816,21,right,Hebrew,UFS,MMProc,triangle.bmp,Self,square.bmp,Friend,circle.bmp,Stranger,MediumBlock,569,1,m,m,m,z,female,square.bmp,Friend
06-07-2017,2816,21,right,Hebrew,UFS,MMProc,triangle.bmp,Self,square.bmp,Friend,circle.bmp,Stranger,FarBlock,1498,1,m,m,m,z,female,circle.bmp,Stranger
06-07-2017,2816,21,right,Hebrew,UFS,MMProc,triangle.bmp,Self,square.bmp,Friend,circle.bmp,Stranger,CloseBlock,631,1,m,m,m,z,female,triangle.bmp,Self
06-07-2017,2816,21,right,Hebrew,UFS,MMProc,triangle.bmp,Self,square.bmp,Friend,circle.bmp,Stranger,CloseBlock,886,1,z,z,m,z,female,circle.bmp,Self
06-07-2017,2816,21,right,Hebrew,UFS,MMProc,triangle.bmp,Self,square.bmp,Friend,circle.bmp,Stranger,CloseBlock,684,1,m,m,m,z,female,triangle.bmp,Self
06-07-2017,2816,21,right,Hebrew,UFS,MMProc,triangle.bmp,Self,square.bmp,Friend,circle.bmp,Stranger,MediumBlock,1418,1,m,m,m,z,female,square.bmp,Friend
06-07-2017,2816,21,right,Hebrew,UFS,MMProc,triangle.bmp,Self,square.bmp,Friend,circle.bmp,Stranger,FarBlock,1577,1,m,m,m,z,female,circle.bmp,Stranger
06-07-2017,2816,21,right,Hebrew,UFS,MMProc,triangle.bmp,Self,square.bmp,Friend,circle.bmp,Stranger,FarBlock,691,1,m,m,m,z,female,circle.bmp,Stranger
06-07-2017,2816,21,right,Hebrew,UFS,MMProc,triangle.bmp,Self,square.bmp,Friend,circle.bmp,Stranger,FarBlock,480,1,m,m,m,z,female,circle.bmp,Stranger
06-07-2017,2816,21,right,Hebrew,UFS,MMProc,triangle.bmp,Self,square.bmp,Friend,circle.bmp,Stranger,FarBlock,710,1,z,z,m,z,female,triangle.bmp,Stranger
06-07-2017,2816,21,right,Hebrew,UFS,FBbreak1,triangle.bmp,Self,square.bmp,Friend,circle.bmp,Stranger,,,,,,m,z,female,,
02-19-2017,6407,26,right,Hebrew,UFS,Assos,circle.bmp,Self,square.bmp,Friend,triangle.bmp,Stranger,,,,,,m,z,female,,
02-19-2017,6407,26,right,Hebrew,UFS,PracProc,circle.bmp,Self,square.bmp,Friend,triangle.bmp,Stranger,MediumBlock,,,,,m,z,female,circle.bmp,Friend
02-19-2017,6407,26,right,Hebrew,UFS,PracProc,circle.bmp,Self,square.bmp,Friend,triangle.bmp,Stranger,MediumBlock,,,,,m,z,female,square.bmp,Friend
02-19-2017,6407,26,right,Hebrew,UFS,PracProc,circle.bmp,Self,square.bmp,Friend,triangle.bmp,Stranger,MediumBlock,,,,,m,z,female,triangle.bmp,Friend
02-19-2017,6407,26,right,Hebrew,UFS,PracProc,circle.bmp,Self,square.bmp,Friend,triangle.bmp,Stranger,FarBlock,,,,,m,z,female,triangle.bmp,Stranger
02-19-2017,6407,26,right,Hebrew,UFS,PracProc,circle.bmp,Self,square.bmp,Friend,triangle.bmp,Stranger,CloseBlock,,,,,m,z,female,square.bmp,Self
02-19-2017,6407,26,right,Hebrew,UFS,PracProc,circle.bmp,Self,square.bmp,Friend,triangle.bmp,Stranger,FarBlock,,,,,m,z,female,triangle.bmp,Stranger
02-19-2017,6407,26,right,Hebrew,UFS,PracProc,circle.bmp,Self,square.bmp,Friend,triangle.bmp,Stranger,FarBlock,,,,,m,z,female,square.bmp,Stranger
02-19-2017,6407,26,right,Hebrew,UFS,PracProc,circle.bmp,Self,square.bmp,Friend,triangle.bmp,Stranger,CloseBlock,,,,,m,z,female,circle.bmp,Self
02-19-2017,6407,26,right,Hebrew,UFS,PracProc,circle.bmp,Self,square.bmp,Friend,triangle.bmp,Stranger,CloseBlock,,,,,m,z,female,triangle.bmp,Self
02-19-2017,6407,26,right,Hebrew,UFS,PracProc,circle.bmp,Self,square.bmp,Friend,triangle.bmp,Stranger,CloseBlock,,,,,m,z,female,circle.bmp,Self
02-19-2017,6407,26,right,Hebrew,UFS,PracProc,circle.bmp,Self,square.bmp,Friend,triangle.bmp,Stranger,MediumBlock,,,,,m,z,female,square.bmp,Friend
02-19-2017,6407,26,right,Hebrew,UFS,PracProc,circle.bmp,Self,square.bmp,Friend,triangle.bmp,Stranger,FarBlock,,,,,m,z,female,circle.bmp,Stranger
02-19-2017,6407,26,right,Hebrew,UFS,FBbreak,circle.bmp,Self,square.bmp,Friend,triangle.bmp,Stranger,,,,,,m,z,female,,
02-19-2017,6407,26,right,Hebrew,UFS,inst,circle.bmp,Self,square.bmp,Friend,triangle.bmp,Stranger,,,,,,m,z,female,,
02-19-2017,6407,26,right,Hebrew,UFS,MMProc,circle.bmp,Self,square.bmp,Friend,triangle.bmp,Stranger,CloseBlock,1802,1,z,z,m,z,female,triangle.bmp,Self
02-19-2017,6407,26,right,Hebrew,UFS,MMProc,circle.bmp,Self,square.bmp,Friend,triangle.bmp,Stranger,FarBlock,1146,1,m,m,m,z,female,triangle.bmp,Stranger
02-19-2017,6407,26,right,Hebrew,UFS,MMProc,circle.bmp,Self,square.bmp,Friend,triangle.bmp,Stranger,FarBlock,773,0,m,z,m,z,female,triangle.bmp,Stranger
02-19-2017,6407,26,right,Hebrew,UFS,MMProc,circle.bmp,Self,square.bmp,Friend,triangle.bmp,Stranger,FarBlock,1142,1,z,z,m,z,female,square.bmp,Stranger
02-19-2017,6407,26,right,Hebrew,UFS,MMProc,circle.bmp,Self,square.bmp,Friend,triangle.bmp,Stranger,CloseBlock,832,1,m,m,m,z,female,circle.bmp,Self
02-19-2017,6407,26,right,Hebrew,UFS,MMProc,circle.bmp,Self,square.bmp,Friend,triangle.bmp,Stranger,MediumBlock,584,1,m,m,m,z,female,square.bmp,Friend
02-19-2017,6407,26,right,Hebrew,UFS,MMProc,circle.bmp,Self,square.bmp,Friend,triangle.bmp,Stranger,FarBlock,842,1,z,z,m,z,female,circle.bmp,Stranger
02-19-2017,6407,26,right,Hebrew,UFS,MMProc,circle.bmp,Self,square.bmp,Friend,triangle.bmp,Stranger,CloseBlock,1120,1,z,z,m,z,female,triangle.bmp,Self
02-19-2017,6407,26,right,Hebrew,UFS,MMProc,circle.bmp,Self,square.bmp,Friend,triangle.bmp,Stranger,FarBlock,812,1,z,z,m,z,female,circle.bmp,Stranger
02-19-2017,6407,26,right,Hebrew,UFS,MMProc,circle.bmp,Self,square.bmp,Friend,triangle.bmp,Stranger,MediumBlock,1237,1,z,z,m,z,female,triangle.bmp,Friend
02-19-2017,6407,26,right,Hebrew,UFS,MMProc,circle.bmp,Self,square.bmp,Friend,triangle.bmp,Stranger,CloseBlock,1020,0,z,m,m,z,female,triangle.bmp,Self
02-19-2017,6407,26,right,Hebrew,UFS,MMProc,circle.bmp,Self,square.bmp,Friend,triangle.bmp,Stranger,FarBlock,1188,1,m,m,m,z,female,triangle.bmp,Stranger
02-19-2017,6407,26,right,Hebrew,UFS,MMProc,circle.bmp,Self,square.bmp,Friend,triangle.bmp,Stranger,FarBlock,1181,1,z,z,m,z,female,square.bmp,Stranger
02-19-2017,6407,26,right,Hebrew,UFS,MMProc,circle.bmp,Self,square.bmp,Friend,triangle.bmp,Stranger,FarBlock,550,1,z,z,m,z,female,square.bmp,Stranger
02-19-2017,6407,26,right,Hebrew,UFS,MMProc,circle.bmp,Self,square.bmp,Friend,triangle.bmp,Stranger,CloseBlock,681,1,m,m,m,z,female,circle.bmp,Self
02-19-2017,6407,26,right,Hebrew,UFS,MMProc,circle.bmp,Self,square.bmp,Friend,triangle.bmp,Stranger,CloseBlock,583,1,m,m,m,z,female,circle.bmp,Self
02-19-2017,6407,26,right,Hebrew,UFS,MMProc,circle.bmp,Self,square.bmp,Friend,triangle.bmp,Stranger,MediumBlock,649,1,m,m,m,z,female,square.bmp,Friend
02-19-2017,6407,26,right,Hebrew,UFS,MMProc,circle.bmp,Self,square.bmp,Friend,triangle.bmp,Stranger,MediumBlock,968,1,z,z,m,z,female,triangle.bmp,Friend
02-19-2017,6407,26,right,Hebrew,UFS,MMProc,circle.bmp,Self,square.bmp,Friend,triangle.bmp,Stranger,FarBlock,890,1,z,z,m,z,female,circle.bmp,Stranger
02-19-2017,6407,26,right,Hebrew,UFS,MMProc,circle.bmp,Self,square.bmp,Friend,triangle.bmp,Stranger,FarBlock,448,1,z,z,m,z,female,square.bmp,Stranger
02-19-2017,6407,26,right,Hebrew,UFS,MMProc,circle.bmp,Self,square.bmp,Friend,triangle.bmp,Stranger,MediumBlock,1079,0,z,m,m,z,female,triangle.bmp,Friend
02-19-2017,6407,26,right,Hebrew,UFS,MMProc,circle.bmp,Self,square.bmp,Friend,triangle.bmp,Stranger,MediumBlock,1148,1,m,m,m,z,female,square.bmp,Friend
02-19-2017,6407,26,right,Hebrew,UFS,MMProc,circle.bmp,Self,square.bmp,Friend,triangle.bmp,Stranger,FarBlock,998,1,m,m,m,z,female,triangle.bmp,Stranger
02-19-2017,6407,26,right,Hebrew,UFS,MMProc,circle.bmp,Self,square.bmp,Friend,triangle.bmp,Stranger,MediumBlock,1255,1,m,m,m,z,female,square.bmp,Friend
02-19-2017,6407,26,right,Hebrew,UFS,MMProc,circle.bmp,Self,square.bmp,Friend,triangle.bmp,Stranger,FarBlock,846,1,z,z,m,z,female,square.bmp,Stranger
02-19-2017,6407,26,right,Hebrew,UFS,MMProc,circle.bmp,Self,square.bmp,Friend,triangle.bmp,Stranger,CloseBlock,724,0,z,m,m,z,female,triangle.bmp,Self
02-19-2017,6407,26,right,Hebrew,UFS,MMProc,circle.bmp,Self,square.bmp,Friend,triangle.bmp,Stranger,FarBlock,1335,1,z,z,m,z,female,circle.bmp,Stranger
02-19-2017,6407,26,right,Hebrew,UFS,MMProc,circle.bmp,Self,square.bmp,Friend,triangle.bmp,Stranger,CloseBlock,1002,1,m,m,m,z,female,circle.bmp,Self
02-19-2017,6407,26,right,Hebrew,UFS,MMProc,circle.bmp,Self,square.bmp,Friend,triangle.bmp,Stranger,CloseBlock,1211,1,z,z,m,z,female,triangle.bmp,Self
02-19-2017,6407,26,right,Hebrew,UFS,MMProc,circle.bmp,Self,square.bmp,Friend,triangle.bmp,Stranger,CloseBlock,1123,1,z,z,m,z,female,square.bmp,Self
02-19-2017,6407,26,right,Hebrew,UFS,MMProc,circle.bmp,Self,square.bmp,Friend,triangle.bmp,Stranger,CloseBlock,559,1,m,m,m,z,female,circle.bmp,Self
02-19-2017,6407,26,right,Hebrew,UFS,MMProc,circle.bmp,Self,square.bmp,Friend,triangle.bmp,Stranger,CloseBlock,465,1,m,m,m,z,female,circle.bmp,Self
02-19-2017,6407,26,right,Hebrew,UFS,MMProc,circle.bmp,Self,square.bmp,Friend,triangle.bmp,Stranger,MediumBlock,1096,1,z,z,m,z,female,triangle.bmp,Friend
02-19-2017,6407,26,right,Hebrew,UFS,MMProc,circle.bmp,Self,square.bmp,Friend,triangle.bmp,Stranger,MediumBlock,644,1,m,m,m,z,female,square.bmp,Friend
02-19-2017,6407,26,right,Hebrew,UFS,MMProc,circle.bmp,Self,square.bmp,Friend,triangle.bmp,Stranger,FarBlock,788,0,m,z,m,z,female,triangle.bmp,Stranger
02-19-2017,6407,26,right,Hebrew,UFS,MMProc,circle.bmp,Self,square.bmp,Friend,triangle.bmp,Stranger,CloseBlock,1029,1,z,z,m,z,female,square.bmp,Self
02-19-2017,6407,26,right,Hebrew,UFS,MMProc,circle.bmp,Self,square.bmp,Friend,triangle.bmp,Stranger,CloseBlock,1348,0,m,z,m,z,female,circle.bmp,Self
02-19-2017,6407,26,right,Hebrew,UFS,MMProc,circle.bmp,Self,square.bmp,Friend,triangle.bmp,Stranger,MediumBlock,2718,1,m,m,m,z,female,square.bmp,Friend
02-19-2017,6407,26,right,Hebrew,UFS,MMProc,circle.bmp,Self,square.bmp,Friend,triangle.bmp,Stranger,FarBlock,776,1,z,z,m,z,female,square.bmp,Stranger
02-19-2017,6407,26,right,Hebrew,UFS,MMProc,circle.bmp,Self,square.bmp,Friend,triangle.bmp,Stranger,MediumBlock,658,1,m,m,m,z,female,square.bmp,Friend
02-19-2017,6407,26,right,Hebrew,UFS,MMProc,circle.bmp,Self,square.bmp,Friend,triangle.bmp,Stranger,CloseBlock,561,1,m,m,m,z,female,circle.bmp,Self
02-19-2017,6407,26,right,Hebrew,UFS,MMProc,circle.bmp,Self,square.bmp,Friend,triangle.bmp,Stranger,CloseBlock,659,1,z,z,m,z,female,triangle.bmp,Self
02-19-2017,6407,26,right,Hebrew,UFS,MMProc,circle.bmp,Self,square.bmp,Friend,triangle.bmp,Stranger,MediumBlock,945,1,z,z,m,z,female,circle.bmp,Friend
02-19-2017,6407,26,right,Hebrew,UFS,MMProc,circle.bmp,Self,square.bmp,Friend,triangle.bmp,Stranger,MediumBlock,1044,1,z,z,m,z,female,circle.bmp,Friend
02-19-2017,6407,26,right,Hebrew,UFS,MMProc,circle.bmp,Self,square.bmp,Friend,triangle.bmp,Stranger,FarBlock,738,0,m,z,m,z,female,triangle.bmp,Stranger
02-19-2017,6407,26,right,Hebrew,UFS,MMProc,circle.bmp,Self,square.bmp,Friend,triangle.bmp,Stranger,CloseBlock,965,1,m,m,m,z,female,circle.bmp,Self
02-19-2017,6407,26,right,Hebrew,UFS,MMProc,circle.bmp,Self,square.bmp,Friend,triangle.bmp,Stranger,CloseBlock,679,1,z,z,m,z,female,square.bmp,Self
02-19-2017,6407,26,right,Hebrew,UFS,MMProc,circle.bmp,Self,square.bmp,Friend,triangle.bmp,Stranger,MediumBlock,645,1,m,m,m,z,female,square.bmp,Friend
02-19-2017,6407,26,right,Hebrew,UFS,MMProc,circle.bmp,Self,square.bmp,Friend,triangle.bmp,Stranger,FarBlock,580,0,m,z,m,z,female,triangle.bmp,Stranger
02-19-2017,6407,26,right,Hebrew,UFS,MMProc,circle.bmp,Self,square.bmp,Friend,triangle.bmp,Stranger,MediumBlock,957,1,m,m,m,z,female,square.bmp,Friend
02-19-2017,6407,26,right,Hebrew,UFS,MMProc,circle.bmp,Self,square.bmp,Friend,triangle.bmp,Stranger,CloseBlock,640,1,z,z,m,z,female,triangle.bmp,Self
02-19-2017,6407,26,right,Hebrew,UFS,MMProc,circle.bmp,Self,square.bmp,Friend,triangle.bmp,Stranger,MediumBlock,751,1,z,z,m,z,female,triangle.bmp,Friend
02-19-2017,6407,26,right,Hebrew,UFS,MMProc,circle.bmp,Self,square.bmp,Friend,triangle.bmp,Stranger,MediumBlock,698,0,z,m,m,z,female,circle.bmp,Friend
02-19-2017,6407,26,right,Hebrew,UFS,MMProc,circle.bmp,Self,square.bmp,Friend,triangle.bmp,Stranger,FarBlock,1007,1,m,m,m,z,female,triangle.bmp,Stranger
02-19-2017,6407,26,right,Hebrew,UFS,MMProc,circle.bmp,Self,square.bmp,Friend,triangle.bmp,Stranger,FarBlock,831,1,m,m,m,z,female,triangle.bmp,Stranger
02-19-2017,6407,26,right,Hebrew,UFS,MMProc,circle.bmp,Self,square.bmp,Friend,triangle.bmp,Stranger,FarBlock,775,1,m,m,m,z,female,triangle.bmp,Stranger
02-19-2017,6407,26,right,Hebrew,UFS,MMProc,circle.bmp,Self,square.bmp,Friend,triangle.bmp,Stranger,CloseBlock,848,0,z,m,m,z,female,square.bmp,Self
02-19-2017,6407,26,right,Hebrew,UFS,MMProc,circle.bmp,Self,square.bmp,Friend,triangle.bmp,Stranger,FarBlock,687,0,z,m,m,z,female,circle.bmp,Stranger
02-19-2017,6407,26,right,Hebrew,UFS,MMProc,circle.bmp,Self,square.bmp,Friend,triangle.bmp,Stranger,CloseBlock,612,1,m,m,m,z,female,circle.bmp,Self
02-19-2017,6407,26,right,Hebrew,UFS,MMProc,circle.bmp,Self,square.bmp,Friend,triangle.bmp,Stranger,MediumBlock,772,1,z,z,m,z,female,circle.bmp,Friend
02-19-2017,6407,26,right,Hebrew,UFS,MMProc,circle.bmp,Self,square.bmp,Friend,triangle.bmp,Stranger,MediumBlock,879,1,m,m,m,z,female,square.bmp,Friend
02-19-2017,6407,26,right,Hebrew,UFS,MMProc,circle.bmp,Self,square.bmp,Friend,triangle.bmp,Stranger,CloseBlock,1092,1,z,z,m,z,female,square.bmp,Self
02-19-2017,6407,26,right,Hebrew,UFS,MMProc,circle.bmp,Self,square.bmp,Friend,triangle.bmp,Stranger,CloseBlock,609,1,z,z,m,z,female,square.bmp,Self
02-19-2017,6407,26,right,Hebrew,UFS,MMProc,circle.bmp,Self,square.bmp,Friend,triangle.bmp,Stranger,CloseBlock,673,1,z,z,m,z,female,triangle.bmp,Self
02-19-2017,6407,26,right,Hebrew,UFS,MMProc,circle.bmp,Self,square.bmp,Friend,triangle.bmp,Stranger,MediumBlock,494,1,m,m,m,z,female,square.bmp,Friend
02-19-2017,6407,26,right,Hebrew,UFS,MMProc,circle.bmp,Self,square.bmp,Friend,triangle.bmp,Stranger,FarBlock,531,1,z,z,m,z,female,square.bmp,Stranger
02-19-2017,6407,26,right,Hebrew,UFS,MMProc,circle.bmp,Self,square.bmp,Friend,triangle.bmp,Stranger,MediumBlock,727,1,z,z,m,z,female,triangle.bmp,Friend
02-19-2017,6407,26,right,Hebrew,UFS,MMProc,circle.bmp,Self,square.bmp,Friend,triangle.bmp,Stranger,FarBlock,851,1,m,m,m,z,female,triangle.bmp,Stranger
02-19-2017,6407,26,right,Hebrew,UFS,MMProc,circle.bmp,Self,square.bmp,Friend,triangle.bmp,Stranger,FarBlock,890,1,z,z,m,z,female,square.bmp,Stranger
02-19-2017,6407,26,right,Hebrew,UFS,MMProc,circle.bmp,Self,square.bmp,Friend,triangle.bmp,Stranger,FarBlock,911,0,m,z,m,z,female,triangle.bmp,Stranger
02-19-2017,6407,26,right,Hebrew,UFS,MMProc,circle.bmp,Self,square.bmp,Friend,triangle.bmp,Stranger,FarBlock,762,1,z,z,m,z,female,circle.bmp,Stranger
02-19-2017,6407,26,right,Hebrew,UFS,MMProc,circle.bmp,Self,square.bmp,Friend,triangle.bmp,Stranger,MediumBlock,661,1,z,z,m,z,female,triangle.bmp,Friend
02-19-2017,6407,26,right,Hebrew,UFS,MMProc,circle.bmp,Self,square.bmp,Friend,triangle.bmp,Stranger,MediumBlock,915,1,m,m,m,z,female,square.bmp,Friend
02-19-2017,6407,26,right,Hebrew,UFS,MMProc,circle.bmp,Self,square.bmp,Friend,triangle.bmp,Stranger,MediumBlock,455,0,m,z,m,z,female,square.bmp,Friend
02-19-2017,6407,26,right,Hebrew,UFS,MMProc,circle.bmp,Self,square.bmp,Friend,triangle.bmp,Stranger,CloseBlock,774,1,z,z,m,z,female,triangle.bmp,Self
02-19-2017,6407,26,right,Hebrew,UFS,MMProc,circle.bmp,Self,square.bmp,Friend,triangle.bmp,Stranger,CloseBlock,800,1,m,m,m,z,female,circle.bmp,Self
02-19-2017,6407,26,right,Hebrew,UFS,MMProc,circle.bmp,Self,square.bmp,Friend,triangle.bmp,Stranger,FarBlock,681,0,m,z,m,z,female,triangle.bmp,Stranger
02-19-2017,6407,26,right,Hebrew,UFS,MMProc,circle.bmp,Self,square.bmp,Friend,triangle.bmp,Stranger,MediumBlock,2254,1,m,m,m,z,female,square.bmp,Friend
02-19-2017,6407,26,right,Hebrew,UFS,MMProc,circle.bmp,Self,square.bmp,Friend,triangle.bmp,Stranger,FarBlock,796,1,m,m,m,z,female,triangle.bmp,Stranger
02-19-2017,6407,26,right,Hebrew,UFS,MMProc,circle.bmp,Self,square.bmp,Friend,triangle.bmp,Stranger,CloseBlock,532,1,m,m,m,z,female,circle.bmp,Self
02-19-2017,6407,26,right,Hebrew,UFS,MMProc,circle.bmp,Self,square.bmp,Friend,triangle.bmp,Stranger,MediumBlock,600,1,m,m,m,z,female,square.bmp,Friend
02-19-2017,6407,26,right,Hebrew,UFS,MMProc,circle.bmp,Self,square.bmp,Friend,triangle.bmp,Stranger,MediumBlock,602,0,m,z,m,z,female,square.bmp,Friend
02-19-2017,6407,26,right,Hebrew,UFS,MMProc,circle.bmp,Self,square.bmp,Friend,triangle.bmp,Stranger,FarBlock,914,0,m,z,m,z,female,triangle.bmp,Stranger
02-19-2017,6407,26,right,Hebrew,UFS,MMProc,circle.bmp,Self,square.bmp,Friend,triangle.bmp,Stranger,MediumBlock,846,0,z,m,m,z,female,circle.bmp,Friend
02-19-2017,6407,26,right,Hebrew,UFS,MMProc,circle.bmp,Self,square.bmp,Friend,triangle.bmp,Stranger,MediumBlock,747,1,z,z,m,z,female,triangle.bmp,Friend
02-19-2017,6407,26,right,Hebrew,UFS,MMProc,circle.bmp,Self,square.bmp,Friend,triangle.bmp,Stranger,FarBlock,646,0,z,m,m,z,female,square.bmp,Stranger
02-19-2017,6407,26,right,Hebrew,UFS,MMProc,circle.bmp,Self,square.bmp,Friend,triangle.bmp,Stranger,MediumBlock,1469,1,m,m,m,z,female,square.bmp,Friend
02-19-2017,6407,26,right,Hebrew,UFS,MMProc,circle.bmp,Self,square.bmp,Friend,triangle.bmp,Stranger,CloseBlock,618,1,m,m,m,z,female,circle.bmp,Self
02-19-2017,6407,26,right,Hebrew,UFS,MMProc,circle.bmp,Self,square.bmp,Friend,triangle.bmp,Stranger,MediumBlock,635,1,z,z,m,z,female,circle.bmp,Friend
02-19-2017,6407,26,right,Hebrew,UFS,MMProc,circle.bmp,Self,square.bmp,Friend,triangle.bmp,Stranger,CloseBlock,955,1,m,m,m,z,female,circle.bmp,Self
02-19-2017,6407,26,right,Hebrew,UFS,MMProc,circle.bmp,Self,square.bmp,Friend,triangle.bmp,Stranger,MediumBlock,1229,1,z,z,m,z,female,triangle.bmp,Friend
02-19-2017,6407,26,right,Hebrew,UFS,MMProc,circle.bmp,Self,square.bmp,Friend,triangle.bmp,Stranger,FarBlock,661,0,m,z,m,z,female,triangle.bmp,Stranger
02-19-2017,6407,26,right,Hebrew,UFS,MMProc,circle.bmp,Self,square.bmp,Friend,triangle.bmp,Stranger,CloseBlock,795,0,z,m,m,z,female,square.bmp,Self
02-19-2017,6407,26,right,Hebrew,UFS,MMProc,circle.bmp,Self,square.bmp,Friend,triangle.bmp,Stranger,CloseBlock,779,1,m,m,m,z,female,circle.bmp,Self
02-19-2017,6407,26,right,Hebrew,UFS,MMProc,circle.bmp,Self,square.bmp,Friend,triangle.bmp,Stranger,MediumBlock,981,1,m,m,m,z,female,square.bmp,Friend
02-19-2017,6407,26,right,Hebrew,UFS,MMProc,circle.bmp,Self,square.bmp,Friend,triangle.bmp,Stranger,FarBlock,534,1,m,m,m,z,female,triangle.bmp,Stranger
02-19-2017,6407,26,right,Hebrew,UFS,MMProc,circle.bmp,Self,square.bmp,Friend,triangle.bmp,Stranger,CloseBlock,1051,1,z,z,m,z,female,square.bmp,Self
02-19-2017,6407,26,right,Hebrew,UFS,MMProc,circle.bmp,Self,square.bmp,Friend,triangle.bmp,Stranger,MediumBlock,1049,1,z,z,m,z,female,triangle.bmp,Friend
02-19-2017,6407,26,right,Hebrew,UFS,MMProc,circle.bmp,Self,square.bmp,Friend,triangle.bmp,Stranger,MediumBlock,681,1,z,z,m,z,female,circle.bmp,Friend
02-19-2017,6407,26,right,Hebrew,UFS,MMProc,circle.bmp,Self,square.bmp,Friend,triangle.bmp,Stranger,FarBlock,775,1,m,m,m,z,female,triangle.bmp,Stranger
02-19-2017,6407,26,right,Hebrew,UFS,MMProc,circle.bmp,Self,square.bmp,Friend,triangle.bmp,Stranger,MediumBlock,720,1,z,z,m,z,female,circle.bmp,Friend
02-19-2017,6407,26,right,Hebrew,UFS,MMProc,circle.bmp,Self,square.bmp,Friend,triangle.bmp,Stranger,FarBlock,749,1,m,m,m,z,female,triangle.bmp,Stranger
02-19-2017,6407,26,right,Hebrew,UFS,MMProc,circle.bmp,Self,square.bmp,Friend,triangle.bmp,Stranger,FarBlock,632,1,m,m,m,z,female,triangle.bmp,Stranger
02-19-2017,6407,26,right,Hebrew,UFS,MMProc,circle.bmp,Self,square.bmp,Friend,triangle.bmp,Stranger,FarBlock,599,1,z,z,m,z,female,circle.bmp,Stranger
02-19-2017,6407,26,right,Hebrew,UFS,MMProc,circle.bmp,Self,square.bmp,Friend,triangle.bmp,Stranger,MediumBlock,681,1,m,m,m,z,female,square.bmp,Friend
02-19-2017,6407,26,right,Hebrew,UFS,MMProc,circle.bmp,Self,square.bmp,Friend,triangle.bmp,Stranger,MediumBlock,726,1,z,z,m,z,female,circle.bmp,Friend
02-19-2017,6407,26,right,Hebrew,UFS,MMProc,circle.bmp,Self,square.bmp,Friend,triangle.bmp,Stranger,CloseBlock,721,1,m,m,m,z,female,circle.bmp,Self
02-19-2017,6407,26,right,Hebrew,UFS,MMProc,circle.bmp,Self,square.bmp,Friend,triangle.bmp,Stranger,CloseBlock,685,1,m,m,m,z,female,circle.bmp,Self
02-19-2017,6407,26,right,Hebrew,UFS,MMProc,circle.bmp,Self,square.bmp,Friend,triangle.bmp,Stranger,CloseBlock,715,1,z,z,m,z,female,triangle.bmp,Self
02-19-2017,6407,26,right,Hebrew,UFS,MMProc,circle.bmp,Self,square.bmp,Friend,triangle.bmp,Stranger,CloseBlock,792,1,m,m,m,z,female,circle.bmp,Self
02-19-2017,6407,26,right,Hebrew,UFS,MMProc,circle.bmp,Self,square.bmp,Friend,triangle.bmp,Stranger,CloseBlock,753,1,z,z,m,z,female,square.bmp,Self
02-19-2017,6407,26,right,Hebrew,UFS,MMProc,circle.bmp,Self,square.bmp,Friend,triangle.bmp,Stranger,FarBlock,844,1,z,z,m,z,female,circle.bmp,Stranger
02-19-2017,6407,26,right,Hebrew,UFS,MMProc,circle.bmp,Self,square.bmp,Friend,triangle.bmp,Stranger,MediumBlock,771,1,z,z,m,z,female,circle.bmp,Friend
02-19-2017,6407,26,right,Hebrew,UFS,MMProc,circle.bmp,Self,square.bmp,Friend,triangle.bmp,Stranger,CloseBlock,781,1,m,m,m,z,female,circle.bmp,Self
02-19-2017,6407,26,right,Hebrew,UFS,MMProc,circle.bmp,Self,square.bmp,Friend,triangle.bmp,Stranger,FarBlock,791,0,z,m,m,z,female,square.bmp,Stranger
02-19-2017,6407,26,right,Hebrew,UFS,MMProc,circle.bmp,Self,square.bmp,Friend,triangle.bmp,Stranger,CloseBlock,583,1,m,m,m,z,female,circle.bmp,Self
02-19-2017,6407,26,right,Hebrew,UFS,MMProc,circle.bmp,Self,square.bmp,Friend,triangle.bmp,Stranger,FarBlock,729,1,z,z,m,z,female,circle.bmp,Stranger
02-19-2017,6407,26,right,Hebrew,UFS,MMProc,circle.bmp,Self,square.bmp,Friend,triangle.bmp,Stranger,MediumBlock,516,1,m,m,m,z,female,square.bmp,Friend
02-19-2017,6407,26,right,Hebrew,UFS,MMProc,circle.bmp,Self,square.bmp,Friend,triangle.bmp,Stranger,CloseBlock,618,1,z,z,m,z,female,square.bmp,Self
02-19-2017,6407,26,right,Hebrew,UFS,MMProc,circle.bmp,Self,square.bmp,Friend,triangle.bmp,Stranger,FarBlock,954,1,z,z,m,z,female,circle.bmp,Stranger
02-19-2017,6407,26,right,Hebrew,UFS,FBbreak1,circle.bmp,Self,square.bmp,Friend,triangle.bmp,Stranger,,,,,,m,z,female,,
02-19-2017,6407,26,right,Hebrew,UFS,MMProc,circle.bmp,Self,square.bmp,Friend,triangle.bmp,Stranger,CloseBlock,1074,1,z,z,m,z,female,triangle.bmp,Self
02-19-2017,6407,26,right,Hebrew,UFS,MMProc,circle.bmp,Self,square.bmp,Friend,triangle.bmp,Stranger,CloseBlock,623,1,m,m,m,z,female,circle.bmp,Self
02-19-2017,6407,26,right,Hebrew,UFS,MMProc,circle.bmp,Self,square.bmp,Friend,triangle.bmp,Stranger,FarBlock,512,0,z,m,m,z,female,square.bmp,Stranger
02-19-2017,6407,26,right,Hebrew,UFS,MMProc,circle.bmp,Self,square.bmp,Friend,triangle.bmp,Stranger,MediumBlock,636,1,m,m,m,z,female,square.bmp,Friend
02-19-2017,6407,26,right,Hebrew,UFS,MMProc,circle.bmp,Self,square.bmp,Friend,triangle.bmp,Stranger,FarBlock,666,1,m,m,m,z,female,triangle.bmp,Stranger
02-19-2017,6407,26,right,Hebrew,UFS,MMProc,circle.bmp,Self,square.bmp,Friend,triangle.bmp,Stranger,FarBlock,937,1,m,m,m,z,female,triangle.bmp,Stranger
02-19-2017,6407,26,right,Hebrew,UFS,MMProc,circle.bmp,Self,square.bmp,Friend,triangle.bmp,Stranger,FarBlock,508,1,m,m,m,z,female,triangle.bmp,Stranger
02-19-2017,6407,26,right,Hebrew,UFS,MMProc,circle.bmp,Self,square.bmp,Friend,triangle.bmp,Stranger,FarBlock,417,1,m,m,m,z,female,triangle.bmp,Stranger
02-19-2017,6407,26,right,Hebrew,UFS,MMProc,circle.bmp,Self,square.bmp,Friend,triangle.bmp,Stranger,MediumBlock,634,1,m,m,m,z,female,square.bmp,Friend
02-19-2017,6407,26,right,Hebrew,UFS,MMProc,circle.bmp,Self,square.bmp,Friend,triangle.bmp,Stranger,FarBlock,521,1,m,m,m,z,female,triangle.bmp,Stranger
02-19-2017,6407,26,right,Hebrew,UFS,MMProc,circle.bmp,Self,square.bmp,Friend,triangle.bmp,Stranger,MediumBlock,766,1,z,z,m,z,female,triangle.bmp,Friend
02-19-2017,6407,26,right,Hebrew,UFS,MMProc,circle.bmp,Self,square.bmp,Friend,triangle.bmp,Stranger,CloseBlock,920,1,z,z,m,z,female,triangle.bmp,Self
02-19-2017,6407,26,right,Hebrew,UFS,MMProc,circle.bmp,Self,square.bmp,Friend,triangle.bmp,Stranger,MediumBlock,557,1,m,m,m,z,female,square.bmp,Friend
02-19-2017,6407,26,right,Hebrew,UFS,MMProc,circle.bmp,Self,square.bmp,Friend,triangle.bmp,Stranger,CloseBlock,559,1,m,m,m,z,female,circle.bmp,Self
02-19-2017,6407,26,right,Hebrew,UFS,MMProc,circle.bmp,Self,square.bmp,Friend,triangle.bmp,Stranger,FarBlock,722,1,z,z,m,z,female,square.bmp,Stranger
02-19-2017,6407,26,right,Hebrew,UFS,MMProc,circle.bmp,Self,square.bmp,Friend,triangle.bmp,Stranger,CloseBlock,654,1,m,m,m,z,female,circle.bmp,Self
02-19-2017,6407,26,right,Hebrew,UFS,MMProc,circle.bmp,Self,square.bmp,Friend,triangle.bmp,Stranger,MediumBlock,621,1,z,z,m,z,female,triangle.bmp,Friend
02-19-2017,6407,26,right,Hebrew,UFS,MMProc,circle.bmp,Self,square.bmp,Friend,triangle.bmp,Stranger,CloseBlock,1886,1,m,m,m,z,female,circle.bmp,Self
02-19-2017,6407,26,right,Hebrew,UFS,MMProc,circle.bmp,Self,square.bmp,Friend,triangle.bmp,Stranger,MediumBlock,602,1,m,m,m,z,female,square.bmp,Friend
02-19-2017,6407,26,right,Hebrew,UFS,MMProc,circle.bmp,Self,square.bmp,Friend,triangle.bmp,Stranger,MediumBlock,651,1,z,z,m,z,female,circle.bmp,Friend
02-19-2017,6407,26,right,Hebrew,UFS,MMProc,circle.bmp,Self,square.bmp,Friend,triangle.bmp,Stranger,CloseBlock,587,1,m,m,m,z,female,circle.bmp,Self
02-19-2017,6407,26,right,Hebrew,UFS,MMProc,circle.bmp,Self,square.bmp,Friend,triangle.bmp,Stranger,MediumBlock,428,1,m,m,m,z,female,square.bmp,Friend
02-19-2017,6407,26,right,Hebrew,UFS,MMProc,circle.bmp,Self,square.bmp,Friend,triangle.bmp,Stranger,MediumBlock,452,1,m,m,m,z,female,square.bmp,Friend
02-19-2017,6407,26,right,Hebrew,UFS,MMProc,circle.bmp,Self,square.bmp,Friend,triangle.bmp,Stranger,FarBlock,668,1,z,z,m,z,female,circle.bmp,Stranger
02-19-2017,6407,26,right,Hebrew,UFS,MMProc,circle.bmp,Self,square.bmp,Friend,triangle.bmp,Stranger,CloseBlock,730,1,m,m,m,z,female,circle.bmp,Self
02-19-2017,6407,26,right,Hebrew,UFS,MMProc,circle.bmp,Self,square.bmp,Friend,triangle.bmp,Stranger,MediumBlock,854,1,z,z,m,z,female,circle.bmp,Friend
02-19-2017,6407,26,right,Hebrew,UFS,MMProc,circle.bmp,Self,square.bmp,Friend,triangle.bmp,Stranger,MediumBlock,669,1,m,m,m,z,female,square.bmp,Friend
02-19-2017,6407,26,right,Hebrew,UFS,MMProc,circle.bmp,Self,square.bmp,Friend,triangle.bmp,Stranger,MediumBlock,491,1,m,m,m,z,female,square.bmp,Friend
02-19-2017,6407,26,right,Hebrew,UFS,MMProc,circle.bmp,Self,square.bmp,Friend,triangle.bmp,Stranger,FarBlock,831,1,m,m,m,z,female,triangle.bmp,Stranger
02-19-2017,6407,26,right,Hebrew,UFS,MMProc,circle.bmp,Self,square.bmp,Friend,triangle.bmp,Stranger,CloseBlock,839,1,z,z,m,z,female,square.bmp,Self
02-19-2017,6407,26,right,Hebrew,UFS,MMProc,circle.bmp,Self,square.bmp,Friend,triangle.bmp,Stranger,CloseBlock,783,1,m,m,m,z,female,circle.bmp,Self
02-19-2017,6407,26,right,Hebrew,UFS,MMProc,circle.bmp,Self,square.bmp,Friend,triangle.bmp,Stranger,CloseBlock,760,1,z,z,m,z,female,square.bmp,Self
02-19-2017,6407,26,right,Hebrew,UFS,MMProc,circle.bmp,Self,square.bmp,Friend,triangle.bmp,Stranger,FarBlock,771,1,m,m,m,z,female,triangle.bmp,Stranger
02-19-2017,6407,26,right,Hebrew,UFS,MMProc,circle.bmp,Self,square.bmp,Friend,triangle.bmp,Stranger,CloseBlock,669,1,m,m,m,z,female,circle.bmp,Self
02-19-2017,6407,26,right,Hebrew,UFS,MMProc,circle.bmp,Self,square.bmp,Friend,triangle.bmp,Stranger,CloseBlock,651,1,z,z,m,z,female,square.bmp,Self
02-19-2017,6407,26,right,Hebrew,UFS,MMProc,circle.bmp,Self,square.bmp,Friend,triangle.bmp,Stranger,FarBlock,827,1,z,z,m,z,female,circle.bmp,Stranger
02-19-2017,6407,26,right,Hebrew,UFS,MMProc,circle.bmp,Self,square.bmp,Friend,triangle.bmp,Stranger,CloseBlock,674,1,m,m,m,z,female,circle.bmp,Self
02-19-2017,6407,26,right,Hebrew,UFS,MMProc,circle.bmp,Self,square.bmp,Friend,triangle.bmp,Stranger,CloseBlock,737,1,m,m,m,z,female,circle.bmp,Self
02-19-2017,6407,26,right,Hebrew,UFS,MMProc,circle.bmp,Self,square.bmp,Friend,triangle.bmp,Stranger,CloseBlock,732,1,z,z,m,z,female,triangle.bmp,Self
02-19-2017,6407,26,right,Hebrew,UFS,MMProc,circle.bmp,Self,square.bmp,Friend,triangle.bmp,Stranger,MediumBlock,648,1,m,m,m,z,female,square.bmp,Friend
02-19-2017,6407,26,right,Hebrew,UFS,MMProc,circle.bmp,Self,square.bmp,Friend,triangle.bmp,Stranger,MediumBlock,775,1,z,z,m,z,female,triangle.bmp,Friend
02-19-2017,6407,26,right,Hebrew,UFS,MMProc,circle.bmp,Self,square.bmp,Friend,triangle.bmp,Stranger,MediumBlock,801,1,m,m,m,z,female,square.bmp,Friend
02-19-2017,6407,26,right,Hebrew,UFS,MMProc,circle.bmp,Self,square.bmp,Friend,triangle.bmp,Stranger,MediumBlock,842,1,z,z,m,z,female,circle.bmp,Friend
02-19-2017,6407,26,right,Hebrew,UFS,MMProc,circle.bmp,Self,square.bmp,Friend,triangle.bmp,Stranger,MediumBlock,513,1,m,m,m,z,female,square.bmp,Friend
02-19-2017,6407,26,right,Hebrew,UFS,MMProc,circle.bmp,Self,square.bmp,Friend,triangle.bmp,Stranger,MediumBlock,597,1,m,m,m,z,female,square.bmp,Friend
02-19-2017,6407,26,right,Hebrew,UFS,MMProc,circle.bmp,Self,square.bmp,Friend,triangle.bmp,Stranger,MediumBlock,711,1,z,z,m,z,female,circle.bmp,Friend
02-19-2017,6407,26,right,Hebrew,UFS,MMProc,circle.bmp,Self,square.bmp,Friend,triangle.bmp,Stranger,FarBlock,867,1,z,z,m,z,female,circle.bmp,Stranger
02-19-2017,6407,26,right,Hebrew,UFS,MMProc,circle.bmp,Self,square.bmp,Friend,triangle.bmp,Stranger,MediumBlock,1129,1,z,z,m,z,female,triangle.bmp,Friend
02-19-2017,6407,26,right,Hebrew,UFS,MMProc,circle.bmp,Self,square.bmp,Friend,triangle.bmp,Stranger,CloseBlock,532,1,m,m,m,z,female,circle.bmp,Self
02-19-2017,6407,26,right,Hebrew,UFS,MMProc,circle.bmp,Self,square.bmp,Friend,triangle.bmp,Stranger,CloseBlock,1128,1,m,m,m,z,female,circle.bmp,Self
02-19-2017,6407,26,right,Hebrew,UFS,MMProc,circle.bmp,Self,square.bmp,Friend,triangle.bmp,Stranger,FarBlock,739,1,z,z,m,z,female,circle.bmp,Stranger
02-19-2017,6407,26,right,Hebrew,UFS,MMProc,circle.bmp,Self,square.bmp,Friend,triangle.bmp,Stranger,FarBlock,686,1,m,m,m,z,female,triangle.bmp,Stranger
02-19-2017,6407,26,right,Hebrew,UFS,MMProc,circle.bmp,Self,square.bmp,Friend,triangle.bmp,Stranger,CloseBlock,700,1,z,z,m,z,female,triangle.bmp,Self
02-19-2017,6407,26,right,Hebrew,UFS,MMProc,circle.bmp,Self,square.bmp,Friend,triangle.bmp,Stranger,CloseBlock,1129,1,z,z,m,z,female,triangle.bmp,Self
02-19-2017,6407,26,right,Hebrew,UFS,MMProc,circle.bmp,Self,square.bmp,Friend,triangle.bmp,Stranger,MediumBlock,917,1,z,z,m,z,female,circle.bmp,Friend
02-19-2017,6407,26,right,Hebrew,UFS,MMProc,circle.bmp,Self,square.bmp,Friend,triangle.bmp,Stranger,CloseBlock,1481,1,m,m,m,z,female,circle.bmp,Self
02-19-2017,6407,26,right,Hebrew,UFS,MMProc,circle.bmp,Self,square.bmp,Friend,triangle.bmp,Stranger,FarBlock,646,1,m,m,m,z,female,triangle.bmp,Stranger
02-19-2017,6407,26,right,Hebrew,UFS,MMProc,circle.bmp,Self,square.bmp,Friend,triangle.bmp,Stranger,CloseBlock,901,1,z,z,m,z,female,square.bmp,Self
02-19-2017,6407,26,right,Hebrew,UFS,MMProc,circle.bmp,Self,square.bmp,Friend,triangle.bmp,Stranger,CloseBlock,810,1,m,m,m,z,female,circle.bmp,Self
02-19-2017,6407,26,right,Hebrew,UFS,MMProc,circle.bmp,Self,square.bmp,Friend,triangle.bmp,Stranger,FarBlock,1074,1,z,z,m,z,female,square.bmp,Stranger
02-19-2017,6407,26,right,Hebrew,UFS,MMProc,circle.bmp,Self,square.bmp,Friend,triangle.bmp,Stranger,CloseBlock,703,1,m,m,m,z,female,circle.bmp,Self
02-19-2017,6407,26,right,Hebrew,UFS,MMProc,circle.bmp,Self,square.bmp,Friend,triangle.bmp,Stranger,MediumBlock,812,1,z,z,m,z,female,triangle.bmp,Friend
02-19-2017,6407,26,right,Hebrew,UFS,MMProc,circle.bmp,Self,square.bmp,Friend,triangle.bmp,Stranger,MediumBlock,565,1,m,m,m,z,female,square.bmp,Friend
02-19-2017,6407,26,right,Hebrew,UFS,MMProc,circle.bmp,Self,square.bmp,Friend,triangle.bmp,Stranger,FarBlock,503,1,m,m,m,z,female,triangle.bmp,Stranger
02-19-2017,6407,26,right,Hebrew,UFS,MMProc,circle.bmp,Self,square.bmp,Friend,triangle.bmp,Stranger,MediumBlock,541,1,m,m,m,z,female,square.bmp,Friend
02-19-2017,6407,26,right,Hebrew,UFS,MMProc,circle.bmp,Self,square.bmp,Friend,triangle.bmp,Stranger,CloseBlock,704,0,z,m,m,z,female,square.bmp,Self
02-19-2017,6407,26,right,Hebrew,UFS,MMProc,circle.bmp,Self,square.bmp,Friend,triangle.bmp,Stranger,FarBlock,996,1,z,z,m,z,female,square.bmp,Stranger
02-19-2017,6407,26,right,Hebrew,UFS,MMProc,circle.bmp,Self,square.bmp,Friend,triangle.bmp,Stranger,MediumBlock,980,1,z,z,m,z,female,triangle.bmp,Friend
02-19-2017,6407,26,right,Hebrew,UFS,MMProc,circle.bmp,Self,square.bmp,Friend,triangle.bmp,Stranger,CloseBlock,950,1,z,z,m,z,female,square.bmp,Self
02-19-2017,6407,26,right,Hebrew,UFS,MMProc,circle.bmp,Self,square.bmp,Friend,triangle.bmp,Stranger,CloseBlock,585,1,z,z,m,z,female,square.bmp,Self
02-19-2017,6407,26,right,Hebrew,UFS,MMProc,circle.bmp,Self,square.bmp,Friend,triangle.bmp,Stranger,MediumBlock,683,1,m,m,m,z,female,square.bmp,Friend
02-19-2017,6407,26,right,Hebrew,UFS,MMProc,circle.bmp,Self,square.bmp,Friend,triangle.bmp,Stranger,MediumBlock,456,1,m,m,m,z,female,square.bmp,Friend
02-19-2017,6407,26,right,Hebrew,UFS,MMProc,circle.bmp,Self,square.bmp,Friend,triangle.bmp,Stranger,FarBlock,558,1,m,m,m,z,female,triangle.bmp,Stranger
02-19-2017,6407,26,right,Hebrew,UFS,MMProc,circle.bmp,Self,square.bmp,Friend,triangle.bmp,Stranger,FarBlock,640,1,m,m,m,z,female,triangle.bmp,Stranger
02-19-2017,6407,26,right,Hebrew,UFS,MMProc,circle.bmp,Self,square.bmp,Friend,triangle.bmp,Stranger,FarBlock,544,1,m,m,m,z,female,triangle.bmp,Stranger
02-19-2017,6407,26,right,Hebrew,UFS,MMProc,circle.bmp,Self,square.bmp,Friend,triangle.bmp,Stranger,CloseBlock,915,1,z,z,m,z,female,square.bmp,Self
02-19-2017,6407,26,right,Hebrew,UFS,MMProc,circle.bmp,Self,square.bmp,Friend,triangle.bmp,Stranger,FarBlock,535,0,z,m,m,z,female,circle.bmp,Stranger
02-19-2017,6407,26,right,Hebrew,UFS,MMProc,circle.bmp,Self,square.bmp,Friend,triangle.bmp,Stranger,CloseBlock,930,1,z,z,m,z,female,square.bmp,Self
02-19-2017,6407,26,right,Hebrew,UFS,MMProc,circle.bmp,Self,square.bmp,Friend,triangle.bmp,Stranger,CloseBlock,678,1,m,m,m,z,female,circle.bmp,Self
02-19-2017,6407,26,right,Hebrew,UFS,MMProc,circle.bmp,Self,square.bmp,Friend,triangle.bmp,Stranger,CloseBlock,772,1,z,z,m,z,female,square.bmp,Self
02-19-2017,6407,26,right,Hebrew,UFS,MMProc,circle.bmp,Self,square.bmp,Friend,triangle.bmp,Stranger,MediumBlock,718,1,z,z,m,z,female,circle.bmp,Friend
02-19-2017,6407,26,right,Hebrew,UFS,MMProc,circle.bmp,Self,square.bmp,Friend,triangle.bmp,Stranger,FarBlock,698,1,m,m,m,z,female,triangle.bmp,Stranger
02-19-2017,6407,26,right,Hebrew,UFS,MMProc,circle.bmp,Self,square.bmp,Friend,triangle.bmp,Stranger,CloseBlock,615,1,m,m,m,z,female,circle.bmp,Self
02-19-2017,6407,26,right,Hebrew,UFS,MMProc,circle.bmp,Self,square.bmp,Friend,triangle.bmp,Stranger,MediumBlock,632,1,z,z,m,z,female,triangle.bmp,Friend
02-19-2017,6407,26,right,Hebrew,UFS,MMProc,circle.bmp,Self,square.bmp,Friend,triangle.bmp,Stranger,MediumBlock,536,1,m,m,m,z,female,square.bmp,Friend
02-19-2017,6407,26,right,Hebrew,UFS,MMProc,circle.bmp,Self,square.bmp,Friend,triangle.bmp,Stranger,MediumBlock,700,1,z,z,m,z,female,circle.bmp,Friend
02-19-2017,6407,26,right,Hebrew,UFS,MMProc,circle.bmp,Self,square.bmp,Friend,triangle.bmp,Stranger,FarBlock,825,1,z,z,m,z,female,square.bmp,Stranger
02-19-2017,6407,26,right,Hebrew,UFS,MMProc,circle.bmp,Self,square.bmp,Friend,triangle.bmp,Stranger,CloseBlock,832,1,z,z,m,z,female,triangle.bmp,Self
02-19-2017,6407,26,right,Hebrew,UFS,MMProc,circle.bmp,Self,square.bmp,Friend,triangle.bmp,Stranger,FarBlock,440,1,z,z,m,z,female,square.bmp,Stranger
02-19-2017,6407,26,right,Hebrew,UFS,MMProc,circle.bmp,Self,square.bmp,Friend,triangle.bmp,Stranger,FarBlock,624,1,z,z,m,z,female,square.bmp,Stranger
02-19-2017,6407,26,right,Hebrew,UFS,MMProc,circle.bmp,Self,square.bmp,Friend,triangle.bmp,Stranger,CloseBlock,560,1,m,m,m,z,female,circle.bmp,Self
02-19-2017,6407,26,right,Hebrew,UFS,MMProc,circle.bmp,Self,square.bmp,Friend,triangle.bmp,Stranger,CloseBlock,626,1,z,z,m,z,female,triangle.bmp,Self
02-19-2017,6407,26,right,Hebrew,UFS,MMProc,circle.bmp,Self,square.bmp,Friend,triangle.bmp,Stranger,FarBlock,786,1,z,z,m,z,female,square.bmp,Stranger
02-19-2017,6407,26,right,Hebrew,UFS,MMProc,circle.bmp,Self,square.bmp,Friend,triangle.bmp,Stranger,MediumBlock,860,1,z,z,m,z,female,circle.bmp,Friend
02-19-2017,6407,26,right,Hebrew,UFS,MMProc,circle.bmp,Self,square.bmp,Friend,triangle.bmp,Stranger,FarBlock,962,0,z,m,m,z,female,circle.bmp,Stranger
02-19-2017,6407,26,right,Hebrew,UFS,MMProc,circle.bmp,Self,square.bmp,Friend,triangle.bmp,Stranger,FarBlock,538,1,m,m,m,z,female,triangle.bmp,Stranger
02-19-2017,6407,26,right,Hebrew,UFS,MMProc,circle.bmp,Self,square.bmp,Friend,triangle.bmp,Stranger,FarBlock,606,1,m,m,m,z,female,triangle.bmp,Stranger
02-19-2017,6407,26,right,Hebrew,UFS,MMProc,circle.bmp,Self,square.bmp,Friend,triangle.bmp,Stranger,MediumBlock,687,1,z,z,m,z,female,triangle.bmp,Friend
02-19-2017,6407,26,right,Hebrew,UFS,MMProc,circle.bmp,Self,square.bmp,Friend,triangle.bmp,Stranger,FarBlock,1053,1,z,z,m,z,female,square.bmp,Stranger
02-19-2017,6407,26,right,Hebrew,UFS,MMProc,circle.bmp,Self,square.bmp,Friend,triangle.bmp,Stranger,CloseBlock,475,0,z,m,m,z,female,triangle.bmp,Self
02-19-2017,6407,26,right,Hebrew,UFS,MMProc,circle.bmp,Self,square.bmp,Friend,triangle.bmp,Stranger,CloseBlock,489,1,m,m,m,z,female,circle.bmp,Self
02-19-2017,6407,26,right,Hebrew,UFS,MMProc,circle.bmp,Self,square.bmp,Friend,triangle.bmp,Stranger,FarBlock,671,1,z,z,m,z,female,circle.bmp,Stranger
02-19-2017,6407,26,right,Hebrew,UFS,MMProc,circle.bmp,Self,square.bmp,Friend,triangle.bmp,Stranger,MediumBlock,1117,1,z,z,m,z,female,circle.bmp,Friend
02-19-2017,6407,26,right,Hebrew,UFS,MMProc,circle.bmp,Self,square.bmp,Friend,triangle.bmp,Stranger,CloseBlock,617,1,z,z,m,z,female,triangle.bmp,Self
02-19-2017,6407,26,right,Hebrew,UFS,MMProc,circle.bmp,Self,square.bmp,Friend,triangle.bmp,Stranger,MediumBlock,538,1,m,m,m,z,female,square.bmp,Friend
02-19-2017,6407,26,right,Hebrew,UFS,MMProc,circle.bmp,Self,square.bmp,Friend,triangle.bmp,Stranger,MediumBlock,574,1,m,m,m,z,female,square.bmp,Friend
02-19-2017,6407,26,right,Hebrew,UFS,MMProc,circle.bmp,Self,square.bmp,Friend,triangle.bmp,Stranger,FarBlock,879,0,m,z,m,z,female,triangle.bmp,Stranger
02-19-2017,6407,26,right,Hebrew,UFS,MMProc,circle.bmp,Self,square.bmp,Friend,triangle.bmp,Stranger,CloseBlock,621,1,m,m,m,z,female,circle.bmp,Self
02-19-2017,6407,26,right,Hebrew,UFS,MMProc,circle.bmp,Self,square.bmp,Friend,triangle.bmp,Stranger,FarBlock,702,1,z,z,m,z,female,circle.bmp,Stranger
02-19-2017,6407,26,right,Hebrew,UFS,MMProc,circle.bmp,Self,square.bmp,Friend,triangle.bmp,Stranger,CloseBlock,747,1,z,z,m,z,female,triangle.bmp,Self
02-19-2017,6407,26,right,Hebrew,UFS,MMProc,circle.bmp,Self,square.bmp,Friend,triangle.bmp,Stranger,MediumBlock,806,1,z,z,m,z,female,triangle.bmp,Friend
02-19-2017,6407,26,right,Hebrew,UFS,MMProc,circle.bmp,Self,square.bmp,Friend,triangle.bmp,Stranger,MediumBlock,1775,1,z,z,m,z,female,circle.bmp,Friend
02-19-2017,6407,26,right,Hebrew,UFS,MMProc,circle.bmp,Self,square.bmp,Friend,triangle.bmp,Stranger,FarBlock,623,1,m,m,m,z,female,triangle.bmp,Stranger
02-19-2017,6407,26,right,Hebrew,UFS,MMProc,circle.bmp,Self,square.bmp,Friend,triangle.bmp,Stranger,FarBlock,640,0,z,m,m,z,female,square.bmp,Stranger
02-19-2017,6407,26,right,Hebrew,UFS,MMProc,circle.bmp,Self,square.bmp,Friend,triangle.bmp,Stranger,FarBlock,679,1,m,m,m,z,female,triangle.bmp,Stranger
02-19-2017,6407,26,right,Hebrew,UFS,MMProc,circle.bmp,Self,square.bmp,Friend,triangle.bmp,Stranger,MediumBlock,629,1,z,z,m,z,female,triangle.bmp,Friend
02-19-2017,6407,26,right,Hebrew,UFS,MMProc,circle.bmp,Self,square.bmp,Friend,triangle.bmp,Stranger,MediumBlock,565,1,m,m,m,z,female,square.bmp,Friend
02-19-2017,6407,26,right,Hebrew,UFS,MMProc,circle.bmp,Self,square.bmp,Friend,triangle.bmp,Stranger,FarBlock,918,1,z,z,m,z,female,circle.bmp,Stranger
02-19-2017,6407,26,right,Hebrew,UFS,MMProc,circle.bmp,Self,square.bmp,Friend,triangle.bmp,Stranger,FarBlock,826,1,z,z,m,z,female,circle.bmp,Stranger
02-19-2017,6407,26,right,Hebrew,UFS,MMProc,circle.bmp,Self,square.bmp,Friend,triangle.bmp,Stranger,FarBlock,722,1,m,m,m,z,female,triangle.bmp,Stranger
02-19-2017,6407,26,right,Hebrew,UFS,FBbreak1,circle.bmp,Self,square.bmp,Friend,triangle.bmp,Stranger,,,,,,m,z,female,,
02-19-2017,6407,26,right,Hebrew,UFS,MMProc,circle.bmp,Self,square.bmp,Friend,triangle.bmp,Stranger,CloseBlock,1468,1,m,m,m,z,female,circle.bmp,Self
02-19-2017,6407,26,right,Hebrew,UFS,MMProc,circle.bmp,Self,square.bmp,Friend,triangle.bmp,Stranger,MediumBlock,730,1,z,z,m,z,female,circle.bmp,Friend
02-19-2017,6407,26,right,Hebrew,UFS,MMProc,circle.bmp,Self,square.bmp,Friend,triangle.bmp,Stranger,FarBlock,741,1,m,m,m,z,female,triangle.bmp,Stranger
02-19-2017,6407,26,right,Hebrew,UFS,MMProc,circle.bmp,Self,square.bmp,Friend,triangle.bmp,Stranger,FarBlock,560,1,m,m,m,z,female,triangle.bmp,Stranger
02-19-2017,6407,26,right,Hebrew,UFS,MMProc,circle.bmp,Self,square.bmp,Friend,triangle.bmp,Stranger,FarBlock,435,1,m,m,m,z,female,triangle.bmp,Stranger
02-19-2017,6407,26,right,Hebrew,UFS,MMProc,circle.bmp,Self,square.bmp,Friend,triangle.bmp,Stranger,FarBlock,459,1,m,m,m,z,female,triangle.bmp,Stranger
02-19-2017,6407,26,right,Hebrew,UFS,MMProc,circle.bmp,Self,square.bmp,Friend,triangle.bmp,Stranger,FarBlock,498,0,z,m,m,z,female,circle.bmp,Stranger
02-19-2017,6407,26,right,Hebrew,UFS,MMProc,circle.bmp,Self,square.bmp,Friend,triangle.bmp,Stranger,FarBlock,654,1,z,z,m,z,female,circle.bmp,Stranger
02-19-2017,6407,26,right,Hebrew,UFS,MMProc,circle.bmp,Self,square.bmp,Friend,triangle.bmp,Stranger,FarBlock,413,1,z,z,m,z,female,circle.bmp,Stranger
02-19-2017,6407,26,right,Hebrew,UFS,MMProc,circle.bmp,Self,square.bmp,Friend,triangle.bmp,Stranger,FarBlock,534,1,m,m,m,z,female,triangle.bmp,Stranger
02-19-2017,6407,26,right,Hebrew,UFS,MMProc,circle.bmp,Self,square.bmp,Friend,triangle.bmp,Stranger,MediumBlock,682,1,z,z,m,z,female,triangle.bmp,Friend
02-19-2017,6407,26,right,Hebrew,UFS,MMProc,circle.bmp,Self,square.bmp,Friend,triangle.bmp,Stranger,MediumBlock,488,1,m,m,m,z,female,square.bmp,Friend
02-19-2017,6407,26,right,Hebrew,UFS,MMProc,circle.bmp,Self,square.bmp,Friend,triangle.bmp,Stranger,MediumBlock,366,1,m,m,m,z,female,square.bmp,Friend
02-19-2017,6407,26,right,Hebrew,UFS,MMProc,circle.bmp,Self,square.bmp,Friend,triangle.bmp,Stranger,MediumBlock,568,1,z,z,m,z,female,circle.bmp,Friend
02-19-2017,6407,26,right,Hebrew,UFS,MMProc,circle.bmp,Self,square.bmp,Friend,triangle.bmp,Stranger,CloseBlock,587,0,z,m,m,z,female,square.bmp,Self
02-19-2017,6407,26,right,Hebrew,UFS,MMProc,circle.bmp,Self,square.bmp,Friend,triangle.bmp,Stranger,FarBlock,788,0,z,m,m,z,female,square.bmp,Stranger
02-19-2017,6407,26,right,Hebrew,UFS,MMProc,circle.bmp,Self,square.bmp,Friend,triangle.bmp,Stranger,FarBlock,693,1,z,z,m,z,female,circle.bmp,Stranger
02-19-2017,6407,26,right,Hebrew,UFS,MMProc,circle.bmp,Self,square.bmp,Friend,triangle.bmp,Stranger,CloseBlock,1746,1,z,z,m,z,female,square.bmp,Self
02-19-2017,6407,26,right,Hebrew,UFS,MMProc,circle.bmp,Self,square.bmp,Friend,triangle.bmp,Stranger,MediumBlock,707,1,z,z,m,z,female,circle.bmp,Friend
02-19-2017,6407,26,right,Hebrew,UFS,MMProc,circle.bmp,Self,square.bmp,Friend,triangle.bmp,Stranger,FarBlock,656,1,m,m,m,z,female,triangle.bmp,Stranger
02-19-2017,6407,26,right,Hebrew,UFS,MMProc,circle.bmp,Self,square.bmp,Friend,triangle.bmp,Stranger,FarBlock,431,1,m,m,m,z,female,triangle.bmp,Stranger
02-19-2017,6407,26,right,Hebrew,UFS,MMProc,circle.bmp,Self,square.bmp,Friend,triangle.bmp,Stranger,MediumBlock,647,1,m,m,m,z,female,square.bmp,Friend
02-19-2017,6407,26,right,Hebrew,UFS,MMProc,circle.bmp,Self,square.bmp,Friend,triangle.bmp,Stranger,CloseBlock,694,1,z,z,m,z,female,triangle.bmp,Self
02-19-2017,6407,26,right,Hebrew,UFS,MMProc,circle.bmp,Self,square.bmp,Friend,triangle.bmp,Stranger,CloseBlock,388,1,m,m,m,z,female,circle.bmp,Self
02-19-2017,6407,26,right,Hebrew,UFS,MMProc,circle.bmp,Self,square.bmp,Friend,triangle.bmp,Stranger,CloseBlock,430,0,z,m,m,z,female,triangle.bmp,Self
02-19-2017,6407,26,right,Hebrew,UFS,MMProc,circle.bmp,Self,square.bmp,Friend,triangle.bmp,Stranger,FarBlock,621,0,z,m,m,z,female,square.bmp,Stranger
02-19-2017,6407,26,right,Hebrew,UFS,MMProc,circle.bmp,Self,square.bmp,Friend,triangle.bmp,Stranger,FarBlock,693,1,z,z,m,z,female,circle.bmp,Stranger
02-19-2017,6407,26,right,Hebrew,UFS,MMProc,circle.bmp,Self,square.bmp,Friend,triangle.bmp,Stranger,FarBlock,626,1,m,m,m,z,female,triangle.bmp,Stranger
02-19-2017,6407,26,right,Hebrew,UFS,MMProc,circle.bmp,Self,square.bmp,Friend,triangle.bmp,Stranger,MediumBlock,786,1,z,z,m,z,female,circle.bmp,Friend
02-19-2017,6407,26,right,Hebrew,UFS,MMProc,circle.bmp,Self,square.bmp,Friend,triangle.bmp,Stranger,CloseBlock,620,1,z,z,m,z,female,triangle.bmp,Self
02-19-2017,6407,26,right,Hebrew,UFS,MMProc,circle.bmp,Self,square.bmp,Friend,triangle.bmp,Stranger,CloseBlock,380,1,m,m,m,z,female,circle.bmp,Self
02-19-2017,6407,26,right,Hebrew,UFS,MMProc,circle.bmp,Self,square.bmp,Friend,triangle.bmp,Stranger,CloseBlock,518,1,m,m,m,z,female,circle.bmp,Self
02-19-2017,6407,26,right,Hebrew,UFS,MMProc,circle.bmp,Self,square.bmp,Friend,triangle.bmp,Stranger,FarBlock,731,1,z,z,m,z,female,square.bmp,Stranger
02-19-2017,6407,26,right,Hebrew,UFS,MMProc,circle.bmp,Self,square.bmp,Friend,triangle.bmp,Stranger,FarBlock,422,1,z,z,m,z,female,circle.bmp,Stranger
02-19-2017,6407,26,right,Hebrew,UFS,MMProc,circle.bmp,Self,square.bmp,Friend,triangle.bmp,Stranger,MediumBlock,543,1,m,m,m,z,female,square.bmp,Friend
