"","Subject","Block","Trial","Gender","Age","Handedness","First_Lanugage","Shape","Matching","Origin_Identity","English_Identity","Standarlized_Identity","Response","ShapeLoc","FaceIdentity","Stimulus","Strength","textColour","Stimuli_Type","RT_ms","RT_sec","ACC"
"1",1,1,1,"Male",24,"Right","Ukrainian","Self","Matching","Self","Self","Self","l","Bottom",2,"SelfWeak","Weak","white","Self = Positive",767,0.767,1
"2",1,1,2,"Male",24,"Right","Ukrainian","Stranger","Nonmatching","Self","Self","Self","k","Top",2,"StrangerWeak","Weak","white","Self = Positive",1217,1.217,1
"3",1,1,3,"Male",24,"Right","Ukrainian","Self","Matching","Self","Self","Self","l","Top",2,"SelfWeak","Weak","white","Self = Positive",1117,1.117,1
"4",1,1,4,"Male",24,"Right","Ukrainian","Stranger","Nonmatching","Self","Self","Self","k","Top",1,"StrangerStrong","Strong","white","Self = Positive",1050,1.05,1
"5",1,1,5,"Male",24,"Right","Ukrainian","Stranger","Nonmatching","Self","Self","Self","k","Bottom",1,"StrangerStrong","Strong","white","Self = Positive",1367,1.367,1
"6",1,1,6,"Male",24,"Right","Ukrainian","Self","Nonmatching","Stranger","Stranger","Stranger","k","Top",2,"SelfWeak","Weak","white","Self = Positive",1267,1.267,1
"7",1,1,7,"Male",24,"Right","Ukrainian","Self","Nonmatching","Stranger","Stranger","Stranger","l","Bottom",2,"SelfWeak","Weak","white","Self = Positive",1100,1.1,0
"8",1,1,8,"Male",24,"Right","Ukrainian","Self","Matching","Self","Self","Self","l","Top",2,"SelfWeak","Weak","white","Self = Positive",1050,1.05,1
"9",1,1,9,"Male",24,"Right","Ukrainian","Stranger","Nonmatching","Self","Self","Self","k","Bottom",1,"StrangerStrong","Strong","white","Self = Positive",1184,1.184,1
"10",1,1,10,"Male",24,"Right","Ukrainian","Self","Matching","Self","Self","Self","l","Top",2,"SelfWeak","Weak","white","Self = Positive",1167,1.167,1
"11",1,1,11,"Male",24,"Right","Ukrainian","Self","Nonmatching","Stranger","Stranger","Stranger","k","Top",2,"SelfWeak","Weak","white","Self = Positive",1684,1.684,1
"12",1,1,12,"Male",24,"Right","Ukrainian","Self","Nonmatching","Stranger","Stranger","Stranger","k","Bottom",1,"SelfStrong","Strong","white","Self = Positive",1200,1.2,1
"13",1,1,13,"Male",24,"Right","Ukrainian","Self","Nonmatching","Stranger","Stranger","Stranger","k","Bottom",2,"SelfWeak","Weak","white","Self = Positive",1384,1.384,1
"14",1,1,14,"Male",24,"Right","Ukrainian","Stranger","Matching","Stranger","Stranger","Stranger","l","Bottom",1,"StrangerStrong","Strong","white","Self = Positive",1200,1.2,1
"15",1,1,15,"Male",24,"Right","Ukrainian","Self","Nonmatching","Stranger","Stranger","Stranger","k","Top",1,"SelfStrong","Strong","white","Self = Positive",1285,1.285,1
"16",1,1,16,"Male",24,"Right","Ukrainian","Stranger","Matching","Stranger","Stranger","Stranger","l","Top",1,"StrangerStrong","Strong","white","Self = Positive",1483,1.483,1
"17",1,1,17,"Male",24,"Right","Ukrainian","Self","Matching","Self","Self","Self","l","Bottom",1,"SelfStrong","Strong","white","Self = Positive",767,0.767,1
"18",1,1,18,"Male",24,"Right","Ukrainian","Self","Matching","Self","Self","Self","l","Top",1,"SelfStrong","Strong","white","Self = Positive",784,0.784,1
"19",1,1,19,"Male",24,"Right","Ukrainian","Self","Nonmatching","Stranger","Stranger","Stranger","k","Bottom",1,"SelfStrong","Strong","white","Self = Positive",1167,1.167,1
"20",1,1,20,"Male",24,"Right","Ukrainian","Self","Matching","Self","Self","Self","l","Top",1,"SelfStrong","Strong","white","Self = Positive",1267,1.267,1
"21",1,1,21,"Male",24,"Right","Ukrainian","Stranger","Matching","Stranger","Stranger","Stranger","k","Bottom",1,"StrangerStrong","Strong","white","Self = Positive",1350,1.35,0
"22",1,1,22,"Male",24,"Right","Ukrainian","Stranger","Nonmatching","Self","Self","Self","k","Bottom",1,"StrangerStrong","Strong","white","Self = Positive",1117,1.117,1
"23",1,1,23,"Male",24,"Right","Ukrainian","Self","Nonmatching","Stranger","Stranger","Stranger","k","Bottom",1,"SelfStrong","Strong","white","Self = Positive",1250,1.25,1
"24",1,1,24,"Male",24,"Right","Ukrainian","Stranger","Nonmatching","Self","Self","Self","k","Top",1,"StrangerStrong","Strong","white","Self = Positive",850,0.85,1
"25",1,1,25,"Male",24,"Right","Ukrainian","Stranger","Nonmatching","Self","Self","Self","k","Top",1,"StrangerStrong","Strong","white","Self = Positive",1017,1.017,1
"26",1,1,26,"Male",24,"Right","Ukrainian","Self","Nonmatching","Stranger","Stranger","Stranger","k","Top",1,"SelfStrong","Strong","white","Self = Positive",884,0.884,1
"27",1,1,27,"Male",24,"Right","Ukrainian","Stranger","Nonmatching","Self","Self","Self","k","Top",1,"StrangerStrong","Strong","white","Self = Positive",1384,1.384,1
"28",1,1,28,"Male",24,"Right","Ukrainian","Stranger","Matching","Stranger","Stranger","Stranger","l","Bottom",2,"StrangerWeak","Weak","white","Self = Positive",1517,1.517,1
"29",1,1,29,"Male",24,"Right","Ukrainian","Stranger","Matching","Stranger","Stranger","Stranger","l","Top",1,"StrangerStrong","Strong","white","Self = Positive",1350,1.35,1
"30",1,1,30,"Male",24,"Right","Ukrainian","Self","Nonmatching","Stranger","Stranger","Stranger","k","Bottom",1,"SelfStrong","Strong","white","Self = Positive",1134,1.134,1
"31",1,1,31,"Male",24,"Right","Ukrainian","Self","Matching","Self","Self","Self","l","Top",1,"SelfStrong","Strong","white","Self = Positive",900,0.9,1
"32",1,1,32,"Male",24,"Right","Ukrainian","Self","Nonmatching","Stranger","Stranger","Stranger","k","Bottom",2,"SelfWeak","Weak","white","Self = Positive",1284,1.284,1
"33",1,1,33,"Male",24,"Right","Ukrainian","Self","Matching","Self","Self","Self","l","Top",2,"SelfWeak","Weak","white","Self = Positive",1167,1.167,1
"34",1,1,34,"Male",24,"Right","Ukrainian","Self","Nonmatching","Stranger","Stranger","Stranger","k","Top",1,"SelfStrong","Strong","white","Self = Positive",1150,1.15,1
"35",1,1,35,"Male",24,"Right","Ukrainian","Self","Nonmatching","Stranger","Stranger","Stranger","k","Top",2,"SelfWeak","Weak","white","Self = Positive",1384,1.384,1
"36",1,1,36,"Male",24,"Right","Ukrainian","Self","Matching","Self","Self","Self","l","Top",2,"SelfWeak","Weak","white","Self = Positive",1067,1.067,1
"37",1,1,37,"Male",24,"Right","Ukrainian","Stranger","Nonmatching","Self","Self","Self","k","Top",2,"StrangerWeak","Weak","white","Self = Positive",1100,1.1,1
"38",1,1,38,"Male",24,"Right","Ukrainian","Stranger","Nonmatching","Self","Self","Self","k","Bottom",1,"StrangerStrong","Strong","white","Self = Positive",1535,1.535,1
"39",1,1,39,"Male",24,"Right","Ukrainian","Stranger","Nonmatching","Self","Self","Self","k","Top",2,"StrangerWeak","Weak","white","Self = Positive",917,0.917,1
"40",1,1,40,"Male",24,"Right","Ukrainian","Self","Matching","Self","Self","Self","k","Top",2,"SelfWeak","Weak","white","Self = Positive",784,0.784,0
"41",1,1,41,"Male",24,"Right","Ukrainian","Stranger","Nonmatching","Self","Self","Self","k","Top",1,"StrangerStrong","Strong","white","Self = Positive",750,0.75,1
"42",1,1,42,"Male",24,"Right","Ukrainian","Stranger","Matching","Stranger","Stranger","Stranger","k","Top",2,"StrangerWeak","Weak","white","Self = Positive",1600,1.6,0
"43",1,1,43,"Male",24,"Right","Ukrainian","Self","Matching","Self","Self","Self","l","Top",1,"SelfStrong","Strong","white","Self = Positive",800,0.8,1
"44",1,1,44,"Male",24,"Right","Ukrainian","Self","Nonmatching","Stranger","Stranger","Stranger","k","Bottom",2,"SelfWeak","Weak","white","Self = Positive",1000,1,1
"45",1,1,45,"Male",24,"Right","Ukrainian","Self","Nonmatching","Stranger","Stranger","Stranger","k","Bottom",2,"SelfWeak","Weak","white","Self = Positive",1334,1.334,1
"46",1,1,46,"Male",24,"Right","Ukrainian","Self","Nonmatching","Stranger","Stranger","Stranger","k","Bottom",2,"SelfWeak","Weak","white","Self = Positive",1034,1.034,1
"47",1,1,47,"Male",24,"Right","Ukrainian","Stranger","Matching","Stranger","Stranger","Stranger","l","Bottom",1,"StrangerStrong","Strong","white","Self = Positive",1517,1.517,1
"48",1,1,48,"Male",24,"Right","Ukrainian","Stranger","Matching","Stranger","Stranger","Stranger","k","Top",1,"StrangerStrong","Strong","white","Self = Positive",1617,1.617,0
"49",1,1,49,"Male",24,"Right","Ukrainian","Stranger","Matching","Stranger","Stranger","Stranger","k","Bottom",1,"StrangerStrong","Strong","white","Self = Positive",1083,1.083,0
"50",1,1,50,"Male",24,"Right","Ukrainian","Stranger","Nonmatching","Self","Self","Self","k","Bottom",2,"StrangerWeak","Weak","white","Self = Positive",967,0.967,1
"51",1,1,51,"Male",24,"Right","Ukrainian","Self","Matching","Self","Self","Self","l","Bottom",2,"SelfWeak","Weak","white","Self = Positive",1034,1.034,1
"52",1,1,52,"Male",24,"Right","Ukrainian","Self","Matching","Self","Self","Self","l","Bottom",2,"SelfWeak","Weak","white","Self = Positive",817,0.817,1
"53",1,1,53,"Male",24,"Right","Ukrainian","Stranger","Matching","Stranger","Stranger","Stranger","l","Top",2,"StrangerWeak","Weak","white","Self = Positive",1250,1.25,1
"54",1,1,54,"Male",24,"Right","Ukrainian","Stranger","Matching","Stranger","Stranger","Stranger","l","Top",2,"StrangerWeak","Weak","white","Self = Positive",1350,1.35,1
"55",1,1,55,"Male",24,"Right","Ukrainian","Stranger","Matching","Stranger","Stranger","Stranger","l","Top",2,"StrangerWeak","Weak","white","Self = Positive",634,0.634,1
"56",1,1,56,"Male",24,"Right","Ukrainian","Self","Nonmatching","Stranger","Stranger","Stranger","l","Top",2,"SelfWeak","Weak","white","Self = Positive",550,0.55,0
"57",1,1,57,"Male",24,"Right","Ukrainian","Stranger","Nonmatching","Self","Self","Self","k","Bottom",1,"StrangerStrong","Strong","white","Self = Positive",1067,1.067,1
"58",1,1,58,"Male",24,"Right","Ukrainian","Stranger","Nonmatching","Self","Self","Self","k","Bottom",1,"StrangerStrong","Strong","white","Self = Positive",1134,1.134,1
"59",1,1,59,"Male",24,"Right","Ukrainian","Stranger","Matching","Stranger","Stranger","Stranger","l","Bottom",2,"StrangerWeak","Weak","white","Self = Positive",1483,1.483,1
"60",1,1,60,"Male",24,"Right","Ukrainian","Self","Matching","Self","Self","Self","l","Bottom",2,"SelfWeak","Weak","white","Self = Positive",900,0.9,1
"61",1,1,61,"Male",24,"Right","Ukrainian","Stranger","Matching","Stranger","Stranger","Stranger","k","Top",2,"StrangerWeak","Weak","white","Self = Positive",1200,1.2,0
"62",1,1,62,"Male",24,"Right","Ukrainian","Stranger","Nonmatching","Self","Self","Self","l","Top",2,"StrangerWeak","Weak","white","Self = Positive",850,0.85,0
"63",1,1,63,"Male",24,"Right","Ukrainian","Self","Nonmatching","Stranger","Stranger","Stranger","k","Bottom",1,"SelfStrong","Strong","white","Self = Positive",967,0.967,1
"64",1,1,64,"Male",24,"Right","Ukrainian","Stranger","Matching","Stranger","Stranger","Stranger","l","Bottom",2,"StrangerWeak","Weak","white","Self = Positive",1117,1.117,1
"65",1,1,65,"Male",24,"Right","Ukrainian","Self","Matching","Self","Self","Self","l","Bottom",1,"SelfStrong","Strong","white","Self = Positive",762,0.762,1
"66",1,1,66,"Male",24,"Right","Ukrainian","Self","Matching","Self","Self","Self","l","Bottom",1,"SelfStrong","Strong","white","Self = Positive",734,0.734,1
"67",1,1,67,"Male",24,"Right","Ukrainian","Stranger","Nonmatching","Self","Self","Self","k","Top",2,"StrangerWeak","Weak","white","Self = Positive",1100,1.1,1
"68",1,1,68,"Male",24,"Right","Ukrainian","Stranger","Nonmatching","Self","Self","Self","k","Bottom",2,"StrangerWeak","Weak","white","Self = Positive",1234,1.234,1
"69",1,1,69,"Male",24,"Right","Ukrainian","Self","Matching","Self","Self","Self","l","Bottom",1,"SelfStrong","Strong","white","Self = Positive",750,0.75,1
"70",1,1,70,"Male",24,"Right","Ukrainian","Self","Nonmatching","Stranger","Stranger","Stranger","k","Top",1,"SelfStrong","Strong","white","Self = Positive",1034,1.034,1
"71",1,1,71,"Male",24,"Right","Ukrainian","Stranger","Nonmatching","Self","Self","Self","k","Top",1,"StrangerStrong","Strong","white","Self = Positive",834,0.834,1
"72",1,1,72,"Male",24,"Right","Ukrainian","Stranger","Matching","Stranger","Stranger","Stranger","l","Top",1,"StrangerStrong","Strong","white","Self = Positive",1367,1.367,1
"73",1,1,73,"Male",24,"Right","Ukrainian","Self","Matching","Self","Self","Self","l","Bottom",2,"SelfWeak","Weak","white","Self = Positive",950,0.95,1
"74",1,1,74,"Male",24,"Right","Ukrainian","Stranger","Nonmatching","Self","Self","Self","k","Bottom",2,"StrangerWeak","Weak","white","Self = Positive",1067,1.067,1
"75",1,1,75,"Male",24,"Right","Ukrainian","Self","Nonmatching","Stranger","Stranger","Stranger","k","Top",1,"SelfStrong","Strong","white","Self = Positive",800,0.8,1
"76",1,1,76,"Male",24,"Right","Ukrainian","Stranger","Matching","Stranger","Stranger","Stranger","l","Bottom",1,"StrangerStrong","Strong","white","Self = Positive",1067,1.067,1
"77",1,1,77,"Male",24,"Right","Ukrainian","Self","Matching","Self","Self","Self","l","Bottom",1,"SelfStrong","Strong","white","Self = Positive",700,0.7,1
"78",1,1,78,"Male",24,"Right","Ukrainian","Stranger","Matching","Stranger","Stranger","Stranger","l","Bottom",2,"StrangerWeak","Weak","white","Self = Positive",1100,1.1,1
"79",1,1,79,"Male",24,"Right","Ukrainian","Stranger","Nonmatching","Self","Self","Self","k","Bottom",2,"StrangerWeak","Weak","white","Self = Positive",817,0.817,1
"80",1,1,80,"Male",24,"Right","Ukrainian","Self","Nonmatching","Stranger","Stranger","Stranger","k","Top",1,"SelfStrong","Strong","white","Self = Positive",1084,1.084,1
"81",1,1,81,"Male",24,"Right","Ukrainian","Self","Nonmatching","Stranger","Stranger","Stranger","k","Bottom",1,"SelfStrong","Strong","white","Self = Positive",884,0.884,1
"82",1,1,82,"Male",24,"Right","Ukrainian","Stranger","Matching","Stranger","Stranger","Stranger","l","Bottom",2,"StrangerWeak","Weak","white","Self = Positive",934,0.934,1
"83",1,1,83,"Male",24,"Right","Ukrainian","Self","Nonmatching","Stranger","Stranger","Stranger","k","Top",2,"SelfWeak","Weak","white","Self = Positive",984,0.984,1
"84",1,1,84,"Male",24,"Right","Ukrainian","Stranger","Matching","Stranger","Stranger","Stranger","l","Bottom",2,"StrangerWeak","Weak","white","Self = Positive",950,0.95,1
"85",1,1,85,"Male",24,"Right","Ukrainian","Stranger","Matching","Stranger","Stranger","Stranger","l","Top",1,"StrangerStrong","Strong","white","Self = Positive",1084,1.084,1
"86",1,1,86,"Male",24,"Right","Ukrainian","Self","Nonmatching","Stranger","Stranger","Stranger","k","Top",2,"SelfWeak","Weak","white","Self = Positive",917,0.917,1
"87",1,1,87,"Male",24,"Right","Ukrainian","Stranger","Matching","Stranger","Stranger","Stranger","l","Top",2,"StrangerWeak","Weak","white","Self = Positive",1285,1.285,1
"88",1,1,88,"Male",24,"Right","Ukrainian","Stranger","Matching","Stranger","Stranger","Stranger","l","Top",1,"StrangerStrong","Strong","white","Self = Positive",834,0.834,1
"89",1,1,89,"Male",24,"Right","Ukrainian","Self","Matching","Self","Self","Self","l","Bottom",2,"SelfWeak","Weak","white","Self = Positive",1150,1.15,1
"90",1,1,90,"Male",24,"Right","Ukrainian","Stranger","Nonmatching","Self","Self","Self","k","Top",2,"StrangerWeak","Weak","white","Self = Positive",767,0.767,1
"91",1,1,91,"Male",24,"Right","Ukrainian","Stranger","Matching","Stranger","Stranger","Stranger","l","Bottom",1,"StrangerStrong","Strong","white","Self = Positive",1117,1.117,1
"92",1,1,92,"Male",24,"Right","Ukrainian","Stranger","Nonmatching","Self","Self","Self","k","Bottom",2,"StrangerWeak","Weak","white","Self = Positive",900,0.9,1
"93",1,1,93,"Male",24,"Right","Ukrainian","Self","Matching","Self","Self","Self","l","Bottom",1,"SelfStrong","Strong","white","Self = Positive",767,0.767,1
"94",1,1,94,"Male",24,"Right","Ukrainian","Self","Matching","Self","Self","Self","l","Top",1,"SelfStrong","Strong","white","Self = Positive",900,0.9,1
"95",1,1,95,"Male",24,"Right","Ukrainian","Stranger","Nonmatching","Self","Self","Self","k","Bottom",2,"StrangerWeak","Weak","white","Self = Positive",817,0.817,1
"96",1,1,96,"Male",24,"Right","Ukrainian","Self","Matching","Self","Self","Self","l","Top",1,"SelfStrong","Strong","white","Self = Positive",767,0.767,1
"97",1,2,1,"Male",24,"Right","Ukrainian","Self","Nonmatching","Stranger","Stranger","Stranger","k","Top",1,"SelfStrong","Strong","white","Self = Positive",865,0.865,1
"98",1,2,2,"Male",24,"Right","Ukrainian","Stranger","Nonmatching","Self","Self","Self","k","Top",2,"StrangerWeak","Weak","white","Self = Positive",800,0.8,1
"99",1,2,3,"Male",24,"Right","Ukrainian","Stranger","Nonmatching","Self","Self","Self","k","Bottom",1,"StrangerStrong","Strong","white","Self = Positive",817,0.817,1
"100",1,2,4,"Male",24,"Right","Ukrainian","Stranger","Matching","Stranger","Stranger","Stranger","k","Top",1,"StrangerStrong","Strong","white","Self = Positive",884,0.884,0
"101",1,2,5,"Male",24,"Right","Ukrainian","Stranger","Matching","Stranger","Stranger","Stranger","l","Bottom",1,"StrangerStrong","Strong","white","Self = Positive",667,0.667,1
"102",1,2,6,"Male",24,"Right","Ukrainian","Stranger","Nonmatching","Self","Self","Self","k","Bottom",2,"StrangerWeak","Weak","white","Self = Positive",867,0.867,1
"103",1,2,7,"Male",24,"Right","Ukrainian","Stranger","Nonmatching","Self","Self","Self","k","Top",2,"StrangerWeak","Weak","white","Self = Positive",917,0.917,1
"104",1,2,8,"Male",24,"Right","Ukrainian","Self","Matching","Self","Self","Self","l","Bottom",1,"SelfStrong","Strong","white","Self = Positive",784,0.784,1
"105",1,2,9,"Male",24,"Right","Ukrainian","Stranger","Nonmatching","Self","Self","Self","k","Top",1,"StrangerStrong","Strong","white","Self = Positive",734,0.734,1
"106",1,2,10,"Male",24,"Right","Ukrainian","Stranger","Nonmatching","Self","Self","Self","k","Top",2,"StrangerWeak","Weak","white","Self = Positive",1517,1.517,1
"107",1,2,11,"Male",24,"Right","Ukrainian","Self","Matching","Self","Self","Self","l","Bottom",2,"SelfWeak","Weak","white","Self = Positive",1000,1,1
"108",1,2,12,"Male",24,"Right","Ukrainian","Stranger","Matching","Stranger","Stranger","Stranger","l","Bottom",2,"StrangerWeak","Weak","white","Self = Positive",1334,1.334,1
"109",1,2,13,"Male",24,"Right","Ukrainian","Stranger","Nonmatching","Self","Self","Self","k","Bottom",2,"StrangerWeak","Weak","white","Self = Positive",1100,1.1,1
"110",1,2,14,"Male",24,"Right","Ukrainian","Stranger","Nonmatching","Self","Self","Self","k","Bottom",2,"StrangerWeak","Weak","white","Self = Positive",1450,1.45,1
"111",1,2,15,"Male",24,"Right","Ukrainian","Self","Nonmatching","Stranger","Stranger","Stranger","k","Top",1,"SelfStrong","Strong","white","Self = Positive",867,0.867,1
"112",1,2,16,"Male",24,"Right","Ukrainian","Self","Nonmatching","Stranger","Stranger","Stranger","k","Bottom",2,"SelfWeak","Weak","white","Self = Positive",950,0.95,1
"113",1,2,17,"Male",24,"Right","Ukrainian","Self","Nonmatching","Stranger","Stranger","Stranger","k","Bottom",1,"SelfStrong","Strong","white","Self = Positive",1117,1.117,1
"114",1,2,18,"Male",24,"Right","Ukrainian","Stranger","Nonmatching","Self","Self","Self","k","Bottom",2,"StrangerWeak","Weak","white","Self = Positive",850,0.85,1
"115",1,2,19,"Male",24,"Right","Ukrainian","Self","Nonmatching","Stranger","Stranger","Stranger","k","Top",1,"SelfStrong","Strong","white","Self = Positive",1034,1.034,1
"116",1,2,20,"Male",24,"Right","Ukrainian","Self","Nonmatching","Stranger","Stranger","Stranger","k","Bottom",2,"SelfWeak","Weak","white","Self = Positive",1100,1.1,1
"117",1,2,21,"Male",24,"Right","Ukrainian","Self","Nonmatching","Stranger","Stranger","Stranger","k","Top",1,"SelfStrong","Strong","white","Self = Positive",767,0.767,1
"118",1,2,22,"Male",24,"Right","Ukrainian","Stranger","Matching","Stranger","Stranger","Stranger","l","Top",2,"StrangerWeak","Weak","white","Self = Positive",817,0.817,1
"119",1,2,23,"Male",24,"Right","Ukrainian","Self","Matching","Self","Self","Self","l","Top",2,"SelfWeak","Weak","white","Self = Positive",884,0.884,1
"120",1,2,24,"Male",24,"Right","Ukrainian","Stranger","Nonmatching","Self","Self","Self","k","Bottom",1,"StrangerStrong","Strong","white","Self = Positive",1034,1.034,1
"121",1,2,25,"Male",24,"Right","Ukrainian","Self","Matching","Self","Self","Self","l","Top",1,"SelfStrong","Strong","white","Self = Positive",934,0.934,1
"122",1,2,26,"Male",24,"Right","Ukrainian","Stranger","Nonmatching","Self","Self","Self","k","Top",1,"StrangerStrong","Strong","white","Self = Positive",965,0.965,1
"123",1,2,27,"Male",24,"Right","Ukrainian","Self","Nonmatching","Stranger","Stranger","Stranger","k","Bottom",1,"SelfStrong","Strong","white","Self = Positive",1283,1.283,1
"124",1,2,28,"Male",24,"Right","Ukrainian","Self","Nonmatching","Stranger","Stranger","Stranger","k","Bottom",2,"SelfWeak","Weak","white","Self = Positive",1384,1.384,1
"125",1,2,29,"Male",24,"Right","Ukrainian","Stranger","Nonmatching","Self","Self","Self","k","Bottom",1,"StrangerStrong","Strong","white","Self = Positive",867,0.867,1
"126",1,2,30,"Male",24,"Right","Ukrainian","Stranger","Matching","Stranger","Stranger","Stranger","l","Bottom",1,"StrangerStrong","Strong","white","Self = Positive",1583,1.583,1
"127",1,2,31,"Male",24,"Right","Ukrainian","Self","Nonmatching","Stranger","Stranger","Stranger","k","Bottom",1,"SelfStrong","Strong","white","Self = Positive",1200,1.2,1
"128",1,2,32,"Male",24,"Right","Ukrainian","Stranger","Matching","Stranger","Stranger","Stranger","l","Top",1,"StrangerStrong","Strong","white","Self = Positive",1250,1.25,1
"129",1,2,33,"Male",24,"Right","Ukrainian","Stranger","Nonmatching","Self","Self","Self","k","Bottom",2,"StrangerWeak","Weak","white","Self = Positive",917,0.917,1
"130",1,2,34,"Male",24,"Right","Ukrainian","Stranger","Matching","Stranger","Stranger","Stranger","k","Top",1,"StrangerStrong","Strong","white","Self = Positive",1100,1.1,0
"131",1,2,35,"Male",24,"Right","Ukrainian","Stranger","Matching","Stranger","Stranger","Stranger","l","Top",1,"StrangerStrong","Strong","white","Self = Positive",934,0.934,1
"132",1,2,36,"Male",24,"Right","Ukrainian","Stranger","Matching","Stranger","Stranger","Stranger","l","Bottom",1,"StrangerStrong","Strong","white","Self = Positive",867,0.867,1
"133",1,2,37,"Male",24,"Right","Ukrainian","Self","Matching","Self","Self","Self","l","Top",1,"SelfStrong","Strong","white","Self = Positive",1017,1.017,1
"134",1,2,38,"Male",24,"Right","Ukrainian","Stranger","Matching","Stranger","Stranger","Stranger","k","Top",2,"StrangerWeak","Weak","white","Self = Positive",1084,1.084,0
"135",1,2,39,"Male",24,"Right","Ukrainian","Stranger","Matching","Stranger","Stranger","Stranger","l","Bottom",2,"StrangerWeak","Weak","white","Self = Positive",931,0.931,1
"136",1,2,40,"Male",24,"Right","Ukrainian","Self","Nonmatching","Stranger","Stranger","Stranger","k","Top",2,"SelfWeak","Weak","white","Self = Positive",1050,1.05,1
"137",1,2,41,"Male",24,"Right","Ukrainian","Self","Nonmatching","Stranger","Stranger","Stranger","k","Bottom",2,"SelfWeak","Weak","white","Self = Positive",1100,1.1,1
"138",1,2,42,"Male",24,"Right","Ukrainian","Self","Matching","Self","Self","Self","l","Top",2,"SelfWeak","Weak","white","Self = Positive",1217,1.217,1
"139",1,2,43,"Male",24,"Right","Ukrainian","Stranger","Nonmatching","Self","Self","Self","k","Bottom",1,"StrangerStrong","Strong","white","Self = Positive",800,0.8,1
"140",1,2,44,"Male",24,"Right","Ukrainian","Self","Nonmatching","Stranger","Stranger","Stranger","k","Top",2,"SelfWeak","Weak","white","Self = Positive",1217,1.217,1
"141",1,2,45,"Male",24,"Right","Ukrainian","Stranger","Nonmatching","Self","Self","Self","k","Top",2,"StrangerWeak","Weak","white","Self = Positive",917,0.917,1
"142",1,2,46,"Male",24,"Right","Ukrainian","Stranger","Matching","Stranger","Stranger","Stranger","l","Bottom",1,"StrangerStrong","Strong","white","Self = Positive",1200,1.2,1
"143",1,2,47,"Male",24,"Right","Ukrainian","Stranger","Matching","Stranger","Stranger","Stranger","k","Bottom",2,"StrangerWeak","Weak","white","Self = Positive",1150,1.15,0
"144",1,2,48,"Male",24,"Right","Ukrainian","Stranger","Nonmatching","Self","Self","Self","k","Bottom",2,"StrangerWeak","Weak","white","Self = Positive",1317,1.317,1
"145",1,2,49,"Male",24,"Right","Ukrainian","Stranger","Matching","Stranger","Stranger","Stranger","None","Bottom",2,"StrangerWeak","Weak","white","Self = Positive",NA,NA,3
"146",1,2,50,"Male",24,"Right","Ukrainian","Self","Matching","Self","Self","Self","l","Top",2,"SelfWeak","Weak","white","Self = Positive",834,0.834,1
"147",1,2,51,"Male",24,"Right","Ukrainian","Self","Matching","Self","Self","Self","l","Bottom",2,"SelfWeak","Weak","white","Self = Positive",717,0.717,1
"148",1,2,52,"Male",24,"Right","Ukrainian","Self","Matching","Self","Self","Self","l","Bottom",2,"SelfWeak","Weak","white","Self = Positive",584,0.584,1
"149",1,2,53,"Male",24,"Right","Ukrainian","Self","Nonmatching","Stranger","Stranger","Stranger","k","Top",1,"SelfStrong","Strong","white","Self = Positive",934,0.934,1
"150",1,2,54,"Male",24,"Right","Ukrainian","Stranger","Matching","Stranger","Stranger","Stranger","l","Top",2,"StrangerWeak","Weak","white","Self = Positive",1117,1.117,1
"151",1,2,55,"Male",24,"Right","Ukrainian","Stranger","Matching","Stranger","Stranger","Stranger","l","Bottom",1,"StrangerStrong","Strong","white","Self = Positive",1284,1.284,1
"152",1,2,56,"Male",24,"Right","Ukrainian","Self","Matching","Self","Self","Self","l","Top",1,"SelfStrong","Strong","white","Self = Positive",917,0.917,1
"153",1,2,57,"Male",24,"Right","Ukrainian","Self","Nonmatching","Stranger","Stranger","Stranger","k","Bottom",2,"SelfWeak","Weak","white","Self = Positive",1468,1.468,1
"154",1,2,58,"Male",24,"Right","Ukrainian","Stranger","Nonmatching","Self","Self","Self","k","Bottom",1,"StrangerStrong","Strong","white","Self = Positive",1184,1.184,1
"155",1,2,59,"Male",24,"Right","Ukrainian","Stranger","Nonmatching","Self","Self","Self","k","Top",1,"StrangerStrong","Strong","white","Self = Positive",784,0.784,1
"156",1,2,60,"Male",24,"Right","Ukrainian","Self","Nonmatching","Stranger","Stranger","Stranger","k","Bottom",2,"SelfWeak","Weak","white","Self = Positive",1200,1.2,1
"157",1,2,61,"Male",24,"Right","Ukrainian","Self","Nonmatching","Stranger","Stranger","Stranger","k","Bottom",1,"SelfStrong","Strong","white","Self = Positive",1184,1.184,1
"158",1,2,62,"Male",24,"Right","Ukrainian","Stranger","Nonmatching","Self","Self","Self","l","Top",1,"StrangerStrong","Strong","white","Self = Positive",1183,1.183,0
"159",1,2,63,"Male",24,"Right","Ukrainian","Self","Matching","Self","Self","Self","l","Top",2,"SelfWeak","Weak","white","Self = Positive",1050,1.05,1
"160",1,2,64,"Male",24,"Right","Ukrainian","Self","Matching","Self","Self","Self","l","Top",1,"SelfStrong","Strong","white","Self = Positive",717,0.717,1
"161",1,2,65,"Male",24,"Right","Ukrainian","Stranger","Matching","Stranger","Stranger","Stranger","k","Top",2,"StrangerWeak","Weak","white","Self = Positive",733,0.733,0
"162",1,2,66,"Male",24,"Right","Ukrainian","Self","Matching","Self","Self","Self","l","Top",2,"SelfWeak","Weak","white","Self = Positive",867,0.867,1
"163",1,2,67,"Male",24,"Right","Ukrainian","Self","Matching","Self","Self","Self","l","Bottom",1,"SelfStrong","Strong","white","Self = Positive",917,0.917,1
"164",1,2,68,"Male",24,"Right","Ukrainian","Self","Matching","Self","Self","Self","l","Bottom",1,"SelfStrong","Strong","white","Self = Positive",584,0.584,1
"165",1,2,69,"Male",24,"Right","Ukrainian","Self","Matching","Self","Self","Self","l","Bottom",1,"SelfStrong","Strong","white","Self = Positive",534,0.534,1
"166",1,2,70,"Male",24,"Right","Ukrainian","Stranger","Nonmatching","Self","Self","Self","k","Top",1,"StrangerStrong","Strong","white","Self = Positive",750,0.75,1
"167",1,2,71,"Male",24,"Right","Ukrainian","Self","Nonmatching","Stranger","Stranger","Stranger","k","Top",2,"SelfWeak","Weak","white","Self = Positive",1084,1.084,1
"168",1,2,72,"Male",24,"Right","Ukrainian","Stranger","Nonmatching","Self","Self","Self","k","Top",2,"StrangerWeak","Weak","white","Self = Positive",800,0.8,1
"169",1,2,73,"Male",24,"Right","Ukrainian","Stranger","Matching","Stranger","Stranger","Stranger","l","Bottom",2,"StrangerWeak","Weak","white","Self = Positive",1117,1.117,1
"170",1,2,74,"Male",24,"Right","Ukrainian","Self","Matching","Self","Self","Self","l","Bottom",1,"SelfStrong","Strong","white","Self = Positive",650,0.65,1
"171",1,2,75,"Male",24,"Right","Ukrainian","Self","Nonmatching","Stranger","Stranger","Stranger","k","Bottom",1,"SelfStrong","Strong","white","Self = Positive",848,0.848,1
"172",1,2,76,"Male",24,"Right","Ukrainian","Stranger","Nonmatching","Self","Self","Self","k","Top",1,"StrangerStrong","Strong","white","Self = Positive",800,0.8,1
"173",1,2,77,"Male",24,"Right","Ukrainian","Self","Nonmatching","Stranger","Stranger","Stranger","k","Top",2,"SelfWeak","Weak","white","Self = Positive",1433,1.433,1
"174",1,2,78,"Male",24,"Right","Ukrainian","Self","Matching","Self","Self","Self","l","Top",1,"SelfStrong","Strong","white","Self = Positive",784,0.784,1
"175",1,2,79,"Male",24,"Right","Ukrainian","Self","Matching","Self","Self","Self","l","Bottom",2,"SelfWeak","Weak","white","Self = Positive",1550,1.55,1
"176",1,2,80,"Male",24,"Right","Ukrainian","Stranger","Matching","Stranger","Stranger","Stranger","k","Bottom",2,"StrangerWeak","Weak","white","Self = Positive",734,0.734,0
"177",1,2,81,"Male",24,"Right","Ukrainian","Self","Nonmatching","Stranger","Stranger","Stranger","k","Top",1,"SelfStrong","Strong","white","Self = Positive",950,0.95,1
"178",1,2,82,"Male",24,"Right","Ukrainian","Self","Nonmatching","Stranger","Stranger","Stranger","k","Top",2,"SelfWeak","Weak","white","Self = Positive",1385,1.385,1
"179",1,2,83,"Male",24,"Right","Ukrainian","Stranger","Matching","Stranger","Stranger","Stranger","l","Bottom",1,"StrangerStrong","Strong","white","Self = Positive",1434,1.434,1
"180",1,2,84,"Male",24,"Right","Ukrainian","Self","Matching","Self","Self","Self","l","Top",2,"SelfWeak","Weak","white","Self = Positive",817,0.817,1
"181",1,2,85,"Male",24,"Right","Ukrainian","Stranger","Matching","Stranger","Stranger","Stranger","k","Top",1,"StrangerStrong","Strong","white","Self = Positive",1017,1.017,0
"182",1,2,86,"Male",24,"Right","Ukrainian","Self","Matching","Self","Self","Self","l","Top",1,"SelfStrong","Strong","white","Self = Positive",917,0.917,1
"183",1,2,87,"Male",24,"Right","Ukrainian","Self","Matching","Self","Self","Self","l","Bottom",2,"SelfWeak","Weak","white","Self = Positive",900,0.9,1
"184",1,2,88,"Male",24,"Right","Ukrainian","Stranger","Nonmatching","Self","Self","Self","k","Bottom",1,"StrangerStrong","Strong","white","Self = Positive",817,0.817,1
"185",1,2,89,"Male",24,"Right","Ukrainian","Stranger","Matching","Stranger","Stranger","Stranger","l","Top",2,"StrangerWeak","Weak","white","Self = Positive",1334,1.334,1
"186",1,2,90,"Male",24,"Right","Ukrainian","Stranger","Nonmatching","Self","Self","Self","k","Top",2,"StrangerWeak","Weak","white","Self = Positive",1100,1.1,1
"187",1,2,91,"Male",24,"Right","Ukrainian","Self","Matching","Self","Self","Self","l","Bottom",1,"SelfStrong","Strong","white","Self = Positive",1100,1.1,1
"188",1,2,92,"Male",24,"Right","Ukrainian","Self","Matching","Self","Self","Self","l","Bottom",2,"SelfWeak","Weak","white","Self = Positive",784,0.784,1
"189",1,2,93,"Male",24,"Right","Ukrainian","Stranger","Matching","Stranger","Stranger","Stranger","l","Top",1,"StrangerStrong","Strong","white","Self = Positive",934,0.934,1
"190",1,2,94,"Male",24,"Right","Ukrainian","Self","Nonmatching","Stranger","Stranger","Stranger","l","Top",2,"SelfWeak","Weak","white","Self = Positive",867,0.867,0
"191",1,2,95,"Male",24,"Right","Ukrainian","Stranger","Matching","Stranger","Stranger","Stranger","l","Top",2,"StrangerWeak","Weak","white","Self = Positive",1034,1.034,1
"192",1,2,96,"Male",24,"Right","Ukrainian","Self","Nonmatching","Stranger","Stranger","Stranger","k","Bottom",1,"SelfStrong","Strong","white","Self = Positive",967,0.967,1
"193",1,3,1,"Male",24,"Right","Ukrainian","Self","Nonmatching","Stranger","Stranger","Stranger","k","Top",2,"SelfWeak","Weak","white","Self = Positive",1084,1.084,1
"194",1,3,2,"Male",24,"Right","Ukrainian","Stranger","Matching","Stranger","Stranger","Stranger","l","Bottom",1,"StrangerStrong","Strong","white","Self = Positive",1000,1,1
"195",1,3,3,"Male",24,"Right","Ukrainian","Self","Matching","Self","Self","Self","l","Top",2,"SelfWeak","Weak","white","Self = Positive",867,0.867,1
"196",1,3,4,"Male",24,"Right","Ukrainian","Stranger","Nonmatching","Self","Self","Self","l","Bottom",2,"StrangerWeak","Weak","white","Self = Positive",734,0.734,0
"197",1,3,5,"Male",24,"Right","Ukrainian","Stranger","Matching","Stranger","Stranger","Stranger","l","Bottom",2,"StrangerWeak","Weak","white","Self = Positive",867,0.867,1
"198",1,3,6,"Male",24,"Right","Ukrainian","Self","Matching","Self","Self","Self","l","Bottom",2,"SelfWeak","Weak","white","Self = Positive",817,0.817,1
"199",1,3,7,"Male",24,"Right","Ukrainian","Stranger","Matching","Stranger","Stranger","Stranger","l","Top",2,"StrangerWeak","Weak","white","Self = Positive",1017,1.017,1
"200",1,3,8,"Male",24,"Right","Ukrainian","Stranger","Nonmatching","Self","Self","Self","k","Bottom",2,"StrangerWeak","Weak","white","Self = Positive",952,0.952,1
"201",1,3,9,"Male",24,"Right","Ukrainian","Stranger","Matching","Stranger","Stranger","Stranger","k","Top",1,"StrangerStrong","Strong","white","Self = Positive",1050,1.05,0
"202",1,3,10,"Male",24,"Right","Ukrainian","Stranger","Matching","Stranger","Stranger","Stranger","l","Bottom",1,"StrangerStrong","Strong","white","Self = Positive",767,0.767,1
"203",1,3,11,"Male",24,"Right","Ukrainian","Stranger","Nonmatching","Self","Self","Self","k","Top",2,"StrangerWeak","Weak","white","Self = Positive",884,0.884,1
"204",1,3,12,"Male",24,"Right","Ukrainian","Stranger","Nonmatching","Self","Self","Self","k","Bottom",1,"StrangerStrong","Strong","white","Self = Positive",900,0.9,1
"205",1,3,13,"Male",24,"Right","Ukrainian","Stranger","Nonmatching","Self","Self","Self","k","Bottom",2,"StrangerWeak","Weak","white","Self = Positive",1034,1.034,1
"206",1,3,14,"Male",24,"Right","Ukrainian","Self","Nonmatching","Stranger","Stranger","Stranger","k","Bottom",2,"SelfWeak","Weak","white","Self = Positive",1300,1.3,1
"207",1,3,15,"Male",24,"Right","Ukrainian","Stranger","Matching","Stranger","Stranger","Stranger","l","Top",2,"StrangerWeak","Weak","white","Self = Positive",1067,1.067,1
"208",1,3,16,"Male",24,"Right","Ukrainian","Self","Nonmatching","Stranger","Stranger","Stranger","k","Bottom",2,"SelfWeak","Weak","white","Self = Positive",1050,1.05,1
"209",1,3,17,"Male",24,"Right","Ukrainian","Stranger","Nonmatching","Self","Self","Self","k","Top",1,"StrangerStrong","Strong","white","Self = Positive",950,0.95,1
"210",1,3,18,"Male",24,"Right","Ukrainian","Stranger","Matching","Stranger","Stranger","Stranger","l","Bottom",2,"StrangerWeak","Weak","white","Self = Positive",1350,1.35,1
"211",1,3,19,"Male",24,"Right","Ukrainian","Stranger","Nonmatching","Self","Self","Self","k","Bottom",1,"StrangerStrong","Strong","white","Self = Positive",1034,1.034,1
"212",1,3,20,"Male",24,"Right","Ukrainian","Self","Nonmatching","Stranger","Stranger","Stranger","k","Top",2,"SelfWeak","Weak","white","Self = Positive",1167,1.167,1
"213",1,3,21,"Male",24,"Right","Ukrainian","Self","Matching","Self","Self","Self","l","Bottom",1,"SelfStrong","Strong","white","Self = Positive",734,0.734,1
"214",1,3,22,"Male",24,"Right","Ukrainian","Stranger","Matching","Stranger","Stranger","Stranger","k","Bottom",1,"StrangerStrong","Strong","white","Self = Positive",817,0.817,0
"215",1,3,23,"Male",24,"Right","Ukrainian","Stranger","Matching","Stranger","Stranger","Stranger","l","Top",1,"StrangerStrong","Strong","white","Self = Positive",867,0.867,1
"216",1,3,24,"Male",24,"Right","Ukrainian","Self","Nonmatching","Stranger","Stranger","Stranger","k","Top",1,"SelfStrong","Strong","white","Self = Positive",767,0.767,1
"217",1,3,25,"Male",24,"Right","Ukrainian","Self","Nonmatching","Stranger","Stranger","Stranger","k","Bottom",1,"SelfStrong","Strong","white","Self = Positive",884,0.884,1
"218",1,3,26,"Male",24,"Right","Ukrainian","Self","Nonmatching","Stranger","Stranger","Stranger","k","Bottom",2,"SelfWeak","Weak","white","Self = Positive",1265,1.265,1
"219",1,3,27,"Male",24,"Right","Ukrainian","Self","Matching","Self","Self","Self","l","Top",2,"SelfWeak","Weak","white","Self = Positive",1250,1.25,1
"220",1,3,28,"Male",24,"Right","Ukrainian","Stranger","Nonmatching","Self","Self","Self","k","Bottom",2,"StrangerWeak","Weak","white","Self = Positive",1050,1.05,1
"221",1,3,29,"Male",24,"Right","Ukrainian","Stranger","Nonmatching","Self","Self","Self","k","Bottom",1,"StrangerStrong","Strong","white","Self = Positive",1017,1.017,1
"222",1,3,30,"Male",24,"Right","Ukrainian","Self","Nonmatching","Stranger","Stranger","Stranger","k","Bottom",1,"SelfStrong","Strong","white","Self = Positive",917,0.917,1
"223",1,3,31,"Male",24,"Right","Ukrainian","Stranger","Matching","Stranger","Stranger","Stranger","l","Bottom",2,"StrangerWeak","Weak","white","Self = Positive",850,0.85,1
"224",1,3,32,"Male",24,"Right","Ukrainian","Self","Nonmatching","Stranger","Stranger","Stranger","k","Bottom",1,"SelfStrong","Strong","white","Self = Positive",967,0.967,1
"225",1,3,33,"Male",24,"Right","Ukrainian","Self","Nonmatching","Stranger","Stranger","Stranger","k","Bottom",1,"SelfStrong","Strong","white","Self = Positive",735,0.735,1
"226",1,3,34,"Male",24,"Right","Ukrainian","Self","Matching","Self","Self","Self","l","Bottom",1,"SelfStrong","Strong","white","Self = Positive",984,0.984,1
"227",1,3,35,"Male",24,"Right","Ukrainian","Self","Matching","Self","Self","Self","l","Top",2,"SelfWeak","Weak","white","Self = Positive",1484,1.484,1
"228",1,3,36,"Male",24,"Right","Ukrainian","Self","Nonmatching","Stranger","Stranger","Stranger","k","Bottom",2,"SelfWeak","Weak","white","Self = Positive",1350,1.35,1
"229",1,3,37,"Male",24,"Right","Ukrainian","Self","Nonmatching","Stranger","Stranger","Stranger","k","Bottom",1,"SelfStrong","Strong","white","Self = Positive",817,0.817,1
"230",1,3,38,"Male",24,"Right","Ukrainian","Stranger","Nonmatching","Self","Self","Self","k","Bottom",1,"StrangerStrong","Strong","white","Self = Positive",917,0.917,1
"231",1,3,39,"Male",24,"Right","Ukrainian","Self","Nonmatching","Stranger","Stranger","Stranger","k","Bottom",2,"SelfWeak","Weak","white","Self = Positive",1100,1.1,1
"232",1,3,40,"Male",24,"Right","Ukrainian","Self","Matching","Self","Self","Self","l","Top",2,"SelfWeak","Weak","white","Self = Positive",1284,1.284,1
"233",1,3,41,"Male",24,"Right","Ukrainian","Stranger","Nonmatching","Self","Self","Self","k","Top",2,"StrangerWeak","Weak","white","Self = Positive",784,0.784,1
"234",1,3,42,"Male",24,"Right","Ukrainian","Stranger","Matching","Stranger","Stranger","Stranger","l","Bottom",1,"StrangerStrong","Strong","white","Self = Positive",767,0.767,1
"235",1,3,43,"Male",24,"Right","Ukrainian","Self","Matching","Self","Self","Self","l","Top",1,"SelfStrong","Strong","white","Self = Positive",817,0.817,1
"236",1,3,44,"Male",24,"Right","Ukrainian","Stranger","Nonmatching","Self","Self","Self","k","Top",1,"StrangerStrong","Strong","white","Self = Positive",800,0.8,1
"237",1,3,45,"Male",24,"Right","Ukrainian","Self","Nonmatching","Stranger","Stranger","Stranger","k","Top",2,"SelfWeak","Weak","white","Self = Positive",1067,1.067,1
"238",1,3,46,"Male",24,"Right","Ukrainian","Stranger","Nonmatching","Self","Self","Self","k","Bottom",2,"StrangerWeak","Weak","white","Self = Positive",1117,1.117,1
"239",1,3,47,"Male",24,"Right","Ukrainian","Self","Matching","Self","Self","Self","l","Top",1,"SelfStrong","Strong","white","Self = Positive",734,0.734,1
"240",1,3,48,"Male",24,"Right","Ukrainian","Stranger","Nonmatching","Self","Self","Self","k","Top",1,"StrangerStrong","Strong","white","Self = Positive",717,0.717,1
"241",1,3,49,"Male",24,"Right","Ukrainian","Stranger","Nonmatching","Self","Self","Self","k","Top",1,"StrangerStrong","Strong","white","Self = Positive",967,0.967,1
"242",1,3,50,"Male",24,"Right","Ukrainian","Self","Nonmatching","Stranger","Stranger","Stranger","k","Top",2,"SelfWeak","Weak","white","Self = Positive",1184,1.184,1
"243",1,3,51,"Male",24,"Right","Ukrainian","Self","Matching","Self","Self","Self","l","Top",1,"SelfStrong","Strong","white","Self = Positive",734,0.734,1
"244",1,3,52,"Male",24,"Right","Ukrainian","Self","Matching","Self","Self","Self","l","Bottom",1,"SelfStrong","Strong","white","Self = Positive",700,0.7,1
"245",1,3,53,"Male",24,"Right","Ukrainian","Self","Matching","Self","Self","Self","l","Bottom",2,"SelfWeak","Weak","white","Self = Positive",717,0.717,1
"246",1,3,54,"Male",24,"Right","Ukrainian","Stranger","Nonmatching","Self","Self","Self","k","Top",1,"StrangerStrong","Strong","white","Self = Positive",767,0.767,1
"247",1,3,55,"Male",24,"Right","Ukrainian","Self","Matching","Self","Self","Self","l","Bottom",2,"SelfWeak","Weak","white","Self = Positive",900,0.9,1
"248",1,3,56,"Male",24,"Right","Ukrainian","Stranger","Matching","Stranger","Stranger","Stranger","k","Top",2,"StrangerWeak","Weak","white","Self = Positive",1000,1,0
"249",1,3,57,"Male",24,"Right","Ukrainian","Stranger","Matching","Stranger","Stranger","Stranger","l","Bottom",2,"StrangerWeak","Weak","white","Self = Positive",784,0.784,1
"250",1,3,58,"Male",24,"Right","Ukrainian","Stranger","Nonmatching","Self","Self","Self","k","Bottom",2,"StrangerWeak","Weak","white","Self = Positive",917,0.917,1
"251",1,3,59,"Male",24,"Right","Ukrainian","Stranger","Matching","Stranger","Stranger","Stranger","l","Bottom",1,"StrangerStrong","Strong","white","Self = Positive",734,0.734,1
"252",1,3,60,"Male",24,"Right","Ukrainian","Self","Matching","Self","Self","Self","l","Bottom",1,"SelfStrong","Strong","white","Self = Positive",684,0.684,1
"253",1,3,61,"Male",24,"Right","Ukrainian","Stranger","Matching","Stranger","Stranger","Stranger","l","Top",2,"StrangerWeak","Weak","white","Self = Positive",1350,1.35,1
"254",1,3,62,"Male",24,"Right","Ukrainian","Stranger","Nonmatching","Self","Self","Self","k","Top",2,"StrangerWeak","Weak","white","Self = Positive",900,0.9,1
"255",1,3,63,"Male",24,"Right","Ukrainian","Self","Nonmatching","Stranger","Stranger","Stranger","k","Top",1,"SelfStrong","Strong","white","Self = Positive",867,0.867,1
"256",1,3,64,"Male",24,"Right","Ukrainian","Self","Matching","Self","Self","Self","l","Top",1,"SelfStrong","Strong","white","Self = Positive",950,0.95,1
"257",1,3,65,"Male",24,"Right","Ukrainian","Self","Matching","Self","Self","Self","l","Top",1,"SelfStrong","Strong","white","Self = Positive",634,0.634,1
"258",1,3,66,"Male",24,"Right","Ukrainian","Self","Matching","Self","Self","Self","l","Top",1,"SelfStrong","Strong","white","Self = Positive",550,0.55,1
"259",1,3,67,"Male",24,"Right","Ukrainian","Self","Nonmatching","Stranger","Stranger","Stranger","l","Top",1,"SelfStrong","Strong","white","Self = Positive",867,0.867,0
"260",1,3,68,"Male",24,"Right","Ukrainian","Self","Nonmatching","Stranger","Stranger","Stranger","k","Bottom",2,"SelfWeak","Weak","white","Self = Positive",1167,1.167,1
"261",1,3,69,"Male",24,"Right","Ukrainian","Self","Nonmatching","Stranger","Stranger","Stranger","l","Bottom",1,"SelfStrong","Strong","white","Self = Positive",1000,1,0
"262",1,3,70,"Male",24,"Right","Ukrainian","Self","Nonmatching","Stranger","Stranger","Stranger","k","Top",1,"SelfStrong","Strong","white","Self = Positive",1117,1.117,1
"263",1,3,71,"Male",24,"Right","Ukrainian","Self","Nonmatching","Stranger","Stranger","Stranger","k","Top",2,"SelfWeak","Weak","white","Self = Positive",1000,1,1
"264",1,3,72,"Male",24,"Right","Ukrainian","Self","Matching","Self","Self","Self","None","Bottom",2,"SelfWeak","Weak","white","Self = Positive",NA,NA,3
"265",1,3,73,"Male",24,"Right","Ukrainian","Self","Nonmatching","Stranger","Stranger","Stranger","k","Top",2,"SelfWeak","Weak","white","Self = Positive",950,0.95,1
"266",1,3,74,"Male",24,"Right","Ukrainian","Stranger","Nonmatching","Self","Self","Self","k","Top",2,"StrangerWeak","Weak","white","Self = Positive",1400,1.4,1
"267",1,3,75,"Male",24,"Right","Ukrainian","Stranger","Nonmatching","Self","Self","Self","k","Top",2,"StrangerWeak","Weak","white","Self = Positive",700,0.7,1
"268",1,3,76,"Male",24,"Right","Ukrainian","Stranger","Nonmatching","Self","Self","Self","k","Top",2,"StrangerWeak","Weak","white","Self = Positive",750,0.75,1
"269",1,3,77,"Male",24,"Right","Ukrainian","Stranger","Matching","Stranger","Stranger","Stranger","l","Top",2,"StrangerWeak","Weak","white","Self = Positive",1067,1.067,1
"270",1,3,78,"Male",24,"Right","Ukrainian","Self","Matching","Self","Self","Self","l","Bottom",1,"SelfStrong","Strong","white","Self = Positive",800,0.8,1
"271",1,3,79,"Male",24,"Right","Ukrainian","Self","Nonmatching","Stranger","Stranger","Stranger","k","Top",1,"SelfStrong","Strong","white","Self = Positive",900,0.9,1
"272",1,3,80,"Male",24,"Right","Ukrainian","Stranger","Matching","Stranger","Stranger","Stranger","l","Top",1,"StrangerStrong","Strong","white","Self = Positive",1250,1.25,1
"273",1,3,81,"Male",24,"Right","Ukrainian","Stranger","Matching","Stranger","Stranger","Stranger","l","Bottom",2,"StrangerWeak","Weak","white","Self = Positive",1217,1.217,1
"274",1,3,82,"Male",24,"Right","Ukrainian","Stranger","Matching","Stranger","Stranger","Stranger","l","Top",1,"StrangerStrong","Strong","white","Self = Positive",667,0.667,1
"275",1,3,83,"Male",24,"Right","Ukrainian","Stranger","Nonmatching","Self","Self","Self","k","Top",1,"StrangerStrong","Strong","white","Self = Positive",1200,1.2,1
"276",1,3,84,"Male",24,"Right","Ukrainian","Stranger","Matching","Stranger","Stranger","Stranger","l","Top",2,"StrangerWeak","Weak","white","Self = Positive",1435,1.435,1
"277",1,3,85,"Male",24,"Right","Ukrainian","Self","Matching","Self","Self","Self","k","Bottom",2,"SelfWeak","Weak","white","Self = Positive",1550,1.55,0
"278",1,3,86,"Male",24,"Right","Ukrainian","Stranger","Matching","Stranger","Stranger","Stranger","k","Bottom",2,"StrangerWeak","Weak","white","Self = Positive",1017,1.017,0
"279",1,3,87,"Male",24,"Right","Ukrainian","Self","Matching","Self","Self","Self","l","Top",2,"SelfWeak","Weak","white","Self = Positive",834,0.834,1
"280",1,3,88,"Male",24,"Right","Ukrainian","Self","Matching","Self","Self","Self","k","Top",2,"SelfWeak","Weak","white","Self = Positive",1167,1.167,0
"281",1,3,89,"Male",24,"Right","Ukrainian","Stranger","Nonmatching","Self","Self","Self","k","Bottom",1,"StrangerStrong","Strong","white","Self = Positive",1167,1.167,1
"282",1,3,90,"Male",24,"Right","Ukrainian","Self","Nonmatching","Stranger","Stranger","Stranger","k","Top",1,"SelfStrong","Strong","white","Self = Positive",1100,1.1,1
"283",1,3,91,"Male",24,"Right","Ukrainian","Stranger","Matching","Stranger","Stranger","Stranger","l","Top",1,"StrangerStrong","Strong","white","Self = Positive",1250,1.25,1
"284",1,3,92,"Male",24,"Right","Ukrainian","Stranger","Matching","Stranger","Stranger","Stranger","l","Bottom",1,"StrangerStrong","Strong","white","Self = Positive",1467,1.467,1
"285",1,3,93,"Male",24,"Right","Ukrainian","Stranger","Nonmatching","Self","Self","Self","k","Bottom",1,"StrangerStrong","Strong","white","Self = Positive",1300,1.3,1
"286",1,3,94,"Male",24,"Right","Ukrainian","Stranger","Matching","Stranger","Stranger","Stranger","l","Top",1,"StrangerStrong","Strong","white","Self = Positive",934,0.934,1
"287",1,3,95,"Male",24,"Right","Ukrainian","Self","Matching","Self","Self","Self","l","Bottom",1,"SelfStrong","Strong","white","Self = Positive",1184,1.184,1
"288",1,3,96,"Male",24,"Right","Ukrainian","Self","Matching","Self","Self","Self","l","Bottom",2,"SelfWeak","Weak","white","Self = Positive",984,0.984,1
"289",1,4,1,"Male",24,"Right","Ukrainian","Self","Matching","Self","Self","Self","k","Bottom",2,"SelfWeak","Weak","white","Self = Positive",1017,1.017,0
"290",1,4,2,"Male",24,"Right","Ukrainian","Self","Matching","Self","Self","Self","l","Top",2,"SelfWeak","Weak","white","Self = Positive",800,0.8,1
"291",1,4,3,"Male",24,"Right","Ukrainian","Stranger","Matching","Stranger","Stranger","Stranger","l","Bottom",1,"StrangerStrong","Strong","white","Self = Positive",850,0.85,1
"292",1,4,4,"Male",24,"Right","Ukrainian","Self","Nonmatching","Stranger","Stranger","Stranger","k","Bottom",2,"SelfWeak","Weak","white","Self = Positive",984,0.984,1
"293",1,4,5,"Male",24,"Right","Ukrainian","Stranger","Matching","Stranger","Stranger","Stranger","l","Bottom",1,"StrangerStrong","Strong","white","Self = Positive",950,0.95,1
"294",1,4,6,"Male",24,"Right","Ukrainian","Self","Matching","Self","Self","Self","l","Bottom",1,"SelfStrong","Strong","white","Self = Positive",950,0.95,1
"295",1,4,7,"Male",24,"Right","Ukrainian","Self","Matching","Self","Self","Self","l","Bottom",1,"SelfStrong","Strong","white","Self = Positive",917,0.917,1
"296",1,4,8,"Male",24,"Right","Ukrainian","Self","Nonmatching","Stranger","Stranger","Stranger","k","Bottom",1,"SelfStrong","Strong","white","Self = Positive",984,0.984,1
"297",1,4,9,"Male",24,"Right","Ukrainian","Self","Matching","Self","Self","Self","l","Bottom",1,"SelfStrong","Strong","white","Self = Positive",767,0.767,1
"298",1,4,10,"Male",24,"Right","Ukrainian","Self","Nonmatching","Stranger","Stranger","Stranger","l","Bottom",1,"SelfStrong","Strong","white","Self = Positive",1317,1.317,0
"299",1,4,11,"Male",24,"Right","Ukrainian","Self","Matching","Self","Self","Self","l","Top",1,"SelfStrong","Strong","white","Self = Positive",1017,1.017,1
"300",1,4,12,"Male",24,"Right","Ukrainian","Self","Matching","Self","Self","Self","l","Top",2,"SelfWeak","Weak","white","Self = Positive",1017,1.017,1
"301",1,4,13,"Male",24,"Right","Ukrainian","Self","Nonmatching","Stranger","Stranger","Stranger","k","Top",2,"SelfWeak","Weak","white","Self = Positive",867,0.867,1
"302",1,4,14,"Male",24,"Right","Ukrainian","Self","Nonmatching","Stranger","Stranger","Stranger","k","Bottom",2,"SelfWeak","Weak","white","Self = Positive",1617,1.617,1
"303",1,4,15,"Male",24,"Right","Ukrainian","Stranger","Nonmatching","Self","Self","Self","k","Top",2,"StrangerWeak","Weak","white","Self = Positive",867,0.867,1
"304",1,4,16,"Male",24,"Right","Ukrainian","Stranger","Nonmatching","Self","Self","Self","k","Top",1,"StrangerStrong","Strong","white","Self = Positive",1267,1.267,1
"305",1,4,17,"Male",24,"Right","Ukrainian","Stranger","Matching","Stranger","Stranger","Stranger","l","Top",2,"StrangerWeak","Weak","white","Self = Positive",1017,1.017,1
"306",1,4,18,"Male",24,"Right","Ukrainian","Stranger","Matching","Stranger","Stranger","Stranger","l","Top",1,"StrangerStrong","Strong","white","Self = Positive",1217,1.217,1
"307",1,4,19,"Male",24,"Right","Ukrainian","Stranger","Matching","Stranger","Stranger","Stranger","l","Bottom",2,"StrangerWeak","Weak","white","Self = Positive",1467,1.467,1
"308",1,4,20,"Male",24,"Right","Ukrainian","Self","Nonmatching","Stranger","Stranger","Stranger","None","Top",1,"SelfStrong","Strong","white","Self = Positive",NA,NA,3
"309",1,4,21,"Male",24,"Right","Ukrainian","Self","Nonmatching","Stranger","Stranger","Stranger","k","Bottom",1,"SelfStrong","Strong","white","Self = Positive",1150,1.15,1
"310",1,4,22,"Male",24,"Right","Ukrainian","Stranger","Nonmatching","Self","Self","Self","k","Bottom",1,"StrangerStrong","Strong","white","Self = Positive",867,0.867,1
"311",1,4,23,"Male",24,"Right","Ukrainian","Stranger","Matching","Stranger","Stranger","Stranger","l","Bottom",2,"StrangerWeak","Weak","white","Self = Positive",1134,1.134,1
"312",1,4,24,"Male",24,"Right","Ukrainian","Self","Matching","Self","Self","Self","l","Bottom",1,"SelfStrong","Strong","white","Self = Positive",1234,1.234,1
"313",1,4,25,"Male",24,"Right","Ukrainian","Self","Matching","Self","Self","Self","k","Bottom",2,"SelfWeak","Weak","white","Self = Positive",1317,1.317,0
"314",1,4,26,"Male",24,"Right","Ukrainian","Stranger","Matching","Stranger","Stranger","Stranger","l","Top",2,"StrangerWeak","Weak","white","Self = Positive",1117,1.117,1
"315",1,4,27,"Male",24,"Right","Ukrainian","Stranger","Nonmatching","Self","Self","Self","k","Top",1,"StrangerStrong","Strong","white","Self = Positive",1200,1.2,1
"316",1,4,28,"Male",24,"Right","Ukrainian","Stranger","Nonmatching","Self","Self","Self","k","Bottom",2,"StrangerWeak","Weak","white","Self = Positive",1300,1.3,1
"317",1,4,29,"Male",24,"Right","Ukrainian","Stranger","Nonmatching","Self","Self","Self","k","Top",2,"StrangerWeak","Weak","white","Self = Positive",934,0.934,1
"318",1,4,30,"Male",24,"Right","Ukrainian","Stranger","Nonmatching","Self","Self","Self","k","Top",1,"StrangerStrong","Strong","white","Self = Positive",817,0.817,1
"319",1,4,31,"Male",24,"Right","Ukrainian","Self","Matching","Self","Self","Self","l","Top",2,"SelfWeak","Weak","white","Self = Positive",869,0.869,1
"320",1,4,32,"Male",24,"Right","Ukrainian","Self","Nonmatching","Stranger","Stranger","Stranger","k","Top",2,"SelfWeak","Weak","white","Self = Positive",817,0.817,1
"321",1,4,33,"Male",24,"Right","Ukrainian","Self","Nonmatching","Stranger","Stranger","Stranger","k","Bottom",2,"SelfWeak","Weak","white","Self = Positive",1100,1.1,1
"322",1,4,34,"Male",24,"Right","Ukrainian","Stranger","Matching","Stranger","Stranger","Stranger","l","Top",2,"StrangerWeak","Weak","white","Self = Positive",1034,1.034,1
"323",1,4,35,"Male",24,"Right","Ukrainian","Self","Matching","Self","Self","Self","l","Top",2,"SelfWeak","Weak","white","Self = Positive",1200,1.2,1
"324",1,4,36,"Male",24,"Right","Ukrainian","Stranger","Matching","Stranger","Stranger","Stranger","l","Top",1,"StrangerStrong","Strong","white","Self = Positive",1017,1.017,1
"325",1,4,37,"Male",24,"Right","Ukrainian","Self","Nonmatching","Stranger","Stranger","Stranger","k","Bottom",1,"SelfStrong","Strong","white","Self = Positive",967,0.967,1
"326",1,4,38,"Male",24,"Right","Ukrainian","Stranger","Matching","Stranger","Stranger","Stranger","l","Bottom",1,"StrangerStrong","Strong","white","Self = Positive",1317,1.317,1
"327",1,4,39,"Male",24,"Right","Ukrainian","Self","Nonmatching","Stranger","Stranger","Stranger","k","Top",1,"SelfStrong","Strong","white","Self = Positive",850,0.85,1
"328",1,4,40,"Male",24,"Right","Ukrainian","Stranger","Nonmatching","Self","Self","Self","k","Bottom",2,"StrangerWeak","Weak","white","Self = Positive",984,0.984,1
"329",1,4,41,"Male",24,"Right","Ukrainian","Stranger","Nonmatching","Self","Self","Self","k","Top",1,"StrangerStrong","Strong","white","Self = Positive",1400,1.4,1
"330",1,4,42,"Male",24,"Right","Ukrainian","Stranger","Nonmatching","Self","Self","Self","k","Bottom",1,"StrangerStrong","Strong","white","Self = Positive",817,0.817,1
"331",1,4,43,"Male",24,"Right","Ukrainian","Stranger","Matching","Stranger","Stranger","Stranger","l","Bottom",2,"StrangerWeak","Weak","white","Self = Positive",1450,1.45,1
"332",1,4,44,"Male",24,"Right","Ukrainian","Self","Nonmatching","Stranger","Stranger","Stranger","k","Bottom",2,"SelfWeak","Weak","white","Self = Positive",1200,1.2,1
"333",1,4,45,"Male",24,"Right","Ukrainian","Stranger","Nonmatching","Self","Self","Self","k","Bottom",2,"StrangerWeak","Weak","white","Self = Positive",1384,1.384,1
"334",1,4,46,"Male",24,"Right","Ukrainian","Self","Nonmatching","Stranger","Stranger","Stranger","k","Top",1,"SelfStrong","Strong","white","Self = Positive",917,0.917,1
"335",1,4,47,"Male",24,"Right","Ukrainian","Stranger","Nonmatching","Self","Self","Self","k","Top",1,"StrangerStrong","Strong","white","Self = Positive",1284,1.284,1
"336",1,4,48,"Male",24,"Right","Ukrainian","Self","Matching","Self","Self","Self","l","Bottom",2,"SelfWeak","Weak","white","Self = Positive",1015,1.015,1
"337",1,4,49,"Male",24,"Right","Ukrainian","Self","Matching","Self","Self","Self","l","Bottom",2,"SelfWeak","Weak","white","Self = Positive",684,0.684,1
"338",1,4,50,"Male",24,"Right","Ukrainian","Self","Nonmatching","Stranger","Stranger","Stranger","k","Bottom",1,"SelfStrong","Strong","white","Self = Positive",817,0.817,1
"339",1,4,51,"Male",24,"Right","Ukrainian","Stranger","Matching","Stranger","Stranger","Stranger","l","Bottom",1,"StrangerStrong","Strong","white","Self = Positive",917,0.917,1
"340",1,4,52,"Male",24,"Right","Ukrainian","Self","Matching","Self","Self","Self","k","Top",2,"SelfWeak","Weak","white","Self = Positive",1650,1.65,0
"341",1,4,53,"Male",24,"Right","Ukrainian","Self","Matching","Self","Self","Self","l","Top",1,"SelfStrong","Strong","white","Self = Positive",700,0.7,1
"342",1,4,54,"Male",24,"Right","Ukrainian","Self","Nonmatching","Stranger","Stranger","Stranger","k","Top",1,"SelfStrong","Strong","white","Self = Positive",984,0.984,1
"343",1,4,55,"Male",24,"Right","Ukrainian","Stranger","Matching","Stranger","Stranger","Stranger","l","Bottom",2,"StrangerWeak","Weak","white","Self = Positive",1135,1.135,1
"344",1,4,56,"Male",24,"Right","Ukrainian","Stranger","Nonmatching","Self","Self","Self","k","Top",2,"StrangerWeak","Weak","white","Self = Positive",1267,1.267,1
"345",1,4,57,"Male",24,"Right","Ukrainian","Stranger","Matching","Stranger","Stranger","Stranger","l","Bottom",1,"StrangerStrong","Strong","white","Self = Positive",900,0.9,1
"346",1,4,58,"Male",24,"Right","Ukrainian","Self","Nonmatching","Stranger","Stranger","Stranger","k","Top",2,"SelfWeak","Weak","white","Self = Positive",1067,1.067,1
"347",1,4,59,"Male",24,"Right","Ukrainian","Self","Nonmatching","Stranger","Stranger","Stranger","k","Bottom",2,"SelfWeak","Weak","white","Self = Positive",800,0.8,1
"348",1,4,60,"Male",24,"Right","Ukrainian","Self","Matching","Self","Self","Self","l","Top",1,"SelfStrong","Strong","white","Self = Positive",917,0.917,1
"349",1,4,61,"Male",24,"Right","Ukrainian","Self","Matching","Self","Self","Self","l","Top",1,"SelfStrong","Strong","white","Self = Positive",950,0.95,1
"350",1,4,62,"Male",24,"Right","Ukrainian","Stranger","Matching","Stranger","Stranger","Stranger","l","Bottom",1,"StrangerStrong","Strong","white","Self = Positive",1550,1.55,1
"351",1,4,63,"Male",24,"Right","Ukrainian","Stranger","Nonmatching","Self","Self","Self","k","Top",1,"StrangerStrong","Strong","white","Self = Positive",817,0.817,1
"352",1,4,64,"Male",24,"Right","Ukrainian","Stranger","Matching","Stranger","Stranger","Stranger","l","Top",2,"StrangerWeak","Weak","white","Self = Positive",1234,1.234,1
"353",1,4,65,"Male",24,"Right","Ukrainian","Self","Nonmatching","Stranger","Stranger","Stranger","k","Top",2,"SelfWeak","Weak","white","Self = Positive",867,0.867,1
"354",1,4,66,"Male",24,"Right","Ukrainian","Stranger","Matching","Stranger","Stranger","Stranger","l","Top",1,"StrangerStrong","Strong","white","Self = Positive",884,0.884,1
"355",1,4,67,"Male",24,"Right","Ukrainian","Stranger","Nonmatching","Self","Self","Self","k","Bottom",1,"StrangerStrong","Strong","white","Self = Positive",984,0.984,1
"356",1,4,68,"Male",24,"Right","Ukrainian","Self","Matching","Self","Self","Self","l","Bottom",2,"SelfWeak","Weak","white","Self = Positive",1084,1.084,1
"357",1,4,69,"Male",24,"Right","Ukrainian","Stranger","Matching","Stranger","Stranger","Stranger","l","Top",1,"StrangerStrong","Strong","white","Self = Positive",1117,1.117,1
"358",1,4,70,"Male",24,"Right","Ukrainian","Self","Matching","Self","Self","Self","l","Bottom",1,"SelfStrong","Strong","white","Self = Positive",784,0.784,1
"359",1,4,71,"Male",24,"Right","Ukrainian","Stranger","Matching","Stranger","Stranger","Stranger","l","Top",1,"StrangerStrong","Strong","white","Self = Positive",1100,1.1,1
"360",1,4,72,"Male",24,"Right","Ukrainian","Stranger","Nonmatching","Self","Self","Self","l","Bottom",1,"StrangerStrong","Strong","white","Self = Positive",784,0.784,0
"361",1,4,73,"Male",24,"Right","Ukrainian","Stranger","Matching","Stranger","Stranger","Stranger","l","Top",2,"StrangerWeak","Weak","white","Self = Positive",1432,1.432,1
"362",1,4,74,"Male",24,"Right","Ukrainian","Self","Nonmatching","Stranger","Stranger","Stranger","k","Top",1,"SelfStrong","Strong","white","Self = Positive",850,0.85,1
"363",1,4,75,"Male",24,"Right","Ukrainian","Self","Matching","Self","Self","Self","l","Top",1,"SelfStrong","Strong","white","Self = Positive",800,0.8,1
"364",1,4,76,"Male",24,"Right","Ukrainian","Stranger","Matching","Stranger","Stranger","Stranger","l","Top",1,"StrangerStrong","Strong","white","Self = Positive",1384,1.384,1
"365",1,4,77,"Male",24,"Right","Ukrainian","Stranger","Nonmatching","Self","Self","Self","k","Bottom",2,"StrangerWeak","Weak","white","Self = Positive",1084,1.084,1
"366",1,4,78,"Male",24,"Right","Ukrainian","Stranger","Matching","Stranger","Stranger","Stranger","l","Bottom",2,"StrangerWeak","Weak","white","Self = Positive",1517,1.517,1
"367",1,4,79,"Male",24,"Right","Ukrainian","Stranger","Nonmatching","Self","Self","Self","k","Bottom",2,"StrangerWeak","Weak","white","Self = Positive",884,0.884,1
"368",1,4,80,"Male",24,"Right","Ukrainian","Self","Matching","Self","Self","Self","l","Top",1,"SelfStrong","Strong","white","Self = Positive",934,0.934,1
"369",1,4,81,"Male",24,"Right","Ukrainian","Stranger","Nonmatching","Self","Self","Self","k","Top",2,"StrangerWeak","Weak","white","Self = Positive",900,0.9,1
"370",1,4,82,"Male",24,"Right","Ukrainian","Self","Nonmatching","Stranger","Stranger","Stranger","k","Bottom",2,"SelfWeak","Weak","white","Self = Positive",1317,1.317,1
"371",1,4,83,"Male",24,"Right","Ukrainian","Stranger","Nonmatching","Self","Self","Self","k","Bottom",1,"StrangerStrong","Strong","white","Self = Positive",850,0.85,1
"372",1,4,84,"Male",24,"Right","Ukrainian","Self","Matching","Self","Self","Self","l","Top",2,"SelfWeak","Weak","white","Self = Positive",1100,1.1,1
"373",1,4,85,"Male",24,"Right","Ukrainian","Stranger","Nonmatching","Self","Self","Self","k","Bottom",1,"StrangerStrong","Strong","white","Self = Positive",1034,1.034,1
"374",1,4,86,"Male",24,"Right","Ukrainian","Self","Nonmatching","Stranger","Stranger","Stranger","k","Bottom",1,"SelfStrong","Strong","white","Self = Positive",1184,1.184,1
"375",1,4,87,"Male",24,"Right","Ukrainian","Stranger","Matching","Stranger","Stranger","Stranger","l","Bottom",2,"StrangerWeak","Weak","white","Self = Positive",1684,1.684,1
"376",1,4,88,"Male",24,"Right","Ukrainian","Stranger","Matching","Stranger","Stranger","Stranger","None","Top",2,"StrangerWeak","Weak","white","Self = Positive",NA,NA,3
"377",1,4,89,"Male",24,"Right","Ukrainian","Stranger","Nonmatching","Self","Self","Self","k","Top",2,"StrangerWeak","Weak","white","Self = Positive",1067,1.067,1
"378",1,4,90,"Male",24,"Right","Ukrainian","Self","Nonmatching","Stranger","Stranger","Stranger","None","Top",2,"SelfWeak","Weak","white","Self = Positive",NA,NA,3
"379",1,4,91,"Male",24,"Right","Ukrainian","Stranger","Nonmatching","Self","Self","Self","k","Top",2,"StrangerWeak","Weak","white","Self = Positive",984,0.984,1
"380",1,4,92,"Male",24,"Right","Ukrainian","Self","Matching","Self","Self","Self","l","Bottom",2,"SelfWeak","Weak","white","Self = Positive",850,0.85,1
"381",1,4,93,"Male",24,"Right","Ukrainian","Stranger","Nonmatching","Self","Self","Self","k","Bottom",2,"StrangerWeak","Weak","white","Self = Positive",1234,1.234,1
"382",1,4,94,"Male",24,"Right","Ukrainian","Self","Nonmatching","Stranger","Stranger","Stranger","k","Top",1,"SelfStrong","Strong","white","Self = Positive",1333,1.333,1
"383",1,4,95,"Male",24,"Right","Ukrainian","Self","Matching","Self","Self","Self","l","Bottom",1,"SelfStrong","Strong","white","Self = Positive",750,0.75,1
"384",1,4,96,"Male",24,"Right","Ukrainian","Self","Nonmatching","Stranger","Stranger","Stranger","k","Top",2,"SelfWeak","Weak","white","Self = Positive",982,0.982,1
"385",2,1,1,"Male",32,"Right","Hungarian","Self","Nonmatching","Stranger","Stranger","Stranger","l","Top",1,"SelfStrong","Strong","white","Self = Positive",1050,1.05,1
"386",2,1,2,"Male",32,"Right","Hungarian","Self","Nonmatching","Stranger","Stranger","Stranger","l","Bottom",2,"SelfWeak","Weak","white","Self = Positive",1334,1.334,1
"387",2,1,3,"Male",32,"Right","Hungarian","Self","Matching","Self","Self","Self","l","Top",1,"SelfStrong","Strong","white","Self = Positive",1500,1.5,0
"388",2,1,4,"Male",32,"Right","Hungarian","Stranger","Matching","Stranger","Stranger","Stranger","l","Top",2,"StrangerWeak","Weak","white","Self = Positive",934,0.934,0
"389",2,1,5,"Male",32,"Right","Hungarian","Self","Matching","Self","Self","Self","k","Top",2,"SelfWeak","Weak","white","Self = Positive",834,0.834,1
"390",2,1,6,"Male",32,"Right","Hungarian","Stranger","Nonmatching","Self","Self","Self","k","Top",2,"StrangerWeak","Weak","white","Self = Positive",1267,1.267,0
"391",2,1,7,"Male",32,"Right","Hungarian","Stranger","Nonmatching","Self","Self","Self","l","Top",1,"StrangerStrong","Strong","white","Self = Positive",1300,1.3,1
"392",2,1,8,"Male",32,"Right","Hungarian","Stranger","Matching","Stranger","Stranger","Stranger","l","Bottom",2,"StrangerWeak","Weak","white","Self = Positive",1017,1.017,0
"393",2,1,9,"Male",32,"Right","Hungarian","Stranger","Nonmatching","Self","Self","Self","l","Bottom",1,"StrangerStrong","Strong","white","Self = Positive",1417,1.417,1
"394",2,1,10,"Male",32,"Right","Hungarian","Self","Nonmatching","Stranger","Stranger","Stranger","l","Top",2,"SelfWeak","Weak","white","Self = Positive",1000,1,1
"395",2,1,11,"Male",32,"Right","Hungarian","Stranger","Matching","Stranger","Stranger","Stranger","k","Top",1,"StrangerStrong","Strong","white","Self = Positive",984,0.984,1
"396",2,1,12,"Male",32,"Right","Hungarian","Stranger","Nonmatching","Self","Self","Self","l","Bottom",1,"StrangerStrong","Strong","white","Self = Positive",1067,1.067,1
"397",2,1,13,"Male",32,"Right","Hungarian","Stranger","Matching","Stranger","Stranger","Stranger","k","Top",1,"StrangerStrong","Strong","white","Self = Positive",934,0.934,1
"398",2,1,14,"Male",32,"Right","Hungarian","Self","Matching","Self","Self","Self","k","Bottom",1,"SelfStrong","Strong","white","Self = Positive",1367,1.367,1
"399",2,1,15,"Male",32,"Right","Hungarian","Self","Matching","Self","Self","Self","k","Bottom",1,"SelfStrong","Strong","white","Self = Positive",834,0.834,1
"400",2,1,16,"Male",32,"Right","Hungarian","Self","Matching","Self","Self","Self","k","Bottom",1,"SelfStrong","Strong","white","Self = Positive",867,0.867,1
"401",2,1,17,"Male",32,"Right","Hungarian","Self","Nonmatching","Stranger","Stranger","Stranger","l","Top",1,"SelfStrong","Strong","white","Self = Positive",1017,1.017,1
"402",2,1,18,"Male",32,"Right","Hungarian","Self","Nonmatching","Stranger","Stranger","Stranger","k","Bottom",2,"SelfWeak","Weak","white","Self = Positive",1684,1.684,0
"403",2,1,19,"Male",32,"Right","Hungarian","Self","Matching","Self","Self","Self","k","Bottom",2,"SelfWeak","Weak","white","Self = Positive",1084,1.084,1
"404",2,1,20,"Male",32,"Right","Hungarian","Stranger","Matching","Stranger","Stranger","Stranger","k","Bottom",2,"StrangerWeak","Weak","white","Self = Positive",1084,1.084,1
"405",2,1,21,"Male",32,"Right","Hungarian","Self","Matching","Self","Self","Self","k","Top",2,"SelfWeak","Weak","white","Self = Positive",934,0.934,1
"406",2,1,22,"Male",32,"Right","Hungarian","Self","Nonmatching","Stranger","Stranger","Stranger","l","Bottom",2,"SelfWeak","Weak","white","Self = Positive",900,0.9,1
"407",2,1,23,"Male",32,"Right","Hungarian","Self","Matching","Self","Self","Self","k","Bottom",2,"SelfWeak","Weak","white","Self = Positive",1084,1.084,1
"408",2,1,24,"Male",32,"Right","Hungarian","Stranger","Matching","Stranger","Stranger","Stranger","l","Top",2,"StrangerWeak","Weak","white","Self = Positive",1050,1.05,0
"409",2,1,25,"Male",32,"Right","Hungarian","Stranger","Matching","Stranger","Stranger","Stranger","k","Bottom",1,"StrangerStrong","Strong","white","Self = Positive",1034,1.034,1
"410",2,1,26,"Male",32,"Right","Hungarian","Stranger","Nonmatching","Self","Self","Self","l","Top",1,"StrangerStrong","Strong","white","Self = Positive",1050,1.05,1
"411",2,1,27,"Male",32,"Right","Hungarian","Stranger","Nonmatching","Self","Self","Self","l","Bottom",2,"StrangerWeak","Weak","white","Self = Positive",1050,1.05,1
"412",2,1,28,"Male",32,"Right","Hungarian","Stranger","Nonmatching","Self","Self","Self","l","Bottom",2,"StrangerWeak","Weak","white","Self = Positive",917,0.917,1
"413",2,1,29,"Male",32,"Right","Hungarian","Stranger","Matching","Stranger","Stranger","Stranger","k","Top",2,"StrangerWeak","Weak","white","Self = Positive",984,0.984,1
"414",2,1,30,"Male",32,"Right","Hungarian","Stranger","Matching","Stranger","Stranger","Stranger","l","Bottom",1,"StrangerStrong","Strong","white","Self = Positive",1650,1.65,0
"415",2,1,31,"Male",32,"Right","Hungarian","Self","Matching","Self","Self","Self","k","Top",1,"SelfStrong","Strong","white","Self = Positive",850,0.85,1
"416",2,1,32,"Male",32,"Right","Hungarian","Self","Matching","Self","Self","Self","k","Top",2,"SelfWeak","Weak","white","Self = Positive",1034,1.034,1
"417",2,1,33,"Male",32,"Right","Hungarian","Self","Nonmatching","Stranger","Stranger","Stranger","l","Bottom",1,"SelfStrong","Strong","white","Self = Positive",1217,1.217,1
"418",2,1,34,"Male",32,"Right","Hungarian","Stranger","Matching","Stranger","Stranger","Stranger","k","Top",1,"StrangerStrong","Strong","white","Self = Positive",1000,1,1
"419",2,1,35,"Male",32,"Right","Hungarian","Self","Nonmatching","Stranger","Stranger","Stranger","None","Top",2,"SelfWeak","Weak","white","Self = Positive",NA,NA,3
"420",2,1,36,"Male",32,"Right","Hungarian","Self","Matching","Self","Self","Self","k","Bottom",1,"SelfStrong","Strong","white","Self = Positive",850,0.85,1
"421",2,1,37,"Male",32,"Right","Hungarian","Stranger","Nonmatching","Self","Self","Self","l","Top",1,"StrangerStrong","Strong","white","Self = Positive",900,0.9,1
"422",2,1,38,"Male",32,"Right","Hungarian","Self","Nonmatching","Stranger","Stranger","Stranger","l","Top",2,"SelfWeak","Weak","white","Self = Positive",1185,1.185,1
"423",2,1,39,"Male",32,"Right","Hungarian","Self","Nonmatching","Stranger","Stranger","Stranger","l","Bottom",1,"SelfStrong","Strong","white","Self = Positive",1034,1.034,1
"424",2,1,40,"Male",32,"Right","Hungarian","Self","Nonmatching","Stranger","Stranger","Stranger","l","Top",2,"SelfWeak","Weak","white","Self = Positive",967,0.967,1
"425",2,1,41,"Male",32,"Right","Hungarian","Stranger","Nonmatching","Self","Self","Self","l","Bottom",2,"StrangerWeak","Weak","white","Self = Positive",1050,1.05,1
"426",2,1,42,"Male",32,"Right","Hungarian","Stranger","Nonmatching","Self","Self","Self","l","Bottom",2,"StrangerWeak","Weak","white","Self = Positive",884,0.884,1
"427",2,1,43,"Male",32,"Right","Hungarian","Stranger","Nonmatching","Self","Self","Self","l","Top",1,"StrangerStrong","Strong","white","Self = Positive",1050,1.05,1
"428",2,1,44,"Male",32,"Right","Hungarian","Stranger","Matching","Stranger","Stranger","Stranger","k","Bottom",1,"StrangerStrong","Strong","white","Self = Positive",950,0.95,1
"429",2,1,45,"Male",32,"Right","Hungarian","Self","Nonmatching","Stranger","Stranger","Stranger","k","Bottom",2,"SelfWeak","Weak","white","Self = Positive",1067,1.067,0
"430",2,1,46,"Male",32,"Right","Hungarian","Stranger","Matching","Stranger","Stranger","Stranger","l","Bottom",2,"StrangerWeak","Weak","white","Self = Positive",1584,1.584,0
"431",2,1,47,"Male",32,"Right","Hungarian","Self","Matching","Self","Self","Self","k","Top",2,"SelfWeak","Weak","white","Self = Positive",1017,1.017,1
"432",2,1,48,"Male",32,"Right","Hungarian","Stranger","Matching","Stranger","Stranger","Stranger","l","Top",2,"StrangerWeak","Weak","white","Self = Positive",1134,1.134,0
"433",2,1,49,"Male",32,"Right","Hungarian","Stranger","Matching","Stranger","Stranger","Stranger","k","Bottom",1,"StrangerStrong","Strong","white","Self = Positive",1334,1.334,1
"434",2,1,50,"Male",32,"Right","Hungarian","Self","Nonmatching","Stranger","Stranger","Stranger","l","Bottom",1,"SelfStrong","Strong","white","Self = Positive",884,0.884,1
"435",2,1,51,"Male",32,"Right","Hungarian","Self","Nonmatching","Stranger","Stranger","Stranger","l","Top",2,"SelfWeak","Weak","white","Self = Positive",1117,1.117,1
"436",2,1,52,"Male",32,"Right","Hungarian","Stranger","Matching","Stranger","Stranger","Stranger","k","Bottom",1,"StrangerStrong","Strong","white","Self = Positive",884,0.884,1
"437",2,1,53,"Male",32,"Right","Hungarian","Self","Nonmatching","Stranger","Stranger","Stranger","l","Top",1,"SelfStrong","Strong","white","Self = Positive",934,0.934,1
"438",2,1,54,"Male",32,"Right","Hungarian","Stranger","Matching","Stranger","Stranger","Stranger","k","Bottom",2,"StrangerWeak","Weak","white","Self = Positive",1067,1.067,1
"439",2,1,55,"Male",32,"Right","Hungarian","Self","Matching","Self","Self","Self","k","Bottom",2,"SelfWeak","Weak","white","Self = Positive",934,0.934,1
"440",2,1,56,"Male",32,"Right","Hungarian","Stranger","Nonmatching","Self","Self","Self","k","Top",2,"StrangerWeak","Weak","white","Self = Positive",1200,1.2,0
"441",2,1,57,"Male",32,"Right","Hungarian","Stranger","Matching","Stranger","Stranger","Stranger","l","Top",1,"StrangerStrong","Strong","white","Self = Positive",834,0.834,0
"442",2,1,58,"Male",32,"Right","Hungarian","Self","Matching","Self","Self","Self","k","Top",2,"SelfWeak","Weak","white","Self = Positive",834,0.834,1
"443",2,1,59,"Male",32,"Right","Hungarian","Self","Nonmatching","Stranger","Stranger","Stranger","l","Bottom",2,"SelfWeak","Weak","white","Self = Positive",984,0.984,1
"444",2,1,60,"Male",32,"Right","Hungarian","Stranger","Matching","Stranger","Stranger","Stranger","k","Top",1,"StrangerStrong","Strong","white","Self = Positive",867,0.867,1
"445",2,1,61,"Male",32,"Right","Hungarian","Self","Nonmatching","Stranger","Stranger","Stranger","l","Top",1,"SelfStrong","Strong","white","Self = Positive",1383,1.383,1
"446",2,1,62,"Male",32,"Right","Hungarian","Self","Nonmatching","Stranger","Stranger","Stranger","k","Bottom",1,"SelfStrong","Strong","white","Self = Positive",1500,1.5,0
"447",2,1,63,"Male",32,"Right","Hungarian","Self","Matching","Self","Self","Self","k","Top",1,"SelfStrong","Strong","white","Self = Positive",750,0.75,1
"448",2,1,64,"Male",32,"Right","Hungarian","Self","Matching","Self","Self","Self","k","Bottom",2,"SelfWeak","Weak","white","Self = Positive",867,0.867,1
"449",2,1,65,"Male",32,"Right","Hungarian","Self","Matching","Self","Self","Self","k","Top",1,"SelfStrong","Strong","white","Self = Positive",767,0.767,1
"450",2,1,66,"Male",32,"Right","Hungarian","Stranger","Matching","Stranger","Stranger","Stranger","l","Top",2,"StrangerWeak","Weak","white","Self = Positive",750,0.75,0
"451",2,1,67,"Male",32,"Right","Hungarian","Stranger","Matching","Stranger","Stranger","Stranger","k","Top",1,"StrangerStrong","Strong","white","Self = Positive",784,0.784,1
"452",2,1,68,"Male",32,"Right","Hungarian","Stranger","Matching","Stranger","Stranger","Stranger","k","Bottom",2,"StrangerWeak","Weak","white","Self = Positive",1250,1.25,1
"453",2,1,69,"Male",32,"Right","Hungarian","Stranger","Matching","Stranger","Stranger","Stranger","k","Bottom",2,"StrangerWeak","Weak","white","Self = Positive",734,0.734,1
"454",2,1,70,"Male",32,"Right","Hungarian","Self","Matching","Self","Self","Self","k","Top",2,"SelfWeak","Weak","white","Self = Positive",700,0.7,1
"455",2,1,71,"Male",32,"Right","Hungarian","Stranger","Nonmatching","Self","Self","Self","l","Bottom",1,"StrangerStrong","Strong","white","Self = Positive",867,0.867,1
"456",2,1,72,"Male",32,"Right","Hungarian","Stranger","Nonmatching","Self","Self","Self","l","Bottom",2,"StrangerWeak","Weak","white","Self = Positive",900,0.9,1
"457",2,1,73,"Male",32,"Right","Hungarian","Self","Matching","Self","Self","Self","k","Bottom",2,"SelfWeak","Weak","white","Self = Positive",700,0.7,1
"458",2,1,74,"Male",32,"Right","Hungarian","Stranger","Nonmatching","Self","Self","Self","l","Top",2,"StrangerWeak","Weak","white","Self = Positive",967,0.967,1
"459",2,1,75,"Male",32,"Right","Hungarian","Stranger","Nonmatching","Self","Self","Self","l","Bottom",1,"StrangerStrong","Strong","white","Self = Positive",634,0.634,1
"460",2,1,76,"Male",32,"Right","Hungarian","Self","Matching","Self","Self","Self","k","Bottom",1,"SelfStrong","Strong","white","Self = Positive",800,0.8,1
"461",2,1,77,"Male",32,"Right","Hungarian","Self","Matching","Self","Self","Self","k","Top",1,"SelfStrong","Strong","white","Self = Positive",684,0.684,1
"462",2,1,78,"Male",32,"Right","Hungarian","Self","Nonmatching","Stranger","Stranger","Stranger","l","Top",2,"SelfWeak","Weak","white","Self = Positive",1100,1.1,1
"463",2,1,79,"Male",32,"Right","Hungarian","Stranger","Nonmatching","Self","Self","Self","l","Top",2,"StrangerWeak","Weak","white","Self = Positive",784,0.784,1
"464",2,1,80,"Male",32,"Right","Hungarian","Stranger","Nonmatching","Self","Self","Self","l","Top",1,"StrangerStrong","Strong","white","Self = Positive",750,0.75,1
"465",2,1,81,"Male",32,"Right","Hungarian","Stranger","Matching","Stranger","Stranger","Stranger","k","Bottom",1,"StrangerStrong","Strong","white","Self = Positive",867,0.867,1
"466",2,1,82,"Male",32,"Right","Hungarian","Self","Matching","Self","Self","Self","k","Bottom",2,"SelfWeak","Weak","white","Self = Positive",784,0.784,1
"467",2,1,83,"Male",32,"Right","Hungarian","Stranger","Matching","Stranger","Stranger","Stranger","k","Top",2,"StrangerWeak","Weak","white","Self = Positive",834,0.834,1
"468",2,1,84,"Male",32,"Right","Hungarian","Stranger","Nonmatching","Self","Self","Self","l","Top",2,"StrangerWeak","Weak","white","Self = Positive",850,0.85,1
"469",2,1,85,"Male",32,"Right","Hungarian","Stranger","Nonmatching","Self","Self","Self","l","Bottom",2,"StrangerWeak","Weak","white","Self = Positive",1100,1.1,1
"470",2,1,86,"Male",32,"Right","Hungarian","Self","Matching","Self","Self","Self","k","Bottom",1,"SelfStrong","Strong","white","Self = Positive",717,0.717,1
"471",2,1,87,"Male",32,"Right","Hungarian","Self","Nonmatching","Stranger","Stranger","Stranger","l","Top",1,"SelfStrong","Strong","white","Self = Positive",1034,1.034,1
"472",2,1,88,"Male",32,"Right","Hungarian","Stranger","Nonmatching","Self","Self","Self","l","Bottom",1,"StrangerStrong","Strong","white","Self = Positive",1034,1.034,1
"473",2,1,89,"Male",32,"Right","Hungarian","Stranger","Nonmatching","Self","Self","Self","l","Bottom",1,"StrangerStrong","Strong","white","Self = Positive",802,0.802,1
"474",2,1,90,"Male",32,"Right","Hungarian","Self","Nonmatching","Stranger","Stranger","Stranger","k","Top",1,"SelfStrong","Strong","white","Self = Positive",784,0.784,0
"475",2,1,91,"Male",32,"Right","Hungarian","Stranger","Nonmatching","Self","Self","Self","l","Top",1,"StrangerStrong","Strong","white","Self = Positive",1217,1.217,1
"476",2,1,92,"Male",32,"Right","Hungarian","Self","Matching","Self","Self","Self","k","Top",1,"SelfStrong","Strong","white","Self = Positive",817,0.817,1
"477",2,1,93,"Male",32,"Right","Hungarian","Stranger","Nonmatching","Self","Self","Self","l","Top",2,"StrangerWeak","Weak","white","Self = Positive",1067,1.067,1
"478",2,1,94,"Male",32,"Right","Hungarian","Self","Nonmatching","Stranger","Stranger","Stranger","l","Bottom",1,"SelfStrong","Strong","white","Self = Positive",1134,1.134,1
"479",2,1,95,"Male",32,"Right","Hungarian","Self","Nonmatching","Stranger","Stranger","Stranger","l","Bottom",2,"SelfWeak","Weak","white","Self = Positive",900,0.9,1
"480",2,1,96,"Male",32,"Right","Hungarian","Self","Nonmatching","Stranger","Stranger","Stranger","l","Bottom",1,"SelfStrong","Strong","white","Self = Positive",734,0.734,1
"481",2,2,1,"Male",32,"Right","Hungarian","Self","Matching","Self","Self","Self","k","Bottom",1,"SelfStrong","Strong","white","Self = Positive",732,0.732,1
"482",2,2,2,"Male",32,"Right","Hungarian","Stranger","Matching","Stranger","Stranger","Stranger","k","Top",2,"StrangerWeak","Weak","white","Self = Positive",750,0.75,1
"483",2,2,3,"Male",32,"Right","Hungarian","Self","Nonmatching","Stranger","Stranger","Stranger","l","Top",1,"SelfStrong","Strong","white","Self = Positive",767,0.767,1
"484",2,2,4,"Male",32,"Right","Hungarian","Stranger","Nonmatching","Self","Self","Self","l","Top",2,"StrangerWeak","Weak","white","Self = Positive",1000,1,1
"485",2,2,5,"Male",32,"Right","Hungarian","Self","Nonmatching","Stranger","Stranger","Stranger","l","Bottom",1,"SelfStrong","Strong","white","Self = Positive",767,0.767,1
"486",2,2,6,"Male",32,"Right","Hungarian","Self","Matching","Self","Self","Self","k","Bottom",2,"SelfWeak","Weak","white","Self = Positive",1184,1.184,1
"487",2,2,7,"Male",32,"Right","Hungarian","Self","Matching","Self","Self","Self","k","Bottom",1,"SelfStrong","Strong","white","Self = Positive",734,0.734,1
"488",2,2,8,"Male",32,"Right","Hungarian","Stranger","Matching","Stranger","Stranger","Stranger","k","Bottom",1,"StrangerStrong","Strong","white","Self = Positive",850,0.85,1
"489",2,2,9,"Male",32,"Right","Hungarian","Self","Matching","Self","Self","Self","k","Top",1,"SelfStrong","Strong","white","Self = Positive",750,0.75,1
"490",2,2,10,"Male",32,"Right","Hungarian","Stranger","Matching","Stranger","Stranger","Stranger","l","Bottom",1,"StrangerStrong","Strong","white","Self = Positive",1084,1.084,0
"491",2,2,11,"Male",32,"Right","Hungarian","Self","Matching","Self","Self","Self","k","Bottom",2,"SelfWeak","Weak","white","Self = Positive",900,0.9,1
"492",2,2,12,"Male",32,"Right","Hungarian","Stranger","Nonmatching","Self","Self","Self","l","Bottom",2,"StrangerWeak","Weak","white","Self = Positive",984,0.984,1
"493",2,2,13,"Male",32,"Right","Hungarian","Stranger","Nonmatching","Self","Self","Self","l","Bottom",1,"StrangerStrong","Strong","white","Self = Positive",984,0.984,1
"494",2,2,14,"Male",32,"Right","Hungarian","Stranger","Matching","Stranger","Stranger","Stranger","k","Bottom",1,"StrangerStrong","Strong","white","Self = Positive",800,0.8,1
"495",2,2,15,"Male",32,"Right","Hungarian","Stranger","Nonmatching","Self","Self","Self","k","Top",2,"StrangerWeak","Weak","white","Self = Positive",1017,1.017,0
"496",2,2,16,"Male",32,"Right","Hungarian","Stranger","Nonmatching","Self","Self","Self","l","Top",1,"StrangerStrong","Strong","white","Self = Positive",817,0.817,1
"497",2,2,17,"Male",32,"Right","Hungarian","Stranger","Matching","Stranger","Stranger","Stranger","k","Bottom",2,"StrangerWeak","Weak","white","Self = Positive",1050,1.05,1
"498",2,2,18,"Male",32,"Right","Hungarian","Self","Matching","Self","Self","Self","k","Bottom",1,"SelfStrong","Strong","white","Self = Positive",867,0.867,1
"499",2,2,19,"Male",32,"Right","Hungarian","Self","Matching","Self","Self","Self","k","Top",1,"SelfStrong","Strong","white","Self = Positive",800,0.8,1
"500",2,2,20,"Male",32,"Right","Hungarian","Self","Nonmatching","Stranger","Stranger","Stranger","l","Bottom",1,"SelfStrong","Strong","white","Self = Positive",834,0.834,1
"501",2,2,21,"Male",32,"Right","Hungarian","Stranger","Matching","Stranger","Stranger","Stranger","k","Bottom",1,"StrangerStrong","Strong","white","Self = Positive",784,0.784,1
"502",2,2,22,"Male",32,"Right","Hungarian","Self","Nonmatching","Stranger","Stranger","Stranger","l","Top",1,"SelfStrong","Strong","white","Self = Positive",834,0.834,1
"503",2,2,23,"Male",32,"Right","Hungarian","Self","Nonmatching","Stranger","Stranger","Stranger","l","Bottom",2,"SelfWeak","Weak","white","Self = Positive",1000,1,1
"504",2,2,24,"Male",32,"Right","Hungarian","Stranger","Matching","Stranger","Stranger","Stranger","k","Top",2,"StrangerWeak","Weak","white","Self = Positive",834,0.834,1
"505",2,2,25,"Male",32,"Right","Hungarian","Self","Matching","Self","Self","Self","k","Top",2,"SelfWeak","Weak","white","Self = Positive",984,0.984,1
"506",2,2,26,"Male",32,"Right","Hungarian","Self","Nonmatching","Stranger","Stranger","Stranger","l","Bottom",2,"SelfWeak","Weak","white","Self = Positive",934,0.934,1
"507",2,2,27,"Male",32,"Right","Hungarian","Stranger","Matching","Stranger","Stranger","Stranger","k","Top",1,"StrangerStrong","Strong","white","Self = Positive",834,0.834,1
"508",2,2,28,"Male",32,"Right","Hungarian","Self","Matching","Self","Self","Self","k","Bottom",2,"SelfWeak","Weak","white","Self = Positive",800,0.8,1
"509",2,2,29,"Male",32,"Right","Hungarian","Self","Nonmatching","Stranger","Stranger","Stranger","l","Top",1,"SelfStrong","Strong","white","Self = Positive",750,0.75,1
"510",2,2,30,"Male",32,"Right","Hungarian","Stranger","Nonmatching","Self","Self","Self","l","Bottom",2,"StrangerWeak","Weak","white","Self = Positive",1117,1.117,1
"511",2,2,31,"Male",32,"Right","Hungarian","Self","Matching","Self","Self","Self","k","Top",1,"SelfStrong","Strong","white","Self = Positive",700,0.7,1
"512",2,2,32,"Male",32,"Right","Hungarian","Stranger","Matching","Stranger","Stranger","Stranger","l","Bottom",2,"StrangerWeak","Weak","white","Self = Positive",634,0.634,0
"513",2,2,33,"Male",32,"Right","Hungarian","Self","Nonmatching","Stranger","Stranger","Stranger","l","Top",1,"SelfStrong","Strong","white","Self = Positive",967,0.967,1
"514",2,2,34,"Male",32,"Right","Hungarian","Self","Matching","Self","Self","Self","k","Top",1,"SelfStrong","Strong","white","Self = Positive",750,0.75,1
"515",2,2,35,"Male",32,"Right","Hungarian","Self","Matching","Self","Self","Self","k","Top",2,"SelfWeak","Weak","white","Self = Positive",869,0.869,1
"516",2,2,36,"Male",32,"Right","Hungarian","Stranger","Matching","Stranger","Stranger","Stranger","k","Bottom",2,"StrangerWeak","Weak","white","Self = Positive",784,0.784,1
"517",2,2,37,"Male",32,"Right","Hungarian","Stranger","Nonmatching","Self","Self","Self","l","Bottom",2,"StrangerWeak","Weak","white","Self = Positive",734,0.734,1
"518",2,2,38,"Male",32,"Right","Hungarian","Self","Nonmatching","Stranger","Stranger","Stranger","l","Top",2,"SelfWeak","Weak","white","Self = Positive",1317,1.317,1
"519",2,2,39,"Male",32,"Right","Hungarian","Stranger","Nonmatching","Self","Self","Self","l","Bottom",1,"StrangerStrong","Strong","white","Self = Positive",967,0.967,1
"520",2,2,40,"Male",32,"Right","Hungarian","Stranger","Nonmatching","Self","Self","Self","l","Top",2,"StrangerWeak","Weak","white","Self = Positive",684,0.684,1
"521",2,2,41,"Male",32,"Right","Hungarian","Stranger","Matching","Stranger","Stranger","Stranger","k","Top",2,"StrangerWeak","Weak","white","Self = Positive",817,0.817,1
"522",2,2,42,"Male",32,"Right","Hungarian","Stranger","Nonmatching","Self","Self","Self","l","Top",2,"StrangerWeak","Weak","white","Self = Positive",817,0.817,1
"523",2,2,43,"Male",32,"Right","Hungarian","Self","Nonmatching","Stranger","Stranger","Stranger","l","Bottom",1,"SelfStrong","Strong","white","Self = Positive",950,0.95,1
"524",2,2,44,"Male",32,"Right","Hungarian","Stranger","Nonmatching","Self","Self","Self","l","Top",1,"StrangerStrong","Strong","white","Self = Positive",684,0.684,1
"525",2,2,45,"Male",32,"Right","Hungarian","Stranger","Matching","Stranger","Stranger","Stranger","k","Top",1,"StrangerStrong","Strong","white","Self = Positive",750,0.75,1
"526",2,2,46,"Male",32,"Right","Hungarian","Self","Nonmatching","Stranger","Stranger","Stranger","l","Bottom",2,"SelfWeak","Weak","white","Self = Positive",917,0.917,1
"527",2,2,47,"Male",32,"Right","Hungarian","Stranger","Nonmatching","Self","Self","Self","l","Top",1,"StrangerStrong","Strong","white","Self = Positive",684,0.684,1
"528",2,2,48,"Male",32,"Right","Hungarian","Self","Nonmatching","Stranger","Stranger","Stranger","l","Top",2,"SelfWeak","Weak","white","Self = Positive",1034,1.034,1
"529",2,2,49,"Male",32,"Right","Hungarian","Self","Matching","Self","Self","Self","l","Bottom",2,"SelfWeak","Weak","white","Self = Positive",934,0.934,0
"530",2,2,50,"Male",32,"Right","Hungarian","Self","Nonmatching","Stranger","Stranger","Stranger","l","Bottom",1,"SelfStrong","Strong","white","Self = Positive",750,0.75,1
"531",2,2,51,"Male",32,"Right","Hungarian","Stranger","Matching","Stranger","Stranger","Stranger","k","Top",1,"StrangerStrong","Strong","white","Self = Positive",717,0.717,1
"532",2,2,52,"Male",32,"Right","Hungarian","Stranger","Nonmatching","Self","Self","Self","l","Bottom",2,"StrangerWeak","Weak","white","Self = Positive",717,0.717,1
"533",2,2,53,"Male",32,"Right","Hungarian","Stranger","Matching","Stranger","Stranger","Stranger","k","Top",2,"StrangerWeak","Weak","white","Self = Positive",850,0.85,1
"534",2,2,54,"Male",32,"Right","Hungarian","Stranger","Matching","Stranger","Stranger","Stranger","k","Bottom",2,"StrangerWeak","Weak","white","Self = Positive",767,0.767,1
"535",2,2,55,"Male",32,"Right","Hungarian","Stranger","Nonmatching","Self","Self","Self","l","Top",1,"StrangerStrong","Strong","white","Self = Positive",684,0.684,1
"536",2,2,56,"Male",32,"Right","Hungarian","Self","Nonmatching","Stranger","Stranger","Stranger","l","Bottom",1,"SelfStrong","Strong","white","Self = Positive",784,0.784,1
"537",2,2,57,"Male",32,"Right","Hungarian","Stranger","Matching","Stranger","Stranger","Stranger","k","Top",2,"StrangerWeak","Weak","white","Self = Positive",784,0.784,1
"538",2,2,58,"Male",32,"Right","Hungarian","Self","Matching","Self","Self","Self","k","Top",1,"SelfStrong","Strong","white","Self = Positive",1084,1.084,1
"539",2,2,59,"Male",32,"Right","Hungarian","Stranger","Matching","Stranger","Stranger","Stranger","k","Top",1,"StrangerStrong","Strong","white","Self = Positive",817,0.817,1
"540",2,2,60,"Male",32,"Right","Hungarian","Stranger","Matching","Stranger","Stranger","Stranger","k","Bottom",1,"StrangerStrong","Strong","white","Self = Positive",734,0.734,1
"541",2,2,61,"Male",32,"Right","Hungarian","Self","Matching","Self","Self","Self","k","Top",2,"SelfWeak","Weak","white","Self = Positive",867,0.867,1
"542",2,2,62,"Male",32,"Right","Hungarian","Stranger","Matching","Stranger","Stranger","Stranger","k","Top",1,"StrangerStrong","Strong","white","Self = Positive",719,0.719,1
"543",2,2,63,"Male",32,"Right","Hungarian","Stranger","Nonmatching","Self","Self","Self","l","Bottom",1,"StrangerStrong","Strong","white","Self = Positive",900,0.9,1
"544",2,2,64,"Male",32,"Right","Hungarian","Self","Matching","Self","Self","Self","k","Bottom",1,"SelfStrong","Strong","white","Self = Positive",750,0.75,1
"545",2,2,65,"Male",32,"Right","Hungarian","Self","Matching","Self","Self","Self","k","Top",1,"SelfStrong","Strong","white","Self = Positive",734,0.734,1
"546",2,2,66,"Male",32,"Right","Hungarian","Stranger","Nonmatching","Self","Self","Self","l","Top",1,"StrangerStrong","Strong","white","Self = Positive",967,0.967,1
"547",2,2,67,"Male",32,"Right","Hungarian","Stranger","Nonmatching","Self","Self","Self","l","Bottom",1,"StrangerStrong","Strong","white","Self = Positive",750,0.75,1
"548",2,2,68,"Male",32,"Right","Hungarian","Stranger","Matching","Stranger","Stranger","Stranger","k","Bottom",2,"StrangerWeak","Weak","white","Self = Positive",1084,1.084,1
"549",2,2,69,"Male",32,"Right","Hungarian","Stranger","Matching","Stranger","Stranger","Stranger","k","Top",1,"StrangerStrong","Strong","white","Self = Positive",684,0.684,1
"550",2,2,70,"Male",32,"Right","Hungarian","Stranger","Nonmatching","Self","Self","Self","l","Bottom",1,"StrangerStrong","Strong","white","Self = Positive",667,0.667,1
"551",2,2,71,"Male",32,"Right","Hungarian","Self","Matching","Self","Self","Self","k","Bottom",1,"SelfStrong","Strong","white","Self = Positive",700,0.7,1
"552",2,2,72,"Male",32,"Right","Hungarian","Self","Nonmatching","Stranger","Stranger","Stranger","l","Top",1,"SelfStrong","Strong","white","Self = Positive",850,0.85,1
"553",2,2,73,"Male",32,"Right","Hungarian","Stranger","Matching","Stranger","Stranger","Stranger","k","Bottom",2,"StrangerWeak","Weak","white","Self = Positive",800,0.8,1
"554",2,2,74,"Male",32,"Right","Hungarian","Self","Nonmatching","Stranger","Stranger","Stranger","l","Top",2,"SelfWeak","Weak","white","Self = Positive",1183,1.183,1
"555",2,2,75,"Male",32,"Right","Hungarian","Self","Matching","Self","Self","Self","k","Bottom",2,"SelfWeak","Weak","white","Self = Positive",767,0.767,1
"556",2,2,76,"Male",32,"Right","Hungarian","Stranger","Nonmatching","Self","Self","Self","l","Bottom",2,"StrangerWeak","Weak","white","Self = Positive",800,0.8,1
"557",2,2,77,"Male",32,"Right","Hungarian","Self","Nonmatching","Stranger","Stranger","Stranger","l","Top",2,"SelfWeak","Weak","white","Self = Positive",1300,1.3,1
"558",2,2,78,"Male",32,"Right","Hungarian","Stranger","Nonmatching","Self","Self","Self","l","Top",2,"StrangerWeak","Weak","white","Self = Positive",1067,1.067,1
"559",2,2,79,"Male",32,"Right","Hungarian","Self","Nonmatching","Stranger","Stranger","Stranger","l","Bottom",2,"SelfWeak","Weak","white","Self = Positive",1000,1,1
"560",2,2,80,"Male",32,"Right","Hungarian","Self","Matching","Self","Self","Self","k","Top",2,"SelfWeak","Weak","white","Self = Positive",900,0.9,1
"561",2,2,81,"Male",32,"Right","Hungarian","Stranger","Matching","Stranger","Stranger","Stranger","k","Bottom",1,"StrangerStrong","Strong","white","Self = Positive",865,0.865,1
"562",2,2,82,"Male",32,"Right","Hungarian","Self","Matching","Self","Self","Self","k","Bottom",2,"SelfWeak","Weak","white","Self = Positive",767,0.767,1
"563",2,2,83,"Male",32,"Right","Hungarian","Self","Nonmatching","Stranger","Stranger","Stranger","l","Bottom",2,"SelfWeak","Weak","white","Self = Positive",800,0.8,1
"564",2,2,84,"Male",32,"Right","Hungarian","Stranger","Nonmatching","Self","Self","Self","l","Bottom",2,"StrangerWeak","Weak","white","Self = Positive",884,0.884,1
"565",2,2,85,"Male",32,"Right","Hungarian","Self","Matching","Self","Self","Self","k","Top",2,"SelfWeak","Weak","white","Self = Positive",734,0.734,1
"566",2,2,86,"Male",32,"Right","Hungarian","Stranger","Nonmatching","Self","Self","Self","l","Top",2,"StrangerWeak","Weak","white","Self = Positive",767,0.767,1
"567",2,2,87,"Male",32,"Right","Hungarian","Self","Matching","Self","Self","Self","k","Top",2,"SelfWeak","Weak","white","Self = Positive",750,0.75,1
"568",2,2,88,"Male",32,"Right","Hungarian","Self","Nonmatching","Stranger","Stranger","Stranger","l","Top",2,"SelfWeak","Weak","white","Self = Positive",767,0.767,1
"569",2,2,89,"Male",32,"Right","Hungarian","Self","Nonmatching","Stranger","Stranger","Stranger","l","Bottom",1,"SelfStrong","Strong","white","Self = Positive",802,0.802,1
"570",2,2,90,"Male",32,"Right","Hungarian","Stranger","Nonmatching","Self","Self","Self","l","Top",1,"StrangerStrong","Strong","white","Self = Positive",834,0.834,1
"571",2,2,91,"Male",32,"Right","Hungarian","Self","Nonmatching","Stranger","Stranger","Stranger","l","Bottom",2,"SelfWeak","Weak","white","Self = Positive",984,0.984,1
"572",2,2,92,"Male",32,"Right","Hungarian","Self","Nonmatching","Stranger","Stranger","Stranger","l","Top",2,"SelfWeak","Weak","white","Self = Positive",800,0.8,1
"573",2,2,93,"Male",32,"Right","Hungarian","Stranger","Nonmatching","Self","Self","Self","l","Bottom",1,"StrangerStrong","Strong","white","Self = Positive",750,0.75,1
"574",2,2,94,"Male",32,"Right","Hungarian","Self","Nonmatching","Stranger","Stranger","Stranger","l","Top",1,"SelfStrong","Strong","white","Self = Positive",784,0.784,1
"575",2,2,95,"Male",32,"Right","Hungarian","Stranger","Matching","Stranger","Stranger","Stranger","k","Top",2,"StrangerWeak","Weak","white","Self = Positive",734,0.734,1
"576",2,2,96,"Male",32,"Right","Hungarian","Self","Matching","Self","Self","Self","k","Bottom",1,"SelfStrong","Strong","white","Self = Positive",834,0.834,1
"577",2,3,1,"Male",32,"Right","Hungarian","Stranger","Matching","Stranger","Stranger","Stranger","k","Top",1,"StrangerStrong","Strong","white","Self = Positive",800,0.8,1
"578",2,3,2,"Male",32,"Right","Hungarian","Self","Nonmatching","Stranger","Stranger","Stranger","l","Bottom",1,"SelfStrong","Strong","white","Self = Positive",750,0.75,1
"579",2,3,3,"Male",32,"Right","Hungarian","Stranger","Nonmatching","Self","Self","Self","l","Bottom",2,"StrangerWeak","Weak","white","Self = Positive",917,0.917,1
"580",2,3,4,"Male",32,"Right","Hungarian","Self","Matching","Self","Self","Self","k","Bottom",2,"SelfWeak","Weak","white","Self = Positive",834,0.834,1
"581",2,3,5,"Male",32,"Right","Hungarian","Stranger","Matching","Stranger","Stranger","Stranger","k","Top",2,"StrangerWeak","Weak","white","Self = Positive",934,0.934,1
"582",2,3,6,"Male",32,"Right","Hungarian","Self","Matching","Self","Self","Self","k","Bottom",2,"SelfWeak","Weak","white","Self = Positive",817,0.817,1
"583",2,3,7,"Male",32,"Right","Hungarian","Self","Nonmatching","Stranger","Stranger","Stranger","l","Top",1,"SelfStrong","Strong","white","Self = Positive",950,0.95,1
"584",2,3,8,"Male",32,"Right","Hungarian","Self","Matching","Self","Self","Self","k","Top",2,"SelfWeak","Weak","white","Self = Positive",835,0.835,1
"585",2,3,9,"Male",32,"Right","Hungarian","Self","Nonmatching","Stranger","Stranger","Stranger","l","Bottom",1,"SelfStrong","Strong","white","Self = Positive",684,0.684,1
"586",2,3,10,"Male",32,"Right","Hungarian","Self","Nonmatching","Stranger","Stranger","Stranger","l","Bottom",1,"SelfStrong","Strong","white","Self = Positive",850,0.85,1
"587",2,3,11,"Male",32,"Right","Hungarian","Self","Nonmatching","Stranger","Stranger","Stranger","l","Top",1,"SelfStrong","Strong","white","Self = Positive",850,0.85,1
"588",2,3,12,"Male",32,"Right","Hungarian","Stranger","Nonmatching","Self","Self","Self","l","Bottom",2,"StrangerWeak","Weak","white","Self = Positive",967,0.967,1
"589",2,3,13,"Male",32,"Right","Hungarian","Stranger","Matching","Stranger","Stranger","Stranger","k","Top",1,"StrangerStrong","Strong","white","Self = Positive",817,0.817,1
"590",2,3,14,"Male",32,"Right","Hungarian","Self","Matching","Self","Self","Self","k","Top",1,"SelfStrong","Strong","white","Self = Positive",784,0.784,1
"591",2,3,15,"Male",32,"Right","Hungarian","Self","Matching","Self","Self","Self","k","Bottom",2,"SelfWeak","Weak","white","Self = Positive",784,0.784,1
"592",2,3,16,"Male",32,"Right","Hungarian","Self","Nonmatching","Stranger","Stranger","Stranger","l","Top",1,"SelfStrong","Strong","white","Self = Positive",867,0.867,1
"593",2,3,17,"Male",32,"Right","Hungarian","Stranger","Nonmatching","Self","Self","Self","l","Top",1,"StrangerStrong","Strong","white","Self = Positive",834,0.834,1
"594",2,3,18,"Male",32,"Right","Hungarian","Self","Matching","Self","Self","Self","k","Top",2,"SelfWeak","Weak","white","Self = Positive",1000,1,1
"595",2,3,19,"Male",32,"Right","Hungarian","Stranger","Nonmatching","Self","Self","Self","l","Top",1,"StrangerStrong","Strong","white","Self = Positive",767,0.767,1
"596",2,3,20,"Male",32,"Right","Hungarian","Stranger","Nonmatching","Self","Self","Self","l","Bottom",1,"StrangerStrong","Strong","white","Self = Positive",784,0.784,1
"597",2,3,21,"Male",32,"Right","Hungarian","Self","Matching","Self","Self","Self","k","Bottom",2,"SelfWeak","Weak","white","Self = Positive",834,0.834,1
"598",2,3,22,"Male",32,"Right","Hungarian","Stranger","Nonmatching","Self","Self","Self","l","Top",2,"StrangerWeak","Weak","white","Self = Positive",750,0.75,1
"599",2,3,23,"Male",32,"Right","Hungarian","Self","Nonmatching","Stranger","Stranger","Stranger","l","Bottom",2,"SelfWeak","Weak","white","Self = Positive",950,0.95,1
"600",2,3,24,"Male",32,"Right","Hungarian","Stranger","Nonmatching","Self","Self","Self","l","Top",2,"StrangerWeak","Weak","white","Self = Positive",833,0.833,1
"601",2,3,25,"Male",32,"Right","Hungarian","Self","Nonmatching","Stranger","Stranger","Stranger","l","Top",2,"SelfWeak","Weak","white","Self = Positive",784,0.784,1
"602",2,3,26,"Male",32,"Right","Hungarian","Self","Nonmatching","Stranger","Stranger","Stranger","l","Bottom",1,"SelfStrong","Strong","white","Self = Positive",800,0.8,1
"603",2,3,27,"Male",32,"Right","Hungarian","Stranger","Nonmatching","Self","Self","Self","l","Top",1,"StrangerStrong","Strong","white","Self = Positive",767,0.767,1
"604",2,3,28,"Male",32,"Right","Hungarian","Stranger","Nonmatching","Self","Self","Self","l","Bottom",1,"StrangerStrong","Strong","white","Self = Positive",900,0.9,1
"605",2,3,29,"Male",32,"Right","Hungarian","Stranger","Nonmatching","Self","Self","Self","l","Top",2,"StrangerWeak","Weak","white","Self = Positive",834,0.834,1
"606",2,3,30,"Male",32,"Right","Hungarian","Stranger","Matching","Stranger","Stranger","Stranger","k","Bottom",1,"StrangerStrong","Strong","white","Self = Positive",1000,1,1
