"Subject","Block","Trial","Gender","Age","Handedness","First_Lanugage","Shape","Matching","Label_Identity","Origin_Identity","English_Identity","Standarlized_Identity","Response","ShapeLoc","FaceIdentity","Stimulus","Strength","textColour","Stimuli_Type","RT_ms","RT_sec","ACC"
1,1,1,"Male",24,"Right","Ukrainian","Self","Matching","Self","Self","Self","Self","l","Bottom",2,"SelfWeak","Weak","white","Self = Positive",766.876816,0.766876816,1
1,1,2,"Male",24,"Right","Ukrainian","Stranger","Nonmatching","Self","Stranger","Stranger","Stranger","k","Top",2,"StrangerWeak","Weak","white","Self = Positive",1216.912881,1.216912881,1
1,1,3,"Male",24,"Right","Ukrainian","Self","Matching","Self","Self","Self","Self","l","Top",2,"SelfWeak","Weak","white","Self = Positive",1116.891049,1.116891049,1
1,1,4,"Male",24,"Right","Ukrainian","Stranger","Nonmatching","Self","Stranger","Stranger","Stranger","k","Top",1,"StrangerStrong","Strong","white","Self = Positive",1050.194693,1.050194693,1
1,1,5,"Male",24,"Right","Ukrainian","Stranger","Nonmatching","Self","Stranger","Stranger","Stranger","k","Bottom",1,"StrangerStrong","Strong","white","Self = Positive",1366.863314,1.366863314,1
1,1,6,"Male",24,"Right","Ukrainian","Self","Nonmatching","Stranger","Self","Self","Self","k","Top",2,"SelfWeak","Weak","white","Self = Positive",1266.946498,1.266946498,1
1,1,7,"Male",24,"Right","Ukrainian","Self","Nonmatching","Stranger","Self","Self","Self","l","Bottom",2,"SelfWeak","Weak","white","Self = Positive",1100.255946,1.100255946,0
1,1,8,"Male",24,"Right","Ukrainian","Self","Matching","Self","Self","Self","Self","l","Top",2,"SelfWeak","Weak","white","Self = Positive",1050.263388,1.050263388,1
1,1,9,"Male",24,"Right","Ukrainian","Stranger","Nonmatching","Self","Stranger","Stranger","Stranger","k","Bottom",1,"StrangerStrong","Strong","white","Self = Positive",1183.55582,1.18355582,1
1,1,10,"Male",24,"Right","Ukrainian","Self","Matching","Self","Self","Self","Self","l","Top",2,"SelfWeak","Weak","white","Self = Positive",1166.854392,1.166854392,1
1,1,11,"Male",24,"Right","Ukrainian","Self","Nonmatching","Stranger","Self","Self","Self","k","Top",2,"SelfWeak","Weak","white","Self = Positive",1683.542989,1.683542989,1
1,1,12,"Male",24,"Right","Ukrainian","Self","Nonmatching","Stranger","Self","Self","Self","k","Bottom",1,"SelfStrong","Strong","white","Self = Positive",1200.188554,1.200188554,1
1,1,13,"Male",24,"Right","Ukrainian","Self","Nonmatching","Stranger","Self","Self","Self","k","Bottom",2,"SelfWeak","Weak","white","Self = Positive",1383.526053,1.383526053,1
1,1,14,"Male",24,"Right","Ukrainian","Stranger","Matching","Stranger","Stranger","Stranger","Stranger","l","Bottom",1,"StrangerStrong","Strong","white","Self = Positive",1200.244615,1.200244615,1
1,1,15,"Male",24,"Right","Ukrainian","Self","Nonmatching","Stranger","Self","Self","Self","k","Top",1,"SelfStrong","Strong","white","Self = Positive",1285.134726,1.285134726,1
1,1,16,"Male",24,"Right","Ukrainian","Stranger","Matching","Stranger","Stranger","Stranger","Stranger","l","Top",1,"StrangerStrong","Strong","white","Self = Positive",1483.478796,1.483478796,1
1,1,17,"Male",24,"Right","Ukrainian","Self","Matching","Self","Self","Self","Self","l","Bottom",1,"SelfStrong","Strong","white","Self = Positive",766.862209,0.766862209,1
1,1,18,"Male",24,"Right","Ukrainian","Self","Matching","Self","Self","Self","Self","l","Top",1,"SelfStrong","Strong","white","Self = Positive",783.551004,0.783551004,1
1,1,19,"Male",24,"Right","Ukrainian","Self","Nonmatching","Stranger","Self","Self","Self","k","Bottom",1,"SelfStrong","Strong","white","Self = Positive",1166.854787,1.166854787,1
1,1,20,"Male",24,"Right","Ukrainian","Self","Matching","Self","Self","Self","Self","l","Top",1,"SelfStrong","Strong","white","Self = Positive",1266.860038,1.266860038,1
1,1,21,"Male",24,"Right","Ukrainian","Stranger","Matching","Stranger","Stranger","Stranger","Stranger","k","Bottom",1,"StrangerStrong","Strong","white","Self = Positive",1350.21163,1.35021163,0
1,1,22,"Male",24,"Right","Ukrainian","Stranger","Nonmatching","Self","Stranger","Stranger","Stranger","k","Bottom",1,"StrangerStrong","Strong","white","Self = Positive",1116.857096,1.116857096,1
1,1,23,"Male",24,"Right","Ukrainian","Self","Nonmatching","Stranger","Self","Self","Self","k","Bottom",1,"SelfStrong","Strong","white","Self = Positive",1250.28218,1.25028218,1
1,1,24,"Male",24,"Right","Ukrainian","Stranger","Nonmatching","Self","Stranger","Stranger","Stranger","k","Top",1,"StrangerStrong","Strong","white","Self = Positive",850.213407,0.850213407,1
1,1,25,"Male",24,"Right","Ukrainian","Stranger","Nonmatching","Self","Stranger","Stranger","Stranger","k","Top",1,"StrangerStrong","Strong","white","Self = Positive",1016.866058,1.016866058,1
1,1,26,"Male",24,"Right","Ukrainian","Self","Nonmatching","Stranger","Self","Self","Self","k","Top",1,"SelfStrong","Strong","white","Self = Positive",883.515591,0.883515591,1
1,1,27,"Male",24,"Right","Ukrainian","Stranger","Nonmatching","Self","Stranger","Stranger","Stranger","k","Top",1,"StrangerStrong","Strong","white","Self = Positive",1383.50276,1.38350276,1
1,1,28,"Male",24,"Right","Ukrainian","Stranger","Matching","Stranger","Stranger","Stranger","Stranger","l","Bottom",2,"StrangerWeak","Weak","white","Self = Positive",1516.836646,1.516836646,1
1,1,29,"Male",24,"Right","Ukrainian","Stranger","Matching","Stranger","Stranger","Stranger","Stranger","l","Top",1,"StrangerStrong","Strong","white","Self = Positive",1350.167808,1.350167808,1
1,1,30,"Male",24,"Right","Ukrainian","Self","Nonmatching","Stranger","Self","Self","Self","k","Bottom",1,"SelfStrong","Strong","white","Self = Positive",1133.589714,1.133589714,1
1,1,31,"Male",24,"Right","Ukrainian","Self","Matching","Self","Self","Self","Self","l","Top",1,"SelfStrong","Strong","white","Self = Positive",900.179908,0.900179908,1
1,1,32,"Male",24,"Right","Ukrainian","Self","Nonmatching","Stranger","Self","Self","Self","k","Bottom",2,"SelfWeak","Weak","white","Self = Positive",1283.550806,1.283550806,1
1,1,33,"Male",24,"Right","Ukrainian","Self","Matching","Self","Self","Self","Self","l","Top",2,"SelfWeak","Weak","white","Self = Positive",1166.922297,1.166922297,1
1,1,34,"Male",24,"Right","Ukrainian","Self","Nonmatching","Stranger","Self","Self","Self","k","Top",1,"SelfStrong","Strong","white","Self = Positive",1150.20863,1.15020863,1
1,1,35,"Male",24,"Right","Ukrainian","Self","Nonmatching","Stranger","Self","Self","Self","k","Top",2,"SelfWeak","Weak","white","Self = Positive",1383.555662,1.383555662,1
1,1,36,"Male",24,"Right","Ukrainian","Self","Matching","Self","Self","Self","Self","l","Top",2,"SelfWeak","Weak","white","Self = Positive",1066.883093,1.066883093,1
1,1,37,"Male",24,"Right","Ukrainian","Stranger","Nonmatching","Self","Stranger","Stranger","Stranger","k","Top",2,"StrangerWeak","Weak","white","Self = Positive",1100.199885,1.100199885,1
1,1,38,"Male",24,"Right","Ukrainian","Stranger","Nonmatching","Self","Stranger","Stranger","Stranger","k","Bottom",1,"StrangerStrong","Strong","white","Self = Positive",1535.141339,1.535141339,1
1,1,39,"Male",24,"Right","Ukrainian","Stranger","Nonmatching","Self","Stranger","Stranger","Stranger","k","Top",2,"StrangerWeak","Weak","white","Self = Positive",916.864755,0.916864755,1
1,1,40,"Male",24,"Right","Ukrainian","Self","Matching","Self","Self","Self","Self","k","Top",2,"SelfWeak","Weak","white","Self = Positive",783.539555,0.783539555,0
1,1,41,"Male",24,"Right","Ukrainian","Stranger","Nonmatching","Self","Stranger","Stranger","Stranger","k","Top",1,"StrangerStrong","Strong","white","Self = Positive",750.259085,0.750259085,1
1,1,42,"Male",24,"Right","Ukrainian","Stranger","Matching","Stranger","Stranger","Stranger","Stranger","k","Top",2,"StrangerWeak","Weak","white","Self = Positive",1600.132178,1.600132178,0
1,1,43,"Male",24,"Right","Ukrainian","Self","Matching","Self","Self","Self","Self","l","Top",1,"SelfStrong","Strong","white","Self = Positive",800.265855,0.800265855,1
1,1,44,"Male",24,"Right","Ukrainian","Self","Nonmatching","Stranger","Self","Self","Self","k","Bottom",2,"SelfWeak","Weak","white","Self = Positive",1000.2124,1.0002124,1
1,1,45,"Male",24,"Right","Ukrainian","Self","Nonmatching","Stranger","Self","Self","Self","k","Bottom",2,"SelfWeak","Weak","white","Self = Positive",1333.689439,1.333689439,1
1,1,46,"Male",24,"Right","Ukrainian","Self","Nonmatching","Stranger","Self","Self","Self","k","Bottom",2,"SelfWeak","Weak","white","Self = Positive",1033.534324,1.033534324,1
1,1,47,"Male",24,"Right","Ukrainian","Stranger","Matching","Stranger","Stranger","Stranger","Stranger","l","Bottom",1,"StrangerStrong","Strong","white","Self = Positive",1516.820065,1.516820065,1
1,1,48,"Male",24,"Right","Ukrainian","Stranger","Matching","Stranger","Stranger","Stranger","Stranger","k","Top",1,"StrangerStrong","Strong","white","Self = Positive",1616.877823,1.616877823,0
1,1,49,"Male",24,"Right","Ukrainian","Stranger","Matching","Stranger","Stranger","Stranger","Stranger","k","Bottom",1,"StrangerStrong","Strong","white","Self = Positive",1083.495298,1.083495298,0
1,1,50,"Male",24,"Right","Ukrainian","Stranger","Nonmatching","Self","Stranger","Stranger","Stranger","k","Bottom",2,"StrangerWeak","Weak","white","Self = Positive",966.869157,0.966869157,1
1,1,51,"Male",24,"Right","Ukrainian","Self","Matching","Self","Self","Self","Self","l","Bottom",2,"SelfWeak","Weak","white","Self = Positive",1033.514979,1.033514979,1
1,1,52,"Male",24,"Right","Ukrainian","Self","Matching","Self","Self","Self","Self","l","Bottom",2,"SelfWeak","Weak","white","Self = Positive",816.917145,0.816917145,1
1,1,53,"Male",24,"Right","Ukrainian","Stranger","Matching","Stranger","Stranger","Stranger","Stranger","l","Top",2,"StrangerWeak","Weak","white","Self = Positive",1250.188219,1.250188219,1
1,1,54,"Male",24,"Right","Ukrainian","Stranger","Matching","Stranger","Stranger","Stranger","Stranger","l","Top",2,"StrangerWeak","Weak","white","Self = Positive",1350.187942,1.350187942,1
1,1,55,"Male",24,"Right","Ukrainian","Stranger","Matching","Stranger","Stranger","Stranger","Stranger","l","Top",2,"StrangerWeak","Weak","white","Self = Positive",633.552011,0.633552011,1
1,1,56,"Male",24,"Right","Ukrainian","Self","Nonmatching","Stranger","Self","Self","Self","l","Top",2,"SelfWeak","Weak","white","Self = Positive",550.305828,0.550305828,0
1,1,57,"Male",24,"Right","Ukrainian","Stranger","Nonmatching","Self","Stranger","Stranger","Stranger","k","Bottom",1,"StrangerStrong","Strong","white","Self = Positive",1066.919809,1.066919809,1
1,1,58,"Male",24,"Right","Ukrainian","Stranger","Nonmatching","Self","Stranger","Stranger","Stranger","k","Bottom",1,"StrangerStrong","Strong","white","Self = Positive",1133.528125,1.133528125,1
1,1,59,"Male",24,"Right","Ukrainian","Stranger","Matching","Stranger","Stranger","Stranger","Stranger","l","Bottom",2,"StrangerWeak","Weak","white","Self = Positive",1483.484323,1.483484323,1
1,1,60,"Male",24,"Right","Ukrainian","Self","Matching","Self","Self","Self","Self","l","Bottom",2,"SelfWeak","Weak","white","Self = Positive",900.197279,0.900197279,1
1,1,61,"Male",24,"Right","Ukrainian","Stranger","Matching","Stranger","Stranger","Stranger","Stranger","k","Top",2,"StrangerWeak","Weak","white","Self = Positive",1200.222112,1.200222112,0
1,1,62,"Male",24,"Right","Ukrainian","Stranger","Nonmatching","Self","Stranger","Stranger","Stranger","l","Top",2,"StrangerWeak","Weak","white","Self = Positive",850.212222,0.850212222,0
1,1,63,"Male",24,"Right","Ukrainian","Self","Nonmatching","Stranger","Self","Self","Self","k","Bottom",1,"SelfStrong","Strong","white","Self = Positive",966.898372,0.966898372,1
1,1,64,"Male",24,"Right","Ukrainian","Stranger","Matching","Stranger","Stranger","Stranger","Stranger","l","Bottom",2,"StrangerWeak","Weak","white","Self = Positive",1116.879205,1.116879205,1
1,1,65,"Male",24,"Right","Ukrainian","Self","Matching","Self","Self","Self","Self","l","Bottom",1,"SelfStrong","Strong","white","Self = Positive",762.141244,0.762141244,1
1,1,66,"Male",24,"Right","Ukrainian","Self","Matching","Self","Self","Self","Self","l","Bottom",1,"SelfStrong","Strong","white","Self = Positive",733.537522,0.733537522,1
1,1,67,"Male",24,"Right","Ukrainian","Stranger","Nonmatching","Self","Stranger","Stranger","Stranger","k","Top",2,"StrangerWeak","Weak","white","Self = Positive",1100.191989,1.100191989,1
1,1,68,"Male",24,"Right","Ukrainian","Stranger","Nonmatching","Self","Stranger","Stranger","Stranger","k","Bottom",2,"StrangerWeak","Weak","white","Self = Positive",1233.528638,1.233528638,1
1,1,69,"Male",24,"Right","Ukrainian","Self","Matching","Self","Self","Self","Self","l","Bottom",1,"SelfStrong","Strong","white","Self = Positive",750.214078,0.750214078,1
1,1,70,"Male",24,"Right","Ukrainian","Self","Nonmatching","Stranger","Self","Self","Self","k","Top",1,"SelfStrong","Strong","white","Self = Positive",1033.530376,1.033530376,1
1,1,71,"Male",24,"Right","Ukrainian","Stranger","Nonmatching","Self","Stranger","Stranger","Stranger","k","Top",1,"StrangerStrong","Strong","white","Self = Positive",833.534876,0.833534876,1
1,1,72,"Male",24,"Right","Ukrainian","Stranger","Matching","Stranger","Stranger","Stranger","Stranger","l","Top",1,"StrangerStrong","Strong","white","Self = Positive",1366.844364,1.366844364,1
1,1,73,"Male",24,"Right","Ukrainian","Self","Matching","Self","Self","Self","Self","l","Bottom",2,"SelfWeak","Weak","white","Self = Positive",950.200892,0.950200892,1
1,1,74,"Male",24,"Right","Ukrainian","Stranger","Nonmatching","Self","Stranger","Stranger","Stranger","k","Bottom",2,"StrangerWeak","Weak","white","Self = Positive",1066.85072,1.06685072,1
1,1,75,"Male",24,"Right","Ukrainian","Self","Nonmatching","Stranger","Self","Self","Self","k","Top",1,"SelfStrong","Strong","white","Self = Positive",800.210979,0.800210979,1
1,1,76,"Male",24,"Right","Ukrainian","Stranger","Matching","Stranger","Stranger","Stranger","Stranger","l","Bottom",1,"StrangerStrong","Strong","white","Self = Positive",1066.868091,1.066868091,1
1,1,77,"Male",24,"Right","Ukrainian","Self","Matching","Self","Self","Self","Self","l","Bottom",1,"SelfStrong","Strong","white","Self = Positive",700.206123,0.700206123,1
1,1,78,"Male",24,"Right","Ukrainian","Stranger","Matching","Stranger","Stranger","Stranger","Stranger","l","Bottom",2,"StrangerWeak","Weak","white","Self = Positive",1100.232258,1.100232258,1
1,1,79,"Male",24,"Right","Ukrainian","Stranger","Nonmatching","Self","Stranger","Stranger","Stranger","k","Bottom",2,"StrangerWeak","Weak","white","Self = Positive",816.876876,0.816876876,1
1,1,80,"Male",24,"Right","Ukrainian","Self","Nonmatching","Stranger","Self","Self","Self","k","Top",1,"SelfStrong","Strong","white","Self = Positive",1083.52096,1.08352096,1
1,1,81,"Male",24,"Right","Ukrainian","Self","Nonmatching","Stranger","Self","Self","Self","k","Bottom",1,"SelfStrong","Strong","white","Self = Positive",883.531777,0.883531777,1
1,1,82,"Male",24,"Right","Ukrainian","Stranger","Matching","Stranger","Stranger","Stranger","Stranger","l","Bottom",2,"StrangerWeak","Weak","white","Self = Positive",933.549207,0.933549207,1
1,1,83,"Male",24,"Right","Ukrainian","Self","Nonmatching","Stranger","Self","Self","Self","k","Top",2,"SelfWeak","Weak","white","Self = Positive",983.578482,0.983578482,1
1,1,84,"Male",24,"Right","Ukrainian","Stranger","Matching","Stranger","Stranger","Stranger","Stranger","l","Bottom",2,"StrangerWeak","Weak","white","Self = Positive",950.199313,0.950199313,1
1,1,85,"Male",24,"Right","Ukrainian","Stranger","Matching","Stranger","Stranger","Stranger","Stranger","l","Top",1,"StrangerStrong","Strong","white","Self = Positive",1083.524908,1.083524908,1
1,1,86,"Male",24,"Right","Ukrainian","Self","Nonmatching","Stranger","Self","Self","Self","k","Top",2,"SelfWeak","Weak","white","Self = Positive",916.874231,0.916874231,1
1,1,87,"Male",24,"Right","Ukrainian","Stranger","Matching","Stranger","Stranger","Stranger","Stranger","l","Top",2,"StrangerWeak","Weak","white","Self = Positive",1285.229477,1.285229477,1
1,1,88,"Male",24,"Right","Ukrainian","Stranger","Matching","Stranger","Stranger","Stranger","Stranger","l","Top",1,"StrangerStrong","Strong","white","Self = Positive",833.548694,0.833548694,1
1,1,89,"Male",24,"Right","Ukrainian","Self","Matching","Self","Self","Self","Self","l","Bottom",2,"SelfWeak","Weak","white","Self = Positive",1150.185731,1.150185731,1
1,1,90,"Male",24,"Right","Ukrainian","Stranger","Nonmatching","Self","Stranger","Stranger","Stranger","k","Top",2,"StrangerWeak","Weak","white","Self = Positive",766.885107,0.766885107,1
1,1,91,"Male",24,"Right","Ukrainian","Stranger","Matching","Stranger","Stranger","Stranger","Stranger","l","Bottom",1,"StrangerStrong","Strong","white","Self = Positive",1116.878415,1.116878415,1
1,1,92,"Male",24,"Right","Ukrainian","Stranger","Nonmatching","Self","Stranger","Stranger","Stranger","k","Bottom",2,"StrangerWeak","Weak","white","Self = Positive",900.20557,0.90020557,1
1,1,93,"Male",24,"Right","Ukrainian","Self","Matching","Self","Self","Self","Self","l","Bottom",1,"SelfStrong","Strong","white","Self = Positive",766.881159,0.766881159,1
1,1,94,"Male",24,"Right","Ukrainian","Self","Matching","Self","Self","Self","Self","l","Top",1,"SelfStrong","Strong","white","Self = Positive",900.306638,0.900306638,1
1,1,95,"Male",24,"Right","Ukrainian","Stranger","Nonmatching","Self","Stranger","Stranger","Stranger","k","Bottom",2,"StrangerWeak","Weak","white","Self = Positive",816.904116,0.816904116,1
1,1,96,"Male",24,"Right","Ukrainian","Self","Matching","Self","Self","Self","Self","l","Top",1,"SelfStrong","Strong","white","Self = Positive",766.864183,0.766864183,1
1,2,1,"Male",24,"Right","Ukrainian","Self","Nonmatching","Stranger","Self","Self","Self","k","Top",1,"SelfStrong","Strong","white","Self = Positive",864.96573,0.86496573,1
1,2,2,"Male",24,"Right","Ukrainian","Stranger","Nonmatching","Self","Stranger","Stranger","Stranger","k","Top",2,"StrangerWeak","Weak","white","Self = Positive",800.219664,0.800219664,1
1,2,3,"Male",24,"Right","Ukrainian","Stranger","Nonmatching","Self","Stranger","Stranger","Stranger","k","Bottom",1,"StrangerStrong","Strong","white","Self = Positive",816.975574,0.816975574,1
1,2,4,"Male",24,"Right","Ukrainian","Stranger","Matching","Stranger","Stranger","Stranger","Stranger","k","Top",1,"StrangerStrong","Strong","white","Self = Positive",883.548753,0.883548753,0
1,2,5,"Male",24,"Right","Ukrainian","Stranger","Matching","Stranger","Stranger","Stranger","Stranger","l","Bottom",1,"StrangerStrong","Strong","white","Self = Positive",666.840377,0.666840377,1
1,2,6,"Male",24,"Right","Ukrainian","Stranger","Nonmatching","Self","Stranger","Stranger","Stranger","k","Bottom",2,"StrangerWeak","Weak","white","Self = Positive",866.957868,0.866957868,1
1,2,7,"Male",24,"Right","Ukrainian","Stranger","Nonmatching","Self","Stranger","Stranger","Stranger","k","Top",2,"StrangerWeak","Weak","white","Self = Positive",916.877389,0.916877389,1
1,2,8,"Male",24,"Right","Ukrainian","Self","Matching","Self","Self","Self","Self","l","Bottom",1,"SelfStrong","Strong","white","Self = Positive",783.575086,0.783575086,1
1,2,9,"Male",24,"Right","Ukrainian","Stranger","Nonmatching","Self","Stranger","Stranger","Stranger","k","Top",1,"StrangerStrong","Strong","white","Self = Positive",733.612138,0.733612138,1
1,2,10,"Male",24,"Right","Ukrainian","Stranger","Nonmatching","Self","Stranger","Stranger","Stranger","k","Top",2,"StrangerWeak","Weak","white","Self = Positive",1516.822433,1.516822433,1
1,2,11,"Male",24,"Right","Ukrainian","Self","Matching","Self","Self","Self","Self","l","Bottom",2,"SelfWeak","Weak","white","Self = Positive",1000.207663,1.000207663,1
1,2,12,"Male",24,"Right","Ukrainian","Stranger","Matching","Stranger","Stranger","Stranger","Stranger","l","Bottom",2,"StrangerWeak","Weak","white","Self = Positive",1333.579686,1.333579686,1
1,2,13,"Male",24,"Right","Ukrainian","Stranger","Nonmatching","Self","Stranger","Stranger","Stranger","k","Bottom",2,"StrangerWeak","Weak","white","Self = Positive",1100.20936,1.10020936,1
1,2,14,"Male",24,"Right","Ukrainian","Stranger","Nonmatching","Self","Stranger","Stranger","Stranger","k","Bottom",2,"StrangerWeak","Weak","white","Self = Positive",1450.169506,1.450169506,1
1,2,15,"Male",24,"Right","Ukrainian","Self","Nonmatching","Stranger","Self","Self","Self","k","Top",1,"SelfStrong","Strong","white","Self = Positive",866.889963,0.866889963,1
1,2,16,"Male",24,"Right","Ukrainian","Self","Nonmatching","Stranger","Self","Self","Self","k","Bottom",2,"SelfWeak","Weak","white","Self = Positive",950.196944,0.950196944,1
1,2,17,"Male",24,"Right","Ukrainian","Self","Nonmatching","Stranger","Self","Self","Self","k","Bottom",1,"SelfStrong","Strong","white","Self = Positive",1116.857491,1.116857491,1
1,2,18,"Male",24,"Right","Ukrainian","Stranger","Nonmatching","Self","Stranger","Stranger","Stranger","k","Bottom",2,"StrangerWeak","Weak","white","Self = Positive",850.206695,0.850206695,1
1,2,19,"Male",24,"Right","Ukrainian","Self","Nonmatching","Stranger","Self","Self","Self","k","Top",1,"SelfStrong","Strong","white","Self = Positive",1033.576962,1.033576962,1
1,2,20,"Male",24,"Right","Ukrainian","Self","Nonmatching","Stranger","Self","Self","Self","k","Bottom",2,"SelfWeak","Weak","white","Self = Positive",1100.220414,1.100220414,1
1,2,21,"Male",24,"Right","Ukrainian","Self","Nonmatching","Stranger","Self","Self","Self","k","Top",1,"SelfStrong","Strong","white","Self = Positive",766.894187,0.766894187,1
1,2,22,"Male",24,"Right","Ukrainian","Stranger","Matching","Stranger","Stranger","Stranger","Stranger","l","Top",2,"StrangerWeak","Weak","white","Self = Positive",816.882008,0.816882008,1
1,2,23,"Male",24,"Right","Ukrainian","Self","Matching","Self","Self","Self","Self","l","Top",2,"SelfWeak","Weak","white","Self = Positive",883.530988,0.883530988,1
1,2,24,"Male",24,"Right","Ukrainian","Stranger","Nonmatching","Self","Stranger","Stranger","Stranger","k","Bottom",1,"StrangerStrong","Strong","white","Self = Positive",1033.581304,1.033581304,1
1,2,25,"Male",24,"Right","Ukrainian","Self","Matching","Self","Self","Self","Self","l","Top",1,"SelfStrong","Strong","white","Self = Positive",933.54526,0.93354526,1
1,2,26,"Male",24,"Right","Ukrainian","Stranger","Nonmatching","Self","Stranger","Stranger","Stranger","k","Top",1,"StrangerStrong","Strong","white","Self = Positive",965.018356,0.965018356,1
1,2,27,"Male",24,"Right","Ukrainian","Self","Nonmatching","Stranger","Self","Self","Self","k","Bottom",1,"SelfStrong","Strong","white","Self = Positive",1283.487244,1.283487244,1
1,2,28,"Male",24,"Right","Ukrainian","Self","Nonmatching","Stranger","Self","Self","Self","k","Bottom",2,"SelfWeak","Weak","white","Self = Positive",1383.518946,1.383518946,1
1,2,29,"Male",24,"Right","Ukrainian","Stranger","Nonmatching","Self","Stranger","Stranger","Stranger","k","Bottom",1,"StrangerStrong","Strong","white","Self = Positive",866.876145,0.866876145,1
1,2,30,"Male",24,"Right","Ukrainian","Stranger","Matching","Stranger","Stranger","Stranger","Stranger","l","Bottom",1,"StrangerStrong","Strong","white","Self = Positive",1583.484441,1.583484441,1
1,2,31,"Male",24,"Right","Ukrainian","Self","Nonmatching","Stranger","Self","Self","Self","k","Bottom",1,"SelfStrong","Strong","white","Self = Positive",1200.196845,1.200196845,1
1,2,32,"Male",24,"Right","Ukrainian","Stranger","Matching","Stranger","Stranger","Stranger","Stranger","l","Top",1,"StrangerStrong","Strong","white","Self = Positive",1250.223356,1.250223356,1
1,2,33,"Male",24,"Right","Ukrainian","Stranger","Nonmatching","Self","Stranger","Stranger","Stranger","k","Bottom",2,"StrangerWeak","Weak","white","Self = Positive",916.881731,0.916881731,1
1,2,34,"Male",24,"Right","Ukrainian","Stranger","Matching","Stranger","Stranger","Stranger","Stranger","k","Top",1,"StrangerStrong","Strong","white","Self = Positive",1100.208965,1.100208965,0
1,2,35,"Male",24,"Right","Ukrainian","Stranger","Matching","Stranger","Stranger","Stranger","Stranger","l","Top",1,"StrangerStrong","Strong","white","Self = Positive",933.514071,0.933514071,1
1,2,36,"Male",24,"Right","Ukrainian","Stranger","Matching","Stranger","Stranger","Stranger","Stranger","l","Bottom",1,"StrangerStrong","Strong","white","Self = Positive",866.874566,0.866874566,1
1,2,37,"Male",24,"Right","Ukrainian","Self","Matching","Self","Self","Self","Self","l","Top",1,"SelfStrong","Strong","white","Self = Positive",1016.876718,1.016876718,1
1,2,38,"Male",24,"Right","Ukrainian","Stranger","Matching","Stranger","Stranger","Stranger","Stranger","k","Top",2,"StrangerWeak","Weak","white","Self = Positive",1083.514643,1.083514643,0
1,2,39,"Male",24,"Right","Ukrainian","Stranger","Matching","Stranger","Stranger","Stranger","Stranger","l","Bottom",2,"StrangerWeak","Weak","white","Self = Positive",930.512046,0.930512046,1
1,2,40,"Male",24,"Right","Ukrainian","Self","Nonmatching","Stranger","Self","Self","Self","k","Top",2,"SelfWeak","Weak","white","Self = Positive",1050.215223,1.050215223,1
1,2,41,"Male",24,"Right","Ukrainian","Self","Nonmatching","Stranger","Self","Self","Self","k","Bottom",2,"SelfWeak","Weak","white","Self = Positive",1100.224362,1.100224362,1
1,2,42,"Male",24,"Right","Ukrainian","Self","Matching","Self","Self","Self","Self","l","Top",2,"SelfWeak","Weak","white","Self = Positive",1216.880902,1.216880902,1
1,2,43,"Male",24,"Right","Ukrainian","Stranger","Nonmatching","Self","Stranger","Stranger","Stranger","k","Bottom",1,"StrangerStrong","Strong","white","Self = Positive",800.272172,0.800272172,1
1,2,44,"Male",24,"Right","Ukrainian","Self","Nonmatching","Stranger","Self","Self","Self","k","Top",2,"SelfWeak","Weak","white","Self = Positive",1216.836685,1.216836685,1
1,2,45,"Male",24,"Right","Ukrainian","Stranger","Nonmatching","Self","Stranger","Stranger","Stranger","k","Top",2,"StrangerWeak","Weak","white","Self = Positive",916.929502,0.916929502,1
1,2,46,"Male",24,"Right","Ukrainian","Stranger","Matching","Stranger","Stranger","Stranger","Stranger","l","Bottom",1,"StrangerStrong","Strong","white","Self = Positive",1200.151444,1.200151444,1
1,2,47,"Male",24,"Right","Ukrainian","Stranger","Matching","Stranger","Stranger","Stranger","Stranger","k","Bottom",2,"StrangerWeak","Weak","white","Self = Positive",1150.192048,1.150192048,0
1,2,48,"Male",24,"Right","Ukrainian","Stranger","Nonmatching","Self","Stranger","Stranger","Stranger","k","Bottom",2,"StrangerWeak","Weak","white","Self = Positive",1316.849832,1.316849832,1
1,2,49,"Male",24,"Right","Ukrainian","Stranger","Matching","Stranger","Stranger","Stranger","Stranger","None","Bottom",2,"StrangerWeak","Weak","white","Self = Positive",NA,NA,3
1,2,50,"Male",24,"Right","Ukrainian","Self","Matching","Self","Self","Self","Self","l","Top",2,"SelfWeak","Weak","white","Self = Positive",833.543562,0.833543562,1
1,2,51,"Male",24,"Right","Ukrainian","Self","Matching","Self","Self","Self","Self","l","Bottom",2,"SelfWeak","Weak","white","Self = Positive",716.915052,0.716915052,1
1,2,52,"Male",24,"Right","Ukrainian","Self","Matching","Self","Self","Self","Self","l","Bottom",2,"SelfWeak","Weak","white","Self = Positive",583.549977,0.583549977,1
1,2,53,"Male",24,"Right","Ukrainian","Self","Nonmatching","Stranger","Self","Self","Self","k","Top",1,"SelfStrong","Strong","white","Self = Positive",933.535784,0.933535784,1
1,2,54,"Male",24,"Right","Ukrainian","Stranger","Matching","Stranger","Stranger","Stranger","Stranger","l","Top",2,"StrangerWeak","Weak","white","Self = Positive",1116.909604,1.116909604,1
1,2,55,"Male",24,"Right","Ukrainian","Stranger","Matching","Stranger","Stranger","Stranger","Stranger","l","Bottom",1,"StrangerStrong","Strong","white","Self = Positive",1283.516064,1.283516064,1
1,2,56,"Male",24,"Right","Ukrainian","Self","Matching","Self","Self","Self","Self","l","Top",1,"SelfStrong","Strong","white","Self = Positive",916.902261,0.916902261,1
1,2,57,"Male",24,"Right","Ukrainian","Self","Nonmatching","Stranger","Self","Self","Self","k","Bottom",2,"SelfWeak","Weak","white","Self = Positive",1468.488411,1.468488411,1
1,2,58,"Male",24,"Right","Ukrainian","Stranger","Nonmatching","Self","Stranger","Stranger","Stranger","k","Bottom",1,"StrangerStrong","Strong","white","Self = Positive",1183.536476,1.183536476,1
1,2,59,"Male",24,"Right","Ukrainian","Stranger","Nonmatching","Self","Stranger","Stranger","Stranger","k","Top",1,"StrangerStrong","Strong","white","Self = Positive",783.531659,0.783531659,1
1,2,60,"Male",24,"Right","Ukrainian","Self","Nonmatching","Stranger","Self","Self","Self","k","Bottom",2,"SelfWeak","Weak","white","Self = Positive",1200.181843,1.200181843,1
1,2,61,"Male",24,"Right","Ukrainian","Self","Nonmatching","Stranger","Self","Self","Self","k","Bottom",1,"SelfStrong","Strong","white","Self = Positive",1183.590168,1.183590168,1
1,2,62,"Male",24,"Right","Ukrainian","Stranger","Nonmatching","Self","Stranger","Stranger","Stranger","l","Top",1,"StrangerStrong","Strong","white","Self = Positive",1183.490284,1.183490284,0
1,2,63,"Male",24,"Right","Ukrainian","Self","Matching","Self","Self","Self","Self","l","Top",2,"SelfWeak","Weak","white","Self = Positive",1050.184034,1.050184034,1
1,2,64,"Male",24,"Right","Ukrainian","Self","Matching","Self","Self","Self","Self","l","Top",1,"SelfStrong","Strong","white","Self = Positive",716.927686,0.716927686,1
1,2,65,"Male",24,"Right","Ukrainian","Stranger","Matching","Stranger","Stranger","Stranger","Stranger","k","Top",2,"StrangerWeak","Weak","white","Self = Positive",733.493699,0.733493699,0
1,2,66,"Male",24,"Right","Ukrainian","Self","Matching","Self","Self","Self","Self","l","Top",2,"SelfWeak","Weak","white","Self = Positive",866.876935,0.866876935,1
1,2,67,"Male",24,"Right","Ukrainian","Self","Matching","Self","Self","Self","Self","l","Bottom",1,"SelfStrong","Strong","white","Self = Positive",916.861202,0.916861202,1
1,2,68,"Male",24,"Right","Ukrainian","Self","Matching","Self","Self","Self","Self","l","Bottom",1,"SelfStrong","Strong","white","Self = Positive",583.551951,0.583551951,1
1,2,69,"Male",24,"Right","Ukrainian","Self","Matching","Self","Self","Self","Self","l","Bottom",1,"SelfStrong","Strong","white","Self = Positive",533.557024,0.533557024,1
1,2,70,"Male",24,"Right","Ukrainian","Stranger","Nonmatching","Self","Stranger","Stranger","Stranger","k","Top",1,"StrangerStrong","Strong","white","Self = Positive",750.257111,0.750257111,1
1,2,71,"Male",24,"Right","Ukrainian","Self","Nonmatching","Stranger","Self","Self","Self","k","Top",2,"SelfWeak","Weak","white","Self = Positive",1083.527277,1.083527277,1
1,2,72,"Male",24,"Right","Ukrainian","Stranger","Nonmatching","Self","Stranger","Stranger","Stranger","k","Top",2,"StrangerWeak","Weak","white","Self = Positive",800.211768,0.800211768,1
1,2,73,"Male",24,"Right","Ukrainian","Stranger","Matching","Stranger","Stranger","Stranger","Stranger","l","Bottom",2,"StrangerWeak","Weak","white","Self = Positive",1116.869335,1.116869335,1
1,2,74,"Male",24,"Right","Ukrainian","Self","Matching","Self","Self","Self","Self","l","Bottom",1,"SelfStrong","Strong","white","Self = Positive",650.210801,0.650210801,1
1,2,75,"Male",24,"Right","Ukrainian","Self","Nonmatching","Stranger","Self","Self","Self","k","Bottom",1,"SelfStrong","Strong","white","Self = Positive",848.361816,0.848361816,1
1,2,76,"Male",24,"Right","Ukrainian","Stranger","Nonmatching","Self","Stranger","Stranger","Stranger","k","Top",1,"StrangerStrong","Strong","white","Self = Positive",800.213742,0.800213742,1
1,2,77,"Male",24,"Right","Ukrainian","Self","Nonmatching","Stranger","Self","Self","Self","k","Top",2,"SelfWeak","Weak","white","Self = Positive",1433.491765,1.433491765,1
1,2,78,"Male",24,"Right","Ukrainian","Self","Matching","Self","Self","Self","Self","l","Top",1,"SelfStrong","Strong","white","Self = Positive",783.577455,0.783577455,1
1,2,79,"Male",24,"Right","Ukrainian","Self","Matching","Self","Self","Self","Self","l","Bottom",2,"SelfWeak","Weak","white","Self = Positive",1550.211472,1.550211472,1
1,2,80,"Male",24,"Right","Ukrainian","Stranger","Matching","Stranger","Stranger","Stranger","Stranger","k","Bottom",2,"StrangerWeak","Weak","white","Self = Positive",733.544233,0.733544233,0
1,2,81,"Male",24,"Right","Ukrainian","Self","Nonmatching","Stranger","Self","Self","Self","k","Top",1,"SelfStrong","Strong","white","Self = Positive",950.446849,0.950446849,1
1,2,82,"Male",24,"Right","Ukrainian","Self","Nonmatching","Stranger","Self","Self","Self","k","Top",2,"SelfWeak","Weak","white","Self = Positive",1385.16327,1.38516327,1
1,2,83,"Male",24,"Right","Ukrainian","Stranger","Matching","Stranger","Stranger","Stranger","Stranger","l","Bottom",1,"StrangerStrong","Strong","white","Self = Positive",1433.518611,1.433518611,1
1,2,84,"Male",24,"Right","Ukrainian","Self","Matching","Self","Self","Self","Self","l","Top",2,"SelfWeak","Weak","white","Self = Positive",816.923856,0.816923856,1
1,2,85,"Male",24,"Right","Ukrainian","Stranger","Matching","Stranger","Stranger","Stranger","Stranger","k","Top",1,"StrangerStrong","Strong","white","Self = Positive",1016.883429,1.016883429,0
1,2,86,"Male",24,"Right","Ukrainian","Self","Matching","Self","Self","Self","Self","l","Top",1,"SelfStrong","Strong","white","Self = Positive",916.899892,0.916899892,1
1,2,87,"Male",24,"Right","Ukrainian","Self","Matching","Self","Self","Self","Self","l","Bottom",2,"SelfWeak","Weak","white","Self = Positive",900.207149,0.900207149,1
1,2,88,"Male",24,"Right","Ukrainian","Stranger","Nonmatching","Self","Stranger","Stranger","Stranger","k","Bottom",1,"StrangerStrong","Strong","white","Self = Positive",816.934121,0.816934121,1
1,2,89,"Male",24,"Right","Ukrainian","Stranger","Matching","Stranger","Stranger","Stranger","Stranger","l","Top",2,"StrangerWeak","Weak","white","Self = Positive",1333.578896,1.333578896,1
1,2,90,"Male",24,"Right","Ukrainian","Stranger","Nonmatching","Self","Stranger","Stranger","Stranger","k","Top",2,"StrangerWeak","Weak","white","Self = Positive",1100.168696,1.100168696,1
1,2,91,"Male",24,"Right","Ukrainian","Self","Matching","Self","Self","Self","Self","l","Bottom",1,"SelfStrong","Strong","white","Self = Positive",1100.191989,1.100191989,1
1,2,92,"Male",24,"Right","Ukrainian","Self","Matching","Self","Self","Self","Self","l","Bottom",2,"SelfWeak","Weak","white","Self = Positive",783.53837,0.78353837,1
1,2,93,"Male",24,"Right","Ukrainian","Stranger","Matching","Stranger","Stranger","Stranger","Stranger","l","Top",1,"StrangerStrong","Strong","white","Self = Positive",933.578422,0.933578422,1
1,2,94,"Male",24,"Right","Ukrainian","Self","Nonmatching","Stranger","Self","Self","Self","l","Top",2,"SelfWeak","Weak","white","Self = Positive",866.897069,0.866897069,0
1,2,95,"Male",24,"Right","Ukrainian","Stranger","Matching","Stranger","Stranger","Stranger","Stranger","l","Top",2,"StrangerWeak","Weak","white","Self = Positive",1033.523664,1.033523664,1
1,2,96,"Male",24,"Right","Ukrainian","Self","Nonmatching","Stranger","Self","Self","Self","k","Bottom",1,"SelfStrong","Strong","white","Self = Positive",966.870737,0.966870737,1
1,3,1,"Male",24,"Right","Ukrainian","Self","Nonmatching","Stranger","Self","Self","Self","k","Top",2,"SelfWeak","Weak","white","Self = Positive",1083.639398,1.083639398,1
1,3,2,"Male",24,"Right","Ukrainian","Stranger","Matching","Stranger","Stranger","Stranger","Stranger","l","Bottom",1,"StrangerStrong","Strong","white","Self = Positive",1000.256222,1.000256222,1
1,3,3,"Male",24,"Right","Ukrainian","Self","Matching","Self","Self","Self","Self","l","Top",2,"SelfWeak","Weak","white","Self = Positive",866.903781,0.866903781,1
1,3,4,"Male",24,"Right","Ukrainian","Stranger","Nonmatching","Self","Stranger","Stranger","Stranger","l","Bottom",2,"StrangerWeak","Weak","white","Self = Positive",733.508701,0.733508701,0
1,3,5,"Male",24,"Right","Ukrainian","Stranger","Matching","Stranger","Stranger","Stranger","Stranger","l","Bottom",2,"StrangerWeak","Weak","white","Self = Positive",866.863117,0.866863117,1
1,3,6,"Male",24,"Right","Ukrainian","Self","Matching","Self","Self","Self","Self","l","Bottom",2,"SelfWeak","Weak","white","Self = Positive",816.870164,0.816870164,1
1,3,7,"Male",24,"Right","Ukrainian","Stranger","Matching","Stranger","Stranger","Stranger","Stranger","l","Top",2,"StrangerWeak","Weak","white","Self = Positive",1017.115569,1.017115569,1
1,3,8,"Male",24,"Right","Ukrainian","Stranger","Nonmatching","Self","Stranger","Stranger","Stranger","k","Bottom",2,"StrangerWeak","Weak","white","Self = Positive",951.864165,0.951864165,1
1,3,9,"Male",24,"Right","Ukrainian","Stranger","Matching","Stranger","Stranger","Stranger","Stranger","k","Top",1,"StrangerStrong","Strong","white","Self = Positive",1050.183244,1.050183244,0
1,3,10,"Male",24,"Right","Ukrainian","Stranger","Matching","Stranger","Stranger","Stranger","Stranger","l","Bottom",1,"StrangerStrong","Strong","white","Self = Positive",766.890634,0.766890634,1
1,3,11,"Male",24,"Right","Ukrainian","Stranger","Nonmatching","Self","Stranger","Stranger","Stranger","k","Top",2,"StrangerWeak","Weak","white","Self = Positive",883.55586,0.88355586,1
1,3,12,"Male",24,"Right","Ukrainian","Stranger","Nonmatching","Self","Stranger","Stranger","Stranger","k","Bottom",1,"StrangerStrong","Strong","white","Self = Positive",900.221757,0.900221757,1
1,3,13,"Male",24,"Right","Ukrainian","Stranger","Nonmatching","Self","Stranger","Stranger","Stranger","k","Bottom",2,"StrangerWeak","Weak","white","Self = Positive",1033.526033,1.033526033,1
1,3,14,"Male",24,"Right","Ukrainian","Self","Nonmatching","Stranger","Self","Self","Self","k","Bottom",2,"SelfWeak","Weak","white","Self = Positive",1300.229337,1.300229337,1
1,3,15,"Male",24,"Right","Ukrainian","Stranger","Matching","Stranger","Stranger","Stranger","Stranger","l","Top",2,"StrangerWeak","Weak","white","Self = Positive",1066.872039,1.066872039,1
1,3,16,"Male",24,"Right","Ukrainian","Self","Nonmatching","Stranger","Self","Self","Self","k","Bottom",2,"SelfWeak","Weak","white","Self = Positive",1050.211275,1.050211275,1
1,3,17,"Male",24,"Right","Ukrainian","Stranger","Nonmatching","Self","Stranger","Stranger","Stranger","k","Top",1,"StrangerStrong","Strong","white","Self = Positive",950.189048,0.950189048,1
1,3,18,"Male",24,"Right","Ukrainian","Stranger","Matching","Stranger","Stranger","Stranger","Stranger","l","Bottom",2,"StrangerWeak","Weak","white","Self = Positive",1350.246372,1.350246372,1
1,3,19,"Male",24,"Right","Ukrainian","Stranger","Nonmatching","Self","Stranger","Stranger","Stranger","k","Bottom",1,"StrangerStrong","Strong","white","Self = Positive",1033.533139,1.033533139,1
1,3,20,"Male",24,"Right","Ukrainian","Self","Nonmatching","Stranger","Self","Self","Self","k","Top",2,"SelfWeak","Weak","white","Self = Positive",1166.832283,1.166832283,1
1,3,21,"Male",24,"Right","Ukrainian","Self","Matching","Self","Self","Self","Self","l","Bottom",1,"SelfStrong","Strong","white","Self = Positive",733.592398,0.733592398,1
1,3,22,"Male",24,"Right","Ukrainian","Stranger","Matching","Stranger","Stranger","Stranger","Stranger","k","Bottom",1,"StrangerStrong","Strong","white","Self = Positive",816.855162,0.816855162,0
1,3,23,"Male",24,"Right","Ukrainian","Stranger","Matching","Stranger","Stranger","Stranger","Stranger","l","Top",1,"StrangerStrong","Strong","white","Self = Positive",866.826401,0.866826401,1
1,3,24,"Male",24,"Right","Ukrainian","Self","Nonmatching","Stranger","Self","Self","Self","k","Top",1,"SelfStrong","Strong","white","Self = Positive",766.895766,0.766895766,1
1,3,25,"Male",24,"Right","Ukrainian","Self","Nonmatching","Stranger","Self","Self","Self","k","Bottom",1,"SelfStrong","Strong","white","Self = Positive",883.563756,0.883563756,1
1,3,26,"Male",24,"Right","Ukrainian","Self","Nonmatching","Stranger","Self","Self","Self","k","Bottom",2,"SelfWeak","Weak","white","Self = Positive",1264.960676,1.264960676,1
1,3,27,"Male",24,"Right","Ukrainian","Self","Matching","Self","Self","Self","Self","l","Top",2,"SelfWeak","Weak","white","Self = Positive",1250.220197,1.250220197,1
1,3,28,"Male",24,"Right","Ukrainian","Stranger","Nonmatching","Self","Stranger","Stranger","Stranger","k","Bottom",2,"StrangerWeak","Weak","white","Self = Positive",1050.232989,1.050232989,1
1,3,29,"Male",24,"Right","Ukrainian","Stranger","Nonmatching","Self","Stranger","Stranger","Stranger","k","Bottom",1,"StrangerStrong","Strong","white","Self = Positive",1016.869216,1.016869216,1
1,3,30,"Male",24,"Right","Ukrainian","Self","Nonmatching","Stranger","Self","Self","Self","k","Bottom",1,"SelfStrong","Strong","white","Self = Positive",916.900682,0.916900682,1
1,3,31,"Male",24,"Right","Ukrainian","Stranger","Matching","Stranger","Stranger","Stranger","Stranger","l","Bottom",2,"StrangerWeak","Weak","white","Self = Positive",850.211828,0.850211828,1
1,3,32,"Male",24,"Right","Ukrainian","Self","Nonmatching","Stranger","Self","Self","Self","k","Bottom",1,"SelfStrong","Strong","white","Self = Positive",966.870737,0.966870737,1
1,3,33,"Male",24,"Right","Ukrainian","Self","Nonmatching","Stranger","Self","Self","Self","k","Bottom",1,"SelfStrong","Strong","white","Self = Positive",735.172765,0.735172765,1
1,3,34,"Male",24,"Right","Ukrainian","Self","Matching","Self","Self","Self","Self","l","Bottom",1,"SelfStrong","Strong","white","Self = Positive",983.535449,0.983535449,1
1,3,35,"Male",24,"Right","Ukrainian","Self","Matching","Self","Self","Self","Self","l","Top",2,"SelfWeak","Weak","white","Self = Positive",1483.578679,1.483578679,1
1,3,36,"Male",24,"Right","Ukrainian","Self","Nonmatching","Stranger","Self","Self","Self","k","Bottom",2,"SelfWeak","Weak","white","Self = Positive",1350.176099,1.350176099,1
1,3,37,"Male",24,"Right","Ukrainian","Self","Nonmatching","Stranger","Self","Self","Self","k","Bottom",1,"SelfStrong","Strong","white","Self = Positive",816.87806,0.81687806,1
1,3,38,"Male",24,"Right","Ukrainian","Stranger","Nonmatching","Self","Stranger","Stranger","Stranger","k","Bottom",1,"StrangerStrong","Strong","white","Self = Positive",916.887654,0.916887654,1
1,3,39,"Male",24,"Right","Ukrainian","Self","Nonmatching","Stranger","Self","Self","Self","k","Bottom",2,"SelfWeak","Weak","white","Self = Positive",1100.208176,1.100208176,1
1,3,40,"Male",24,"Right","Ukrainian","Self","Matching","Self","Self","Self","Self","l","Top",2,"SelfWeak","Weak","white","Self = Positive",1283.506589,1.283506589,1
1,3,41,"Male",24,"Right","Ukrainian","Stranger","Nonmatching","Self","Stranger","Stranger","Stranger","k","Top",2,"StrangerWeak","Weak","white","Self = Positive",783.544292,0.783544292,1
1,3,42,"Male",24,"Right","Ukrainian","Stranger","Matching","Stranger","Stranger","Stranger","Stranger","l","Bottom",1,"StrangerStrong","Strong","white","Self = Positive",766.881159,0.766881159,1
1,3,43,"Male",24,"Right","Ukrainian","Self","Matching","Self","Self","Self","Self","l","Top",1,"SelfStrong","Strong","white","Self = Positive",816.942411,0.816942411,1
1,3,44,"Male",24,"Right","Ukrainian","Stranger","Nonmatching","Self","Stranger","Stranger","Stranger","k","Top",1,"StrangerStrong","Strong","white","Self = Positive",800.240193,0.800240193,1
1,3,45,"Male",24,"Right","Ukrainian","Self","Nonmatching","Stranger","Self","Self","Self","k","Top",2,"SelfWeak","Weak","white","Self = Positive",1066.907176,1.066907176,1
1,3,46,"Male",24,"Right","Ukrainian","Stranger","Nonmatching","Self","Stranger","Stranger","Stranger","k","Bottom",2,"StrangerWeak","Weak","white","Self = Positive",1116.883548,1.116883548,1
1,3,47,"Male",24,"Right","Ukrainian","Self","Matching","Self","Self","Self","Self","l","Top",1,"SelfStrong","Strong","white","Self = Positive",733.562788,0.733562788,1
1,3,48,"Male",24,"Right","Ukrainian","Stranger","Nonmatching","Self","Stranger","Stranger","Stranger","k","Top",1,"StrangerStrong","Strong","white","Self = Positive",716.879915,0.716879915,1
1,3,49,"Male",24,"Right","Ukrainian","Stranger","Nonmatching","Self","Stranger","Stranger","Stranger","k","Top",1,"StrangerStrong","Strong","white","Self = Positive",966.873895,0.966873895,1
1,3,50,"Male",24,"Right","Ukrainian","Self","Nonmatching","Stranger","Self","Self","Self","k","Top",2,"SelfWeak","Weak","white","Self = Positive",1183.528185,1.183528185,1
1,3,51,"Male",24,"Right","Ukrainian","Self","Matching","Self","Self","Self","Self","l","Top",1,"SelfStrong","Strong","white","Self = Positive",733.545417,0.733545417,1
1,3,52,"Male",24,"Right","Ukrainian","Self","Matching","Self","Self","Self","Self","l","Bottom",1,"SelfStrong","Strong","white","Self = Positive",700.262184,0.700262184,1
1,3,53,"Male",24,"Right","Ukrainian","Self","Matching","Self","Self","Self","Self","l","Bottom",2,"SelfWeak","Weak","white","Self = Positive",716.905972,0.716905972,1
1,3,54,"Male",24,"Right","Ukrainian","Stranger","Nonmatching","Self","Stranger","Stranger","Stranger","k","Top",1,"StrangerStrong","Strong","white","Self = Positive",766.84089,0.76684089,1
1,3,55,"Male",24,"Right","Ukrainian","Self","Matching","Self","Self","Self","Self","l","Bottom",2,"SelfWeak","Weak","white","Self = Positive",900.209913,0.900209913,1
1,3,56,"Male",24,"Right","Ukrainian","Stranger","Matching","Stranger","Stranger","Stranger","Stranger","k","Top",2,"StrangerWeak","Weak","white","Self = Positive",1000.195424,1.000195424,0
1,3,57,"Male",24,"Right","Ukrainian","Stranger","Matching","Stranger","Stranger","Stranger","Stranger","l","Bottom",2,"StrangerWeak","Weak","white","Self = Positive",783.568375,0.783568375,1
1,3,58,"Male",24,"Right","Ukrainian","Stranger","Nonmatching","Self","Stranger","Stranger","Stranger","k","Bottom",2,"StrangerWeak","Weak","white","Self = Positive",916.875809,0.916875809,1
1,3,59,"Male",24,"Right","Ukrainian","Stranger","Matching","Stranger","Stranger","Stranger","Stranger","l","Bottom",1,"StrangerStrong","Strong","white","Self = Positive",733.614902,0.733614902,1
1,3,60,"Male",24,"Right","Ukrainian","Self","Matching","Self","Self","Self","Self","l","Bottom",1,"SelfStrong","Strong","white","Self = Positive",683.584048,0.683584048,1
1,3,61,"Male",24,"Right","Ukrainian","Stranger","Matching","Stranger","Stranger","Stranger","Stranger","l","Top",2,"StrangerWeak","Weak","white","Self = Positive",1350.20255,1.35020255,1
1,3,62,"Male",24,"Right","Ukrainian","Stranger","Nonmatching","Self","Stranger","Stranger","Stranger","k","Top",2,"StrangerWeak","Weak","white","Self = Positive",900.196885,0.900196885,1
1,3,63,"Male",24,"Right","Ukrainian","Self","Nonmatching","Stranger","Self","Self","Self","k","Top",1,"SelfStrong","Strong","white","Self = Positive",866.861143,0.866861143,1
1,3,64,"Male",24,"Right","Ukrainian","Self","Matching","Self","Self","Self","Self","l","Top",1,"SelfStrong","Strong","white","Self = Positive",950.228133,0.950228133,1
1,3,65,"Male",24,"Right","Ukrainian","Self","Matching","Self","Self","Self","Self","l","Top",1,"SelfStrong","Strong","white","Self = Positive",633.544904,0.633544904,1
1,3,66,"Male",24,"Right","Ukrainian","Self","Matching","Self","Self","Self","Self","l","Top",1,"SelfStrong","Strong","white","Self = Positive",550.211472,0.550211472,1
1,3,67,"Male",24,"Right","Ukrainian","Self","Nonmatching","Stranger","Self","Self","Self","l","Top",1,"SelfStrong","Strong","white","Self = Positive",866.908913,0.866908913,0
1,3,68,"Male",24,"Right","Ukrainian","Self","Nonmatching","Stranger","Self","Self","Self","k","Bottom",2,"SelfWeak","Weak","white","Self = Positive",1166.832678,1.166832678,1
1,3,69,"Male",24,"Right","Ukrainian","Self","Nonmatching","Stranger","Self","Self","Self","l","Bottom",1,"SelfStrong","Strong","white","Self = Positive",1000.193845,1.000193845,0
1,3,70,"Male",24,"Right","Ukrainian","Self","Nonmatching","Stranger","Self","Self","Self","k","Top",1,"SelfStrong","Strong","white","Self = Positive",1116.878021,1.116878021,1
1,3,71,"Male",24,"Right","Ukrainian","Self","Nonmatching","Stranger","Self","Self","Self","k","Top",2,"SelfWeak","Weak","white","Self = Positive",1000.201741,1.000201741,1
1,3,72,"Male",24,"Right","Ukrainian","Self","Matching","Self","Self","Self","Self","None","Bottom",2,"SelfWeak","Weak","white","Self = Positive",NA,NA,3
1,3,73,"Male",24,"Right","Ukrainian","Self","Nonmatching","Stranger","Self","Self","Self","k","Top",2,"SelfWeak","Weak","white","Self = Positive",950.245898,0.950245898,1
1,3,74,"Male",24,"Right","Ukrainian","Stranger","Nonmatching","Self","Stranger","Stranger","Stranger","k","Top",2,"StrangerWeak","Weak","white","Self = Positive",1400.216822,1.400216822,1
1,3,75,"Male",24,"Right","Ukrainian","Stranger","Nonmatching","Self","Stranger","Stranger","Stranger","k","Top",2,"StrangerWeak","Weak","white","Self = Positive",700.234153,0.700234153,1
1,3,76,"Male",24,"Right","Ukrainian","Stranger","Nonmatching","Self","Stranger","Stranger","Stranger","k","Top",2,"StrangerWeak","Weak","white","Self = Positive",750.265401,0.750265401,1
1,3,77,"Male",24,"Right","Ukrainian","Stranger","Matching","Stranger","Stranger","Stranger","Stranger","l","Top",2,"StrangerWeak","Weak","white","Self = Positive",1066.875592,1.066875592,1
1,3,78,"Male",24,"Right","Ukrainian","Self","Matching","Self","Self","Self","Self","l","Bottom",1,"SelfStrong","Strong","white","Self = Positive",800.205451,0.800205451,1
1,3,79,"Male",24,"Right","Ukrainian","Self","Nonmatching","Stranger","Self","Self","Self","k","Top",1,"SelfStrong","Strong","white","Self = Positive",900.237154,0.900237154,1
1,3,80,"Male",24,"Right","Ukrainian","Stranger","Matching","Stranger","Stranger","Stranger","Stranger","l","Top",1,"StrangerStrong","Strong","white","Self = Positive",1250.184666,1.250184666,1
1,3,81,"Male",24,"Right","Ukrainian","Stranger","Matching","Stranger","Stranger","Stranger","Stranger","l","Bottom",2,"StrangerWeak","Weak","white","Self = Positive",1216.837475,1.216837475,1
1,3,82,"Male",24,"Right","Ukrainian","Stranger","Matching","Stranger","Stranger","Stranger","Stranger","l","Top",1,"StrangerStrong","Strong","white","Self = Positive",666.919731,0.666919731,1
1,3,83,"Male",24,"Right","Ukrainian","Stranger","Nonmatching","Self","Stranger","Stranger","Stranger","k","Top",1,"StrangerStrong","Strong","white","Self = Positive",1200.160919,1.200160919,1
1,3,84,"Male",24,"Right","Ukrainian","Stranger","Matching","Stranger","Stranger","Stranger","Stranger","l","Top",2,"StrangerWeak","Weak","white","Self = Positive",1435.203993,1.435203993,1
1,3,85,"Male",24,"Right","Ukrainian","Self","Matching","Self","Self","Self","Self","k","Bottom",2,"SelfWeak","Weak","white","Self = Positive",1550.174756,1.550174756,0
1,3,86,"Male",24,"Right","Ukrainian","Stranger","Matching","Stranger","Stranger","Stranger","Stranger","k","Bottom",2,"StrangerWeak","Weak","white","Self = Positive",1016.856978,1.016856978,0
1,3,87,"Male",24,"Right","Ukrainian","Self","Matching","Self","Self","Self","Self","l","Top",2,"SelfWeak","Weak","white","Self = Positive",833.585805,0.833585805,1
1,3,88,"Male",24,"Right","Ukrainian","Self","Matching","Self","Self","Self","Self","k","Top",2,"SelfWeak","Weak","white","Self = Positive",1166.864262,1.166864262,0
1,3,89,"Male",24,"Right","Ukrainian","Stranger","Nonmatching","Self","Stranger","Stranger","Stranger","k","Bottom",1,"StrangerStrong","Strong","white","Self = Positive",1166.885976,1.166885976,1
1,3,90,"Male",24,"Right","Ukrainian","Self","Nonmatching","Stranger","Self","Self","Self","k","Top",1,"SelfStrong","Strong","white","Self = Positive",1100.243707,1.100243707,1
1,3,91,"Male",24,"Right","Ukrainian","Stranger","Matching","Stranger","Stranger","Stranger","Stranger","l","Top",1,"StrangerStrong","Strong","white","Self = Positive",1250.307052,1.250307052,1
1,3,92,"Male",24,"Right","Ukrainian","Stranger","Matching","Stranger","Stranger","Stranger","Stranger","l","Bottom",1,"StrangerStrong","Strong","white","Self = Positive",1466.851589,1.466851589,1
1,3,93,"Male",24,"Right","Ukrainian","Stranger","Nonmatching","Self","Stranger","Stranger","Stranger","k","Bottom",1,"StrangerStrong","Strong","white","Self = Positive",1300.286582,1.300286582,1
1,3,94,"Male",24,"Right","Ukrainian","Stranger","Matching","Stranger","Stranger","Stranger","Stranger","l","Top",1,"StrangerStrong","Strong","white","Self = Positive",933.54447,0.93354447,1
1,3,95,"Male",24,"Right","Ukrainian","Self","Matching","Self","Self","Self","Self","l","Bottom",1,"SelfStrong","Strong","white","Self = Positive",1183.576745,1.183576745,1
1,3,96,"Male",24,"Right","Ukrainian","Self","Matching","Self","Self","Self","Self","l","Bottom",2,"SelfWeak","Weak","white","Self = Positive",983.554004,0.983554004,1
1,4,1,"Male",24,"Right","Ukrainian","Self","Matching","Self","Self","Self","Self","k","Bottom",2,"SelfWeak","Weak","white","Self = Positive",1016.845134,1.016845134,0
1,4,2,"Male",24,"Right","Ukrainian","Self","Matching","Self","Self","Self","Self","l","Top",2,"SelfWeak","Weak","white","Self = Positive",800.210979,0.800210979,1
1,4,3,"Male",24,"Right","Ukrainian","Stranger","Matching","Stranger","Stranger","Stranger","Stranger","l","Bottom",1,"StrangerStrong","Strong","white","Self = Positive",850.203537,0.850203537,1
1,4,4,"Male",24,"Right","Ukrainian","Self","Nonmatching","Stranger","Self","Self","Self","k","Bottom",2,"SelfWeak","Weak","white","Self = Positive",983.536633,0.983536633,1
1,4,5,"Male",24,"Right","Ukrainian","Stranger","Matching","Stranger","Stranger","Stranger","Stranger","l","Bottom",1,"StrangerStrong","Strong","white","Self = Positive",950.212341,0.950212341,1
1,4,6,"Male",24,"Right","Ukrainian","Self","Matching","Self","Self","Self","Self","l","Bottom",1,"SelfStrong","Strong","white","Self = Positive",950.239976,0.950239976,1
1,4,7,"Male",24,"Right","Ukrainian","Self","Matching","Self","Self","Self","Self","l","Bottom",1,"SelfStrong","Strong","white","Self = Positive",916.876204,0.916876204,1
1,4,8,"Male",24,"Right","Ukrainian","Self","Nonmatching","Stranger","Self","Self","Self","k","Bottom",1,"SelfStrong","Strong","white","Self = Positive",983.564269,0.983564269,1
1,4,9,"Male",24,"Right","Ukrainian","Self","Matching","Self","Self","Self","Self","l","Bottom",1,"SelfStrong","Strong","white","Self = Positive",766.925376,0.766925376,1
1,4,10,"Male",24,"Right","Ukrainian","Self","Nonmatching","Stranger","Self","Self","Self","l","Bottom",1,"SelfStrong","Strong","white","Self = Positive",1316.882995,1.316882995,0
1,4,11,"Male",24,"Right","Ukrainian","Self","Matching","Self","Self","Self","Self","l","Top",1,"SelfStrong","Strong","white","Self = Positive",1016.866453,1.016866453,1
1,4,12,"Male",24,"Right","Ukrainian","Self","Matching","Self","Self","Self","Self","l","Top",2,"SelfWeak","Weak","white","Self = Positive",1016.9008,1.0169008,1
1,4,13,"Male",24,"Right","Ukrainian","Self","Nonmatching","Stranger","Self","Self","Self","k","Top",2,"SelfWeak","Weak","white","Self = Positive",866.88562,0.86688562,1
1,4,14,"Male",24,"Right","Ukrainian","Self","Nonmatching","Stranger","Self","Self","Self","k","Bottom",2,"SelfWeak","Weak","white","Self = Positive",1616.9023,1.6169023,1
1,4,15,"Male",24,"Right","Ukrainian","Stranger","Nonmatching","Self","Stranger","Stranger","Stranger","k","Top",2,"StrangerWeak","Weak","white","Self = Positive",866.933785,0.866933785,1
1,4,16,"Male",24,"Right","Ukrainian","Stranger","Nonmatching","Self","Stranger","Stranger","Stranger","k","Top",1,"StrangerStrong","Strong","white","Self = Positive",1266.829243,1.266829243,1
1,4,17,"Male",24,"Right","Ukrainian","Stranger","Matching","Stranger","Stranger","Stranger","Stranger","l","Top",2,"StrangerWeak","Weak","white","Self = Positive",1016.860926,1.016860926,1
1,4,18,"Male",24,"Right","Ukrainian","Stranger","Matching","Stranger","Stranger","Stranger","Stranger","l","Top",1,"StrangerStrong","Strong","white","Self = Positive",1216.859978,1.216859978,1
1,4,19,"Male",24,"Right","Ukrainian","Stranger","Matching","Stranger","Stranger","Stranger","Stranger","l","Bottom",2,"StrangerWeak","Weak","white","Self = Positive",1466.958184,1.466958184,1
1,4,20,"Male",24,"Right","Ukrainian","Self","Nonmatching","Stranger","Self","Self","Self","None","Top",1,"SelfStrong","Strong","white","Self = Positive",NA,NA,3
1,4,21,"Male",24,"Right","Ukrainian","Self","Nonmatching","Stranger","Self","Self","Self","k","Bottom",1,"SelfStrong","Strong","white","Self = Positive",1150.247714,1.150247714,1
1,4,22,"Male",24,"Right","Ukrainian","Stranger","Nonmatching","Self","Stranger","Stranger","Stranger","k","Bottom",1,"StrangerStrong","Strong","white","Self = Positive",866.842587,0.866842587,1
1,4,23,"Male",24,"Right","Ukrainian","Stranger","Matching","Stranger","Stranger","Stranger","Stranger","l","Bottom",2,"StrangerWeak","Weak","white","Self = Positive",1133.592477,1.133592477,1
1,4,24,"Male",24,"Right","Ukrainian","Self","Matching","Self","Self","Self","Self","l","Bottom",1,"SelfStrong","Strong","white","Self = Positive",1233.510873,1.233510873,1
1,4,25,"Male",24,"Right","Ukrainian","Self","Matching","Self","Self","Self","Self","k","Bottom",2,"SelfWeak","Weak","white","Self = Positive",1316.799298,1.316799298,0
1,4,26,"Male",24,"Right","Ukrainian","Stranger","Matching","Stranger","Stranger","Stranger","Stranger","l","Top",2,"StrangerWeak","Weak","white","Self = Positive",1116.85986,1.11685986,1
1,4,27,"Male",24,"Right","Ukrainian","Stranger","Nonmatching","Self","Stranger","Stranger","Stranger","k","Top",1,"StrangerStrong","Strong","white","Self = Positive",1200.22527,1.20022527,1
1,4,28,"Male",24,"Right","Ukrainian","Stranger","Nonmatching","Self","Stranger","Stranger","Stranger","k","Bottom",2,"StrangerWeak","Weak","white","Self = Positive",1300.163801,1.300163801,1
1,4,29,"Male",24,"Right","Ukrainian","Stranger","Nonmatching","Self","Stranger","Stranger","Stranger","k","Top",2,"StrangerWeak","Weak","white","Self = Positive",933.518808,0.933518808,1
1,4,30,"Male",24,"Right","Ukrainian","Stranger","Nonmatching","Self","Stranger","Stranger","Stranger","k","Top",1,"StrangerStrong","Strong","white","Self = Positive",816.907275,0.816907275,1
1,4,31,"Male",24,"Right","Ukrainian","Self","Matching","Self","Self","Self","Self","l","Top",2,"SelfWeak","Weak","white","Self = Positive",868.50665,0.86850665,1
1,4,32,"Male",24,"Right","Ukrainian","Self","Nonmatching","Stranger","Self","Self","Self","k","Top",2,"SelfWeak","Weak","white","Self = Positive",816.890298,0.816890298,1
1,4,33,"Male",24,"Right","Ukrainian","Self","Nonmatching","Stranger","Self","Self","Self","k","Bottom",2,"SelfWeak","Weak","white","Self = Positive",1100.212913,1.100212913,1
1,4,34,"Male",24,"Right","Ukrainian","Stranger","Matching","Stranger","Stranger","Stranger","Stranger","l","Top",2,"StrangerWeak","Weak","white","Self = Positive",1033.549326,1.033549326,1
1,4,35,"Male",24,"Right","Ukrainian","Self","Matching","Self","Self","Self","Self","l","Top",2,"SelfWeak","Weak","white","Self = Positive",1200.211452,1.200211452,1
1,4,36,"Male",24,"Right","Ukrainian","Stranger","Matching","Stranger","Stranger","Stranger","Stranger","l","Top",1,"StrangerStrong","Strong","white","Self = Positive",1016.860136,1.016860136,1
1,4,37,"Male",24,"Right","Ukrainian","Self","Nonmatching","Stranger","Self","Self","Self","k","Bottom",1,"SelfStrong","Strong","white","Self = Positive",966.885739,0.966885739,1
1,4,38,"Male",24,"Right","Ukrainian","Stranger","Matching","Stranger","Stranger","Stranger","Stranger","l","Bottom",1,"StrangerStrong","Strong","white","Self = Positive",1316.869177,1.316869177,1
1,4,39,"Male",24,"Right","Ukrainian","Self","Nonmatching","Stranger","Self","Self","Self","k","Top",1,"SelfStrong","Strong","white","Self = Positive",850.211828,0.850211828,1
1,4,40,"Male",24,"Right","Ukrainian","Stranger","Nonmatching","Self","Stranger","Stranger","Stranger","k","Bottom",2,"StrangerWeak","Weak","white","Self = Positive",983.582824,0.983582824,1
1,4,41,"Male",24,"Right","Ukrainian","Stranger","Nonmatching","Self","Stranger","Stranger","Stranger","k","Top",1,"StrangerStrong","Strong","white","Self = Positive",1400.211294,1.400211294,1
1,4,42,"Male",24,"Right","Ukrainian","Stranger","Nonmatching","Self","Stranger","Stranger","Stranger","k","Bottom",1,"StrangerStrong","Strong","white","Self = Positive",816.883587,0.816883587,1
1,4,43,"Male",24,"Right","Ukrainian","Stranger","Matching","Stranger","Stranger","Stranger","Stranger","l","Bottom",2,"StrangerWeak","Weak","white","Self = Positive",1450.288734,1.450288734,1
1,4,44,"Male",24,"Right","Ukrainian","Self","Nonmatching","Stranger","Self","Self","Self","k","Bottom",2,"SelfWeak","Weak","white","Self = Positive",1200.181053,1.200181053,1
1,4,45,"Male",24,"Right","Ukrainian","Stranger","Nonmatching","Self","Stranger","Stranger","Stranger","k","Bottom",2,"StrangerWeak","Weak","white","Self = Positive",1383.503944,1.383503944,1
1,4,46,"Male",24,"Right","Ukrainian","Self","Nonmatching","Stranger","Self","Self","Self","k","Top",1,"SelfStrong","Strong","white","Self = Positive",916.875415,0.916875415,1
1,4,47,"Male",24,"Right","Ukrainian","Stranger","Nonmatching","Self","Stranger","Stranger","Stranger","k","Top",1,"StrangerStrong","Strong","white","Self = Positive",1283.528698,1.283528698,1
1,4,48,"Male",24,"Right","Ukrainian","Self","Matching","Self","Self","Self","Self","l","Bottom",2,"SelfWeak","Weak","white","Self = Positive",1014.968276,1.014968276,1
1,4,49,"Male",24,"Right","Ukrainian","Self","Matching","Self","Self","Self","Self","l","Bottom",2,"SelfWeak","Weak","white","Self = Positive",683.511406,0.683511406,1
1,4,50,"Male",24,"Right","Ukrainian","Self","Nonmatching","Stranger","Self","Self","Self","k","Bottom",1,"SelfStrong","Strong","white","Self = Positive",816.86819,0.81686819,1
1,4,51,"Male",24,"Right","Ukrainian","Stranger","Matching","Stranger","Stranger","Stranger","Stranger","l","Bottom",1,"StrangerStrong","Strong","white","Self = Positive",916.873441,0.916873441,1
1,4,52,"Male",24,"Right","Ukrainian","Self","Matching","Self","Self","Self","Self","k","Top",2,"SelfWeak","Weak","white","Self = Positive",1650.212775,1.650212775,0
1,4,53,"Male",24,"Right","Ukrainian","Self","Matching","Self","Self","Self","Self","l","Top",1,"SelfStrong","Strong","white","Self = Positive",700.188752,0.700188752,1
1,4,54,"Male",24,"Right","Ukrainian","Self","Nonmatching","Stranger","Self","Self","Self","k","Top",1,"SelfStrong","Strong","white","Self = Positive",983.536633,0.983536633,1
1,4,55,"Male",24,"Right","Ukrainian","Stranger","Matching","Stranger","Stranger","Stranger","Stranger","l","Bottom",2,"StrangerWeak","Weak","white","Self = Positive",1135.234037,1.135234037,1
1,4,56,"Male",24,"Right","Ukrainian","Stranger","Nonmatching","Self","Stranger","Stranger","Stranger","k","Top",2,"StrangerWeak","Weak","white","Self = Positive",1266.836745,1.266836745,1
1,4,57,"Male",24,"Right","Ukrainian","Stranger","Matching","Stranger","Stranger","Stranger","Stranger","l","Bottom",1,"StrangerStrong","Strong","white","Self = Positive",900.364278,0.900364278,1
1,4,58,"Male",24,"Right","Ukrainian","Self","Nonmatching","Stranger","Self","Self","Self","k","Top",2,"SelfWeak","Weak","white","Self = Positive",1066.862169,1.066862169,1
1,4,59,"Male",24,"Right","Ukrainian","Self","Nonmatching","Stranger","Self","Self","Self","k","Bottom",2,"SelfWeak","Weak","white","Self = Positive",800.255196,0.800255196,1
1,4,60,"Male",24,"Right","Ukrainian","Self","Matching","Self","Self","Self","Self","l","Top",1,"SelfStrong","Strong","white","Self = Positive",916.882916,0.916882916,1
1,4,61,"Male",24,"Right","Ukrainian","Self","Matching","Self","Self","Self","Self","l","Top",1,"SelfStrong","Strong","white","Self = Positive",950.230501,0.950230501,1
1,4,62,"Male",24,"Right","Ukrainian","Stranger","Matching","Stranger","Stranger","Stranger","Stranger","l","Bottom",1,"StrangerStrong","Strong","white","Self = Positive",1550.147121,1.550147121,1
1,4,63,"Male",24,"Right","Ukrainian","Stranger","Nonmatching","Self","Stranger","Stranger","Stranger","k","Top",1,"StrangerStrong","Strong","white","Self = Positive",816.884377,0.816884377,1
1,4,64,"Male",24,"Right","Ukrainian","Stranger","Matching","Stranger","Stranger","Stranger","Stranger","l","Top",2,"StrangerWeak","Weak","white","Self = Positive",1233.537324,1.233537324,1
1,4,65,"Male",24,"Right","Ukrainian","Self","Nonmatching","Stranger","Self","Self","Self","k","Top",2,"SelfWeak","Weak","white","Self = Positive",866.917599,0.866917599,1
1,4,66,"Male",24,"Right","Ukrainian","Stranger","Matching","Stranger","Stranger","Stranger","Stranger","l","Top",1,"StrangerStrong","Strong","white","Self = Positive",883.538094,0.883538094,1
1,4,67,"Male",24,"Right","Ukrainian","Stranger","Nonmatching","Self","Stranger","Stranger","Stranger","k","Bottom",1,"StrangerStrong","Strong","white","Self = Positive",983.538212,0.983538212,1
1,4,68,"Male",24,"Right","Ukrainian","Self","Matching","Self","Self","Self","Self","l","Bottom",2,"SelfWeak","Weak","white","Self = Positive",1083.559255,1.083559255,1
1,4,69,"Male",24,"Right","Ukrainian","Stranger","Matching","Stranger","Stranger","Stranger","Stranger","l","Top",1,"StrangerStrong","Strong","white","Self = Positive",1116.867756,1.116867756,1
1,4,70,"Male",24,"Right","Ukrainian","Self","Matching","Self","Self","Self","Self","l","Bottom",1,"SelfStrong","Strong","white","Self = Positive",783.550214,0.783550214,1
1,4,71,"Male",24,"Right","Ukrainian","Stranger","Matching","Stranger","Stranger","Stranger","Stranger","l","Top",1,"StrangerStrong","Strong","white","Self = Positive",1100.211729,1.100211729,1
1,4,72,"Male",24,"Right","Ukrainian","Stranger","Nonmatching","Self","Stranger","Stranger","Stranger","l","Bottom",1,"StrangerStrong","Strong","white","Self = Positive",783.569165,0.783569165,0
1,4,73,"Male",24,"Right","Ukrainian","Stranger","Matching","Stranger","Stranger","Stranger","Stranger","l","Top",2,"StrangerWeak","Weak","white","Self = Positive",1431.647675,1.431647675,1
1,4,74,"Male",24,"Right","Ukrainian","Self","Nonmatching","Stranger","Self","Self","Self","k","Top",1,"SelfStrong","Strong","white","Self = Positive",850.218934,0.850218934,1
1,4,75,"Male",24,"Right","Ukrainian","Self","Matching","Self","Self","Self","Self","l","Top",1,"SelfStrong","Strong","white","Self = Positive",800.221638,0.800221638,1
1,4,76,"Male",24,"Right","Ukrainian","Stranger","Matching","Stranger","Stranger","Stranger","Stranger","l","Top",1,"StrangerStrong","Strong","white","Self = Positive",1383.501575,1.383501575,1
1,4,77,"Male",24,"Right","Ukrainian","Stranger","Nonmatching","Self","Stranger","Stranger","Stranger","k","Bottom",2,"StrangerWeak","Weak","white","Self = Positive",1083.573073,1.083573073,1
1,4,78,"Male",24,"Right","Ukrainian","Stranger","Matching","Stranger","Stranger","Stranger","Stranger","l","Bottom",2,"StrangerWeak","Weak","white","Self = Positive",1517.094448,1.517094448,1
1,4,79,"Male",24,"Right","Ukrainian","Stranger","Nonmatching","Self","Stranger","Stranger","Stranger","k","Bottom",2,"StrangerWeak","Weak","white","Self = Positive",883.537699,0.883537699,1
1,4,80,"Male",24,"Right","Ukrainian","Self","Matching","Self","Self","Self","Self","l","Top",1,"SelfStrong","Strong","white","Self = Positive",933.551576,0.933551576,1
1,4,81,"Male",24,"Right","Ukrainian","Stranger","Nonmatching","Self","Stranger","Stranger","Stranger","k","Top",2,"StrangerWeak","Weak","white","Self = Positive",900.23439,0.90023439,1
1,4,82,"Male",24,"Right","Ukrainian","Self","Nonmatching","Stranger","Self","Self","Self","k","Bottom",2,"SelfWeak","Weak","white","Self = Positive",1316.85457,1.31685457,1
1,4,83,"Male",24,"Right","Ukrainian","Stranger","Nonmatching","Self","Stranger","Stranger","Stranger","k","Bottom",1,"StrangerStrong","Strong","white","Self = Positive",850.223277,0.850223277,1
1,4,84,"Male",24,"Right","Ukrainian","Self","Matching","Self","Self","Self","Self","l","Top",2,"SelfWeak","Weak","white","Self = Positive",1100.201464,1.100201464,1
1,4,85,"Male",24,"Right","Ukrainian","Stranger","Nonmatching","Self","Stranger","Stranger","Stranger","k","Bottom",1,"StrangerStrong","Strong","white","Self = Positive",1033.531955,1.033531955,1
1,4,86,"Male",24,"Right","Ukrainian","Self","Nonmatching","Stranger","Self","Self","Self","k","Bottom",1,"SelfStrong","Strong","white","Self = Positive",1183.537265,1.183537265,1
1,4,87,"Male",24,"Right","Ukrainian","Stranger","Matching","Stranger","Stranger","Stranger","Stranger","l","Bottom",2,"StrangerWeak","Weak","white","Self = Positive",1683.527987,1.683527987,1
1,4,88,"Male",24,"Right","Ukrainian","Stranger","Matching","Stranger","Stranger","Stranger","Stranger","None","Top",2,"StrangerWeak","Weak","white","Self = Positive",NA,NA,3
1,4,89,"Male",24,"Right","Ukrainian","Stranger","Nonmatching","Self","Stranger","Stranger","Stranger","k","Top",2,"StrangerWeak","Weak","white","Self = Positive",1066.857037,1.066857037,1
1,4,90,"Male",24,"Right","Ukrainian","Self","Nonmatching","Stranger","Self","Self","Self","None","Top",2,"SelfWeak","Weak","white","Self = Positive",NA,NA,3
1,4,91,"Male",24,"Right","Ukrainian","Stranger","Nonmatching","Self","Stranger","Stranger","Stranger","k","Top",2,"StrangerWeak","Weak","white","Self = Positive",983.550451,0.983550451,1
1,4,92,"Male",24,"Right","Ukrainian","Self","Matching","Self","Self","Self","Self","l","Bottom",2,"SelfWeak","Weak","white","Self = Positive",850.197615,0.850197615,1
1,4,93,"Male",24,"Right","Ukrainian","Stranger","Nonmatching","Self","Stranger","Stranger","Stranger","k","Bottom",2,"StrangerWeak","Weak","white","Self = Positive",1233.53535,1.23353535,1
1,4,94,"Male",24,"Right","Ukrainian","Self","Nonmatching","Stranger","Self","Self","Self","k","Top",1,"SelfStrong","Strong","white","Self = Positive",1333.497963,1.333497963,1
1,4,95,"Male",24,"Right","Ukrainian","Self","Matching","Self","Self","Self","Self","l","Bottom",1,"SelfStrong","Strong","white","Self = Positive",750.212893,0.750212893,1
1,4,96,"Male",24,"Right","Ukrainian","Self","Nonmatching","Stranger","Self","Self","Self","k","Top",2,"SelfWeak","Weak","white","Self = Positive",981.647932,0.981647932,1
2,1,1,"Male",32,"Right","Hungarian","Self","Nonmatching","Stranger","Self","Self","Self","l","Top",1,"SelfStrong","Strong","white","Self = Positive",1050.183639,1.050183639,1
2,1,2,"Male",32,"Right","Hungarian","Self","Nonmatching","Stranger","Self","Self","Self","l","Bottom",2,"SelfWeak","Weak","white","Self = Positive",1333.556393,1.333556393,1
2,1,3,"Male",32,"Right","Hungarian","Self","Matching","Self","Self","Self","Self","l","Top",1,"SelfStrong","Strong","white","Self = Positive",1500.181803,1.500181803,0
2,1,4,"Male",32,"Right","Hungarian","Stranger","Matching","Stranger","Stranger","Stranger","Stranger","l","Top",2,"StrangerWeak","Weak","white","Self = Positive",933.520782,0.933520782,0
2,1,5,"Male",32,"Right","Hungarian","Self","Matching","Self","Self","Self","Self","k","Top",2,"SelfWeak","Weak","white","Self = Positive",833.636733,0.833636733,1
2,1,6,"Male",32,"Right","Hungarian","Stranger","Nonmatching","Self","Stranger","Stranger","Stranger","k","Top",2,"StrangerWeak","Weak","white","Self = Positive",1266.844246,1.266844246,0
2,1,7,"Male",32,"Right","Hungarian","Stranger","Nonmatching","Self","Stranger","Stranger","Stranger","l","Top",1,"StrangerStrong","Strong","white","Self = Positive",1300.176039,1.300176039,1
2,1,8,"Male",32,"Right","Hungarian","Stranger","Matching","Stranger","Stranger","Stranger","Stranger","l","Bottom",2,"StrangerWeak","Weak","white","Self = Positive",1016.894878,1.016894878,0
2,1,9,"Male",32,"Right","Hungarian","Stranger","Nonmatching","Self","Stranger","Stranger","Stranger","l","Bottom",1,"StrangerStrong","Strong","white","Self = Positive",1416.884692,1.416884692,1
2,1,10,"Male",32,"Right","Hungarian","Self","Nonmatching","Stranger","Self","Self","Self","l","Top",2,"SelfWeak","Weak","white","Self = Positive",1000.189897,1.000189897,1
2,1,11,"Male",32,"Right","Hungarian","Stranger","Matching","Stranger","Stranger","Stranger","Stranger","k","Top",1,"StrangerStrong","Strong","white","Self = Positive",983.536633,0.983536633,1
2,1,12,"Male",32,"Right","Hungarian","Stranger","Nonmatching","Self","Stranger","Stranger","Stranger","l","Bottom",1,"StrangerStrong","Strong","white","Self = Positive",1066.838087,1.066838087,1
2,1,13,"Male",32,"Right","Hungarian","Stranger","Matching","Stranger","Stranger","Stranger","Stranger","k","Top",1,"StrangerStrong","Strong","white","Self = Positive",933.585134,0.933585134,1
2,1,14,"Male",32,"Right","Hungarian","Self","Matching","Self","Self","Self","Self","k","Bottom",1,"SelfStrong","Strong","white","Self = Positive",1366.888186,1.366888186,1
2,1,15,"Male",32,"Right","Hungarian","Self","Matching","Self","Self","Self","Self","k","Bottom",1,"SelfStrong","Strong","white","Self = Positive",833.631601,0.833631601,1
2,1,16,"Male",32,"Right","Hungarian","Self","Matching","Self","Self","Self","Self","k","Bottom",1,"SelfStrong","Strong","white","Self = Positive",866.839824,0.866839824,1
2,1,17,"Male",32,"Right","Hungarian","Self","Nonmatching","Stranger","Self","Self","Self","l","Top",1,"SelfStrong","Strong","white","Self = Positive",1016.85224,1.01685224,1
2,1,18,"Male",32,"Right","Hungarian","Self","Nonmatching","Stranger","Self","Self","Self","k","Bottom",2,"SelfWeak","Weak","white","Self = Positive",1683.627476,1.683627476,0
2,1,19,"Male",32,"Right","Hungarian","Self","Matching","Self","Self","Self","Self","k","Bottom",2,"SelfWeak","Weak","white","Self = Positive",1083.597156,1.083597156,1
2,1,20,"Male",32,"Right","Hungarian","Stranger","Matching","Stranger","Stranger","Stranger","Stranger","k","Bottom",2,"StrangerWeak","Weak","white","Self = Positive",1083.505168,1.083505168,1
2,1,21,"Male",32,"Right","Hungarian","Self","Matching","Self","Self","Self","Self","k","Top",2,"SelfWeak","Weak","white","Self = Positive",933.589082,0.933589082,1
2,1,22,"Male",32,"Right","Hungarian","Self","Nonmatching","Stranger","Self","Self","Self","l","Bottom",2,"SelfWeak","Weak","white","Self = Positive",900.267948,0.900267948,1
2,1,23,"Male",32,"Right","Hungarian","Self","Matching","Self","Self","Self","Self","k","Bottom",2,"SelfWeak","Weak","white","Self = Positive",1083.527671,1.083527671,1
2,1,24,"Male",32,"Right","Hungarian","Stranger","Matching","Stranger","Stranger","Stranger","Stranger","l","Top",2,"StrangerWeak","Weak","white","Self = Positive",1050.212459,1.050212459,0
2,1,25,"Male",32,"Right","Hungarian","Stranger","Matching","Stranger","Stranger","Stranger","Stranger","k","Bottom",1,"StrangerStrong","Strong","white","Self = Positive",1033.552089,1.033552089,1
2,1,26,"Male",32,"Right","Hungarian","Stranger","Nonmatching","Self","Stranger","Stranger","Stranger","l","Top",1,"StrangerStrong","Strong","white","Self = Positive",1050.179296,1.050179296,1
2,1,27,"Male",32,"Right","Hungarian","Stranger","Nonmatching","Self","Stranger","Stranger","Stranger","l","Bottom",2,"StrangerWeak","Weak","white","Self = Positive",1050.247201,1.050247201,1
2,1,28,"Male",32,"Right","Hungarian","Stranger","Nonmatching","Self","Stranger","Stranger","Stranger","l","Bottom",2,"StrangerWeak","Weak","white","Self = Positive",916.864755,0.916864755,1
2,1,29,"Male",32,"Right","Hungarian","Stranger","Matching","Stranger","Stranger","Stranger","Stranger","k","Top",2,"StrangerWeak","Weak","white","Self = Positive",983.536633,0.983536633,1
2,1,30,"Male",32,"Right","Hungarian","Stranger","Matching","Stranger","Stranger","Stranger","Stranger","l","Bottom",1,"StrangerStrong","Strong","white","Self = Positive",1650.208827,1.650208827,0
2,1,31,"Male",32,"Right","Hungarian","Self","Matching","Self","Self","Self","Self","k","Top",1,"SelfStrong","Strong","white","Self = Positive",850.2367,0.8502367,1
2,1,32,"Male",32,"Right","Hungarian","Self","Matching","Self","Self","Self","Self","k","Top",2,"SelfWeak","Weak","white","Self = Positive",1033.547747,1.033547747,1
2,1,33,"Male",32,"Right","Hungarian","Self","Nonmatching","Stranger","Self","Self","Self","l","Bottom",1,"SelfStrong","Strong","white","Self = Positive",1216.903406,1.216903406,1
2,1,34,"Male",32,"Right","Hungarian","Stranger","Matching","Stranger","Stranger","Stranger","Stranger","k","Top",1,"StrangerStrong","Strong","white","Self = Positive",1000.267277,1.000267277,1
2,1,35,"Male",32,"Right","Hungarian","Self","Nonmatching","Stranger","Self","Self","Self","None","Top",2,"SelfWeak","Weak","white","Self = Positive",NA,NA,3
2,1,36,"Male",32,"Right","Hungarian","Self","Matching","Self","Self","Self","Self","k","Bottom",1,"SelfStrong","Strong","white","Self = Positive",850.207879,0.850207879,1
2,1,37,"Male",32,"Right","Hungarian","Stranger","Nonmatching","Self","Stranger","Stranger","Stranger","l","Top",1,"StrangerStrong","Strong","white","Self = Positive",900.443237,0.900443237,1
2,1,38,"Male",32,"Right","Hungarian","Self","Nonmatching","Stranger","Self","Self","Self","l","Top",2,"SelfWeak","Weak","white","Self = Positive",1185.244755,1.185244755,1
2,1,39,"Male",32,"Right","Hungarian","Self","Nonmatching","Stranger","Self","Self","Self","l","Bottom",1,"SelfStrong","Strong","white","Self = Positive",1033.545773,1.033545773,1
2,1,40,"Male",32,"Right","Hungarian","Self","Nonmatching","Stranger","Self","Self","Self","l","Top",2,"SelfWeak","Weak","white","Self = Positive",966.891661,0.966891661,1
2,1,41,"Male",32,"Right","Hungarian","Stranger","Nonmatching","Self","Stranger","Stranger","Stranger","l","Bottom",2,"StrangerWeak","Weak","white","Self = Positive",1050.204169,1.050204169,1
2,1,42,"Male",32,"Right","Hungarian","Stranger","Nonmatching","Self","Stranger","Stranger","Stranger","l","Bottom",2,"StrangerWeak","Weak","white","Self = Positive",883.537699,0.883537699,1
2,1,43,"Male",32,"Right","Hungarian","Stranger","Nonmatching","Self","Stranger","Stranger","Stranger","l","Top",1,"StrangerStrong","Strong","white","Self = Positive",1050.217986,1.050217986,1
2,1,44,"Male",32,"Right","Hungarian","Stranger","Matching","Stranger","Stranger","Stranger","Stranger","k","Bottom",1,"StrangerStrong","Strong","white","Self = Positive",950.221421,0.950221421,1
2,1,45,"Male",32,"Right","Hungarian","Self","Nonmatching","Stranger","Self","Self","Self","k","Bottom",2,"SelfWeak","Weak","white","Self = Positive",1066.863354,1.066863354,0
2,1,46,"Male",32,"Right","Hungarian","Stranger","Matching","Stranger","Stranger","Stranger","Stranger","l","Bottom",2,"StrangerWeak","Weak","white","Self = Positive",1583.533791,1.583533791,0
2,1,47,"Male",32,"Right","Hungarian","Self","Matching","Self","Self","Self","Self","k","Top",2,"SelfWeak","Weak","white","Self = Positive",1016.858952,1.016858952,1
2,1,48,"Male",32,"Right","Hungarian","Stranger","Matching","Stranger","Stranger","Stranger","Stranger","l","Top",2,"StrangerWeak","Weak","white","Self = Positive",1133.556945,1.133556945,0
2,1,49,"Male",32,"Right","Hungarian","Stranger","Matching","Stranger","Stranger","Stranger","Stranger","k","Bottom",1,"StrangerStrong","Strong","white","Self = Positive",1333.584423,1.333584423,1
2,1,50,"Male",32,"Right","Hungarian","Self","Nonmatching","Stranger","Self","Self","Self","l","Bottom",1,"SelfStrong","Strong","white","Self = Positive",883.604025,0.883604025,1
2,1,51,"Male",32,"Right","Hungarian","Self","Nonmatching","Stranger","Self","Self","Self","l","Top",2,"SelfWeak","Weak","white","Self = Positive",1116.844858,1.116844858,1
2,1,52,"Male",32,"Right","Hungarian","Stranger","Matching","Stranger","Stranger","Stranger","Stranger","k","Bottom",1,"StrangerStrong","Strong","white","Self = Positive",883.592576,0.883592576,1
2,1,53,"Male",32,"Right","Hungarian","Self","Nonmatching","Stranger","Self","Self","Self","l","Top",1,"SelfStrong","Strong","white","Self = Positive",933.548023,0.933548023,1
2,1,54,"Male",32,"Right","Hungarian","Stranger","Matching","Stranger","Stranger","Stranger","Stranger","k","Bottom",2,"StrangerWeak","Weak","white","Self = Positive",1066.947445,1.066947445,1
2,1,55,"Male",32,"Right","Hungarian","Self","Matching","Self","Self","Self","Self","k","Bottom",2,"SelfWeak","Weak","white","Self = Positive",933.554735,0.933554735,1
2,1,56,"Male",32,"Right","Hungarian","Stranger","Nonmatching","Self","Stranger","Stranger","Stranger","k","Top",2,"StrangerWeak","Weak","white","Self = Positive",1200.171973,1.200171973,0
2,1,57,"Male",32,"Right","Hungarian","Stranger","Matching","Stranger","Stranger","Stranger","Stranger","l","Top",1,"StrangerStrong","Strong","white","Self = Positive",833.560933,0.833560933,0
2,1,58,"Male",32,"Right","Hungarian","Self","Matching","Self","Self","Self","Self","k","Top",2,"SelfWeak","Weak","white","Self = Positive",833.540009,0.833540009,1
2,1,59,"Male",32,"Right","Hungarian","Self","Nonmatching","Stranger","Self","Self","Self","l","Bottom",2,"SelfWeak","Weak","white","Self = Positive",983.518868,0.983518868,1
2,1,60,"Male",32,"Right","Hungarian","Stranger","Matching","Stranger","Stranger","Stranger","Stranger","k","Top",1,"StrangerStrong","Strong","white","Self = Positive",866.869434,0.866869434,1
2,1,61,"Male",32,"Right","Hungarian","Self","Nonmatching","Stranger","Self","Self","Self","l","Top",1,"SelfStrong","Strong","white","Self = Positive",1383.486178,1.383486178,1
2,1,62,"Male",32,"Right","Hungarian","Self","Nonmatching","Stranger","Self","Self","Self","k","Bottom",1,"SelfStrong","Strong","white","Self = Positive",1500.415127,1.500415127,0
2,1,63,"Male",32,"Right","Hungarian","Self","Matching","Self","Self","Self","Self","k","Top",1,"SelfStrong","Strong","white","Self = Positive",750.243293,0.750243293,1
2,1,64,"Male",32,"Right","Hungarian","Self","Matching","Self","Self","Self","Self","k","Bottom",2,"SelfWeak","Weak","white","Self = Positive",866.839824,0.866839824,1
2,1,65,"Male",32,"Right","Hungarian","Self","Matching","Self","Self","Self","Self","k","Top",1,"SelfStrong","Strong","white","Self = Positive",766.898135,0.766898135,1
2,1,66,"Male",32,"Right","Hungarian","Stranger","Matching","Stranger","Stranger","Stranger","Stranger","l","Top",2,"StrangerWeak","Weak","white","Self = Positive",750.276455,0.750276455,0
2,1,67,"Male",32,"Right","Hungarian","Stranger","Matching","Stranger","Stranger","Stranger","Stranger","k","Top",1,"StrangerStrong","Strong","white","Self = Positive",783.502049,0.783502049,1
2,1,68,"Male",32,"Right","Hungarian","Stranger","Matching","Stranger","Stranger","Stranger","Stranger","k","Bottom",2,"StrangerWeak","Weak","white","Self = Positive",1250.247043,1.250247043,1
2,1,69,"Male",32,"Right","Hungarian","Stranger","Matching","Stranger","Stranger","Stranger","Stranger","k","Bottom",2,"StrangerWeak","Weak","white","Self = Positive",733.518571,0.733518571,1
2,1,70,"Male",32,"Right","Hungarian","Self","Matching","Self","Self","Self","Self","k","Top",2,"SelfWeak","Weak","white","Self = Positive",700.249945,0.700249945,1
2,1,71,"Male",32,"Right","Hungarian","Stranger","Nonmatching","Self","Stranger","Stranger","Stranger","l","Bottom",1,"StrangerStrong","Strong","white","Self = Positive",866.869039,0.866869039,1
2,1,72,"Male",32,"Right","Hungarian","Stranger","Nonmatching","Self","Stranger","Stranger","Stranger","l","Bottom",2,"StrangerWeak","Weak","white","Self = Positive",900.208334,0.900208334,1
2,1,73,"Male",32,"Right","Hungarian","Self","Matching","Self","Self","Self","Self","k","Bottom",2,"SelfWeak","Weak","white","Self = Positive",700.267711,0.700267711,1
2,1,74,"Male",32,"Right","Hungarian","Stranger","Nonmatching","Self","Stranger","Stranger","Stranger","l","Top",2,"StrangerWeak","Weak","white","Self = Positive",966.892055,0.966892055,1
2,1,75,"Male",32,"Right","Hungarian","Stranger","Nonmatching","Self","Stranger","Stranger","Stranger","l","Bottom",1,"StrangerStrong","Strong","white","Self = Positive",633.530692,0.633530692,1
2,1,76,"Male",32,"Right","Hungarian","Self","Matching","Self","Self","Self","Self","k","Bottom",1,"SelfStrong","Strong","white","Self = Positive",800.210189,0.800210189,1
2,1,77,"Male",32,"Right","Hungarian","Self","Matching","Self","Self","Self","Self","k","Top",1,"SelfStrong","Strong","white","Self = Positive",683.524039,0.683524039,1
2,1,78,"Male",32,"Right","Hungarian","Self","Nonmatching","Stranger","Self","Self","Self","l","Top",2,"SelfWeak","Weak","white","Self = Positive",1100.217256,1.100217256,1
2,1,79,"Male",32,"Right","Hungarian","Stranger","Nonmatching","Self","Stranger","Stranger","Stranger","l","Top",2,"StrangerWeak","Weak","white","Self = Positive",783.579824,0.783579824,1
2,1,80,"Male",32,"Right","Hungarian","Stranger","Nonmatching","Self","Stranger","Stranger","Stranger","l","Top",1,"StrangerStrong","Strong","white","Self = Positive",750.036025,0.750036025,1
2,1,81,"Male",32,"Right","Hungarian","Stranger","Matching","Stranger","Stranger","Stranger","Stranger","k","Bottom",1,"StrangerStrong","Strong","white","Self = Positive",866.84693,0.86684693,1
2,1,82,"Male",32,"Right","Hungarian","Self","Matching","Self","Self","Self","Self","k","Bottom",2,"SelfWeak","Weak","white","Self = Positive",783.533633,0.783533633,1
2,1,83,"Male",32,"Right","Hungarian","Stranger","Matching","Stranger","Stranger","Stranger","Stranger","k","Top",2,"StrangerWeak","Weak","white","Self = Positive",833.570803,0.833570803,1
2,1,84,"Male",32,"Right","Hungarian","Stranger","Nonmatching","Self","Stranger","Stranger","Stranger","l","Top",2,"StrangerWeak","Weak","white","Self = Positive",850.215775,0.850215775,1
2,1,85,"Male",32,"Right","Hungarian","Stranger","Nonmatching","Self","Stranger","Stranger","Stranger","l","Bottom",2,"StrangerWeak","Weak","white","Self = Positive",1100.235022,1.100235022,1
2,1,86,"Male",32,"Right","Hungarian","Self","Matching","Self","Self","Self","Self","k","Bottom",1,"SelfStrong","Strong","white","Self = Positive",716.926501,0.716926501,1
2,1,87,"Male",32,"Right","Hungarian","Self","Nonmatching","Stranger","Self","Self","Self","l","Top",1,"SelfStrong","Strong","white","Self = Positive",1033.504319,1.033504319,1
2,1,88,"Male",32,"Right","Hungarian","Stranger","Nonmatching","Self","Stranger","Stranger","Stranger","l","Bottom",1,"StrangerStrong","Strong","white","Self = Positive",1033.837921,1.033837921,1
2,1,89,"Male",32,"Right","Hungarian","Stranger","Nonmatching","Self","Stranger","Stranger","Stranger","l","Bottom",1,"StrangerStrong","Strong","white","Self = Positive",801.914521,0.801914521,1
2,1,90,"Male",32,"Right","Hungarian","Self","Nonmatching","Stranger","Self","Self","Self","k","Top",1,"SelfStrong","Strong","white","Self = Positive",783.509945,0.783509945,0
2,1,91,"Male",32,"Right","Hungarian","Stranger","Nonmatching","Self","Stranger","Stranger","Stranger","l","Top",1,"StrangerStrong","Strong","white","Self = Positive",1216.862347,1.216862347,1
2,1,92,"Male",32,"Right","Hungarian","Self","Matching","Self","Self","Self","Self","k","Top",1,"SelfStrong","Strong","white","Self = Positive",816.890299,0.816890299,1
2,1,93,"Male",32,"Right","Hungarian","Stranger","Nonmatching","Self","Stranger","Stranger","Stranger","l","Top",2,"StrangerWeak","Weak","white","Self = Positive",1066.88941,1.06688941,1
2,1,94,"Male",32,"Right","Hungarian","Self","Nonmatching","Stranger","Self","Self","Self","l","Bottom",1,"SelfStrong","Strong","white","Self = Positive",1133.606295,1.133606295,1
2,1,95,"Male",32,"Right","Hungarian","Self","Nonmatching","Stranger","Self","Self","Self","l","Bottom",2,"SelfWeak","Weak","white","Self = Positive",900.239523,0.900239523,1
2,1,96,"Male",32,"Right","Hungarian","Self","Nonmatching","Stranger","Self","Self","Self","l","Bottom",1,"SelfStrong","Strong","white","Self = Positive",733.508701,0.733508701,1
2,2,1,"Male",32,"Right","Hungarian","Self","Matching","Self","Self","Self","Self","k","Bottom",1,"SelfStrong","Strong","white","Self = Positive",731.777129,0.731777129,1
2,2,2,"Male",32,"Right","Hungarian","Stranger","Matching","Stranger","Stranger","Stranger","Stranger","k","Top",2,"StrangerWeak","Weak","white","Self = Positive",750.177362,0.750177362,1
2,2,3,"Male",32,"Right","Hungarian","Self","Nonmatching","Stranger","Self","Self","Self","l","Top",1,"SelfStrong","Strong","white","Self = Positive",766.874842,0.766874842,1
2,2,4,"Male",32,"Right","Hungarian","Stranger","Nonmatching","Self","Stranger","Stranger","Stranger","l","Top",2,"StrangerWeak","Weak","white","Self = Positive",1000.170157,1.000170157,1
2,2,5,"Male",32,"Right","Hungarian","Self","Nonmatching","Stranger","Self","Self","Self","l","Bottom",1,"SelfStrong","Strong","white","Self = Positive",766.876816,0.766876816,1
2,2,6,"Male",32,"Right","Hungarian","Self","Matching","Self","Self","Self","Self","k","Bottom",2,"SelfWeak","Weak","white","Self = Positive",1183.51792,1.18351792,1
2,2,7,"Male",32,"Right","Hungarian","Self","Matching","Self","Self","Self","Self","k","Bottom",1,"SelfStrong","Strong","white","Self = Positive",733.583318,0.733583318,1
2,2,8,"Male",32,"Right","Hungarian","Stranger","Matching","Stranger","Stranger","Stranger","Stranger","k","Bottom",1,"StrangerStrong","Strong","white","Self = Positive",850.233541,0.850233541,1
2,2,9,"Male",32,"Right","Hungarian","Self","Matching","Self","Self","Self","Self","k","Top",1,"SelfStrong","Strong","white","Self = Positive",750.17065,0.75017065,1
2,2,10,"Male",32,"Right","Hungarian","Stranger","Matching","Stranger","Stranger","Stranger","Stranger","l","Bottom",1,"StrangerStrong","Strong","white","Self = Positive",1083.575442,1.083575442,0
2,2,11,"Male",32,"Right","Hungarian","Self","Matching","Self","Self","Self","Self","k","Bottom",2,"SelfWeak","Weak","white","Self = Positive",900.195305,0.900195305,1
2,2,12,"Male",32,"Right","Hungarian","Stranger","Nonmatching","Self","Stranger","Stranger","Stranger","l","Bottom",2,"StrangerWeak","Weak","white","Self = Positive",983.532291,0.983532291,1
2,2,13,"Male",32,"Right","Hungarian","Stranger","Nonmatching","Self","Stranger","Stranger","Stranger","l","Bottom",1,"StrangerStrong","Strong","white","Self = Positive",983.540581,0.983540581,1
2,2,14,"Male",32,"Right","Hungarian","Stranger","Matching","Stranger","Stranger","Stranger","Stranger","k","Bottom",1,"StrangerStrong","Strong","white","Self = Positive",800.24651,0.80024651,1
2,2,15,"Male",32,"Right","Hungarian","Stranger","Nonmatching","Self","Stranger","Stranger","Stranger","k","Top",2,"StrangerWeak","Weak","white","Self = Positive",1016.87119,1.01687119,0
2,2,16,"Male",32,"Right","Hungarian","Stranger","Nonmatching","Self","Stranger","Stranger","Stranger","l","Top",1,"StrangerStrong","Strong","white","Self = Positive",816.915171,0.816915171,1
2,2,17,"Male",32,"Right","Hungarian","Stranger","Matching","Stranger","Stranger","Stranger","Stranger","k","Bottom",2,"StrangerWeak","Weak","white","Self = Positive",1050.204169,1.050204169,1
2,2,18,"Male",32,"Right","Hungarian","Self","Matching","Self","Self","Self","Self","k","Bottom",1,"SelfStrong","Strong","white","Self = Positive",866.924705,0.866924705,1
2,2,19,"Male",32,"Right","Hungarian","Self","Matching","Self","Self","Self","Self","k","Top",1,"SelfStrong","Strong","white","Self = Positive",800.201109,0.800201109,1
2,2,20,"Male",32,"Right","Hungarian","Self","Nonmatching","Stranger","Self","Self","Self","l","Bottom",1,"SelfStrong","Strong","white","Self = Positive",833.611072,0.833611072,1
2,2,21,"Male",32,"Right","Hungarian","Stranger","Matching","Stranger","Stranger","Stranger","Stranger","k","Bottom",1,"StrangerStrong","Strong","white","Self = Positive",783.575086,0.783575086,1
2,2,22,"Male",32,"Right","Hungarian","Self","Nonmatching","Stranger","Self","Self","Self","l","Top",1,"SelfStrong","Strong","white","Self = Positive",833.534876,0.833534876,1
2,2,23,"Male",32,"Right","Hungarian","Self","Nonmatching","Stranger","Self","Self","Self","l","Bottom",2,"SelfWeak","Weak","white","Self = Positive",1000.212005,1.000212005,1
2,2,24,"Male",32,"Right","Hungarian","Stranger","Matching","Stranger","Stranger","Stranger","Stranger","k","Top",2,"StrangerWeak","Weak","white","Self = Positive",833.542377,0.833542377,1
2,2,25,"Male",32,"Right","Hungarian","Self","Matching","Self","Self","Self","Self","k","Top",2,"SelfWeak","Weak","white","Self = Positive",983.515314,0.983515314,1
2,2,26,"Male",32,"Right","Hungarian","Self","Nonmatching","Stranger","Self","Self","Self","l","Bottom",2,"SelfWeak","Weak","white","Self = Positive",933.532626,0.933532626,1
2,2,27,"Male",32,"Right","Hungarian","Stranger","Matching","Stranger","Stranger","Stranger","Stranger","k","Top",1,"StrangerStrong","Strong","white","Self = Positive",833.512768,0.833512768,1
2,2,28,"Male",32,"Right","Hungarian","Self","Matching","Self","Self","Self","Self","k","Bottom",2,"SelfWeak","Weak","white","Self = Positive",800.206636,0.800206636,1
2,2,29,"Male",32,"Right","Hungarian","Self","Nonmatching","Stranger","Self","Self","Self","l","Top",1,"SelfStrong","Strong","white","Self = Positive",750.233818,0.750233818,1
2,2,30,"Male",32,"Right","Hungarian","Stranger","Nonmatching","Self","Stranger","Stranger","Stranger","l","Bottom",2,"StrangerWeak","Weak","white","Self = Positive",1116.825907,1.116825907,1
2,2,31,"Male",32,"Right","Hungarian","Self","Matching","Self","Self","Self","Self","k","Top",1,"SelfStrong","Strong","white","Self = Positive",700.244418,0.700244418,1
2,2,32,"Male",32,"Right","Hungarian","Stranger","Matching","Stranger","Stranger","Stranger","Stranger","l","Bottom",2,"StrangerWeak","Weak","white","Self = Positive",633.526349,0.633526349,0
2,2,33,"Male",32,"Right","Hungarian","Self","Nonmatching","Stranger","Self","Self","Self","l","Top",1,"SelfStrong","Strong","white","Self = Positive",966.908242,0.966908242,1
2,2,34,"Male",32,"Right","Hungarian","Self","Matching","Self","Self","Self","Self","k","Top",1,"SelfStrong","Strong","white","Self = Positive",750.216841,0.750216841,1
2,2,35,"Male",32,"Right","Hungarian","Self","Matching","Self","Self","Self","Self","k","Top",2,"SelfWeak","Weak","white","Self = Positive",868.540998,0.868540998,1
2,2,36,"Male",32,"Right","Hungarian","Stranger","Matching","Stranger","Stranger","Stranger","Stranger","k","Bottom",2,"StrangerWeak","Weak","white","Self = Positive",783.642202,0.783642202,1
2,2,37,"Male",32,"Right","Hungarian","Stranger","Nonmatching","Self","Stranger","Stranger","Stranger","l","Bottom",2,"StrangerWeak","Weak","white","Self = Positive",733.527257,0.733527257,1
2,2,38,"Male",32,"Right","Hungarian","Self","Nonmatching","Stranger","Self","Self","Self","l","Top",2,"SelfWeak","Weak","white","Self = Positive",1316.894839,1.316894839,1
2,2,39,"Male",32,"Right","Hungarian","Stranger","Nonmatching","Self","Stranger","Stranger","Stranger","l","Bottom",1,"StrangerStrong","Strong","white","Self = Positive",966.889687,0.966889687,1
2,2,40,"Male",32,"Right","Hungarian","Stranger","Nonmatching","Self","Stranger","Stranger","Stranger","l","Top",2,"StrangerWeak","Weak","white","Self = Positive",683.563914,0.683563914,1
2,2,41,"Male",32,"Right","Hungarian","Stranger","Matching","Stranger","Stranger","Stranger","Stranger","k","Top",2,"StrangerWeak","Weak","white","Self = Positive",816.869769,0.816869769,1
2,2,42,"Male",32,"Right","Hungarian","Stranger","Nonmatching","Self","Stranger","Stranger","Stranger","l","Top",2,"StrangerWeak","Weak","white","Self = Positive",816.834238,0.816834238,1
2,2,43,"Male",32,"Right","Hungarian","Self","Nonmatching","Stranger","Self","Self","Self","l","Bottom",1,"SelfStrong","Strong","white","Self = Positive",950.230106,0.950230106,1
2,2,44,"Male",32,"Right","Hungarian","Stranger","Nonmatching","Self","Stranger","Stranger","Stranger","l","Top",1,"StrangerStrong","Strong","white","Self = Positive",683.611684,0.683611684,1
2,2,45,"Male",32,"Right","Hungarian","Stranger","Matching","Stranger","Stranger","Stranger","Stranger","k","Top",1,"StrangerStrong","Strong","white","Self = Positive",750.186047,0.750186047,1
2,2,46,"Male",32,"Right","Hungarian","Self","Nonmatching","Stranger","Self","Self","Self","l","Bottom",2,"SelfWeak","Weak","white","Self = Positive",916.837909,0.916837909,1
2,2,47,"Male",32,"Right","Hungarian","Stranger","Nonmatching","Self","Stranger","Stranger","Stranger","l","Top",1,"StrangerStrong","Strong","white","Self = Positive",683.578916,0.683578916,1
2,2,48,"Male",32,"Right","Hungarian","Self","Nonmatching","Stranger","Self","Self","Self","l","Top",2,"SelfWeak","Weak","white","Self = Positive",1033.587226,1.033587226,1
2,2,49,"Male",32,"Right","Hungarian","Self","Matching","Self","Self","Self","Self","l","Bottom",2,"SelfWeak","Weak","white","Self = Positive",933.552761,0.933552761,0
2,2,50,"Male",32,"Right","Hungarian","Self","Nonmatching","Stranger","Self","Self","Self","l","Bottom",1,"SelfStrong","Strong","white","Self = Positive",750.222369,0.750222369,1
2,2,51,"Male",32,"Right","Hungarian","Stranger","Matching","Stranger","Stranger","Stranger","Stranger","k","Top",1,"StrangerStrong","Strong","white","Self = Positive",716.979009,0.716979009,1
2,2,52,"Male",32,"Right","Hungarian","Stranger","Nonmatching","Self","Stranger","Stranger","Stranger","l","Bottom",2,"StrangerWeak","Weak","white","Self = Positive",716.842805,0.716842805,1
2,2,53,"Male",32,"Right","Hungarian","Stranger","Matching","Stranger","Stranger","Stranger","Stranger","k","Top",2,"StrangerWeak","Weak","white","Self = Positive",850.219723,0.850219723,1
2,2,54,"Male",32,"Right","Hungarian","Stranger","Matching","Stranger","Stranger","Stranger","Stranger","k","Bottom",2,"StrangerWeak","Weak","white","Self = Positive",766.891818,0.766891818,1
2,2,55,"Male",32,"Right","Hungarian","Stranger","Nonmatching","Self","Stranger","Stranger","Stranger","l","Top",1,"StrangerStrong","Strong","white","Self = Positive",683.593128,0.683593128,1
2,2,56,"Male",32,"Right","Hungarian","Self","Nonmatching","Stranger","Self","Self","Self","l","Bottom",1,"SelfStrong","Strong","white","Self = Positive",783.550214,0.783550214,1
2,2,57,"Male",32,"Right","Hungarian","Stranger","Matching","Stranger","Stranger","Stranger","Stranger","k","Top",2,"StrangerWeak","Weak","white","Self = Positive",783.533633,0.783533633,1
2,2,58,"Male",32,"Right","Hungarian","Self","Matching","Self","Self","Self","Self","k","Top",1,"SelfStrong","Strong","white","Self = Positive",1083.560834,1.083560834,1
2,2,59,"Male",32,"Right","Hungarian","Stranger","Matching","Stranger","Stranger","Stranger","Stranger","k","Top",1,"StrangerStrong","Strong","white","Self = Positive",816.919119,0.816919119,1
2,2,60,"Male",32,"Right","Hungarian","Stranger","Matching","Stranger","Stranger","Stranger","Stranger","k","Bottom",1,"StrangerStrong","Strong","white","Self = Positive",733.55055,0.73355055,1
2,2,61,"Male",32,"Right","Hungarian","Self","Matching","Self","Self","Self","Self","k","Top",2,"SelfWeak","Weak","white","Self = Positive",866.877724,0.866877724,1
2,2,62,"Male",32,"Right","Hungarian","Stranger","Matching","Stranger","Stranger","Stranger","Stranger","k","Top",1,"StrangerStrong","Strong","white","Self = Positive",718.58938,0.71858938,1
2,2,63,"Male",32,"Right","Hungarian","Stranger","Nonmatching","Self","Stranger","Stranger","Stranger","l","Bottom",1,"StrangerStrong","Strong","white","Self = Positive",900.304664,0.900304664,1
2,2,64,"Male",32,"Right","Hungarian","Self","Matching","Self","Self","Self","Self","k","Bottom",1,"SelfStrong","Strong","white","Self = Positive",750.173809,0.750173809,1
2,2,65,"Male",32,"Right","Hungarian","Self","Matching","Self","Self","Self","Self","k","Top",1,"SelfStrong","Strong","white","Self = Positive",733.539496,0.733539496,1
2,2,66,"Male",32,"Right","Hungarian","Stranger","Nonmatching","Self","Stranger","Stranger","Stranger","l","Top",1,"StrangerStrong","Strong","white","Self = Positive",966.8356,0.9668356,1
2,2,67,"Male",32,"Right","Hungarian","Stranger","Nonmatching","Self","Stranger","Stranger","Stranger","l","Bottom",1,"StrangerStrong","Strong","white","Self = Positive",750.22829,0.75022829,1
2,2,68,"Male",32,"Right","Hungarian","Stranger","Matching","Stranger","Stranger","Stranger","Stranger","k","Bottom",2,"StrangerWeak","Weak","white","Self = Positive",1083.503589,1.083503589,1
2,2,69,"Male",32,"Right","Hungarian","Stranger","Matching","Stranger","Stranger","Stranger","Stranger","k","Top",1,"StrangerStrong","Strong","white","Self = Positive",683.608526,0.683608526,1
2,2,70,"Male",32,"Right","Hungarian","Stranger","Nonmatching","Self","Stranger","Stranger","Stranger","l","Bottom",1,"StrangerStrong","Strong","white","Self = Positive",666.888936,0.666888936,1
