"Subject","Gender","Age","Handedness","First_Lanugage","Block","Trial","Shape","Label","Matching","Label_Identity","Origin_Identity","English_Identity","Standarlized_Identity","Response","RT_ms","RT_sec","ACC"
9605,"female",25,"right","Hebrew",1,1,"circle.bmp","Father","Nonmatching","Father","Self","Self","Self","m",3237,3.237,1
9605,"female",25,"right","Hebrew",1,2,"circle.bmp","Self","Matching","Self","Self","Self","Self","z",839,0.839,1
9605,"female",25,"right","Hebrew",1,3,"square.bmp","Stranger","Nonmatching","Stranger","Father","Father","Close","m",2320,2.32,1
9605,"female",25,"right","Hebrew",1,4,"square.bmp","Stranger","Nonmatching","Stranger","Father","Father","Close","m",2287,2.287,1
9605,"female",25,"right","Hebrew",1,5,"circle.bmp","Father","Nonmatching","Father","Self","Self","Self","m",1534,1.534,1
9605,"female",25,"right","Hebrew",1,6,"square.bmp","Stranger","Nonmatching","Stranger","Father","Father","Close","m",2260,2.26,1
9605,"female",25,"right","Hebrew",1,7,"triangle.bmp","Self","Nonmatching","Self","Stranger","Stranger","Stranger","m",789,0.789,1
9605,"female",25,"right","Hebrew",1,8,"triangle.bmp","Stranger","Matching","Stranger","Stranger","Stranger","Stranger","z",2728,2.728,1
9605,"female",25,"right","Hebrew",1,9,"square.bmp","Father","Matching","Father","Father","Father","Close","z",1318,1.318,1
9605,"female",25,"right","Hebrew",1,10,"square.bmp","Self","Nonmatching","Self","Father","Father","Close","m",997,0.997,1
9605,"female",25,"right","Hebrew",1,11,"square.bmp","Father","Matching","Father","Father","Father","Close","z",1113,1.113,1
9605,"female",25,"right","Hebrew",1,12,"square.bmp","Father","Matching","Father","Father","Father","Close","z",1272,1.272,1
9605,"female",25,"right","Hebrew",1,13,"square.bmp","Stranger","Nonmatching","Stranger","Father","Father","Close","m",1417,1.417,1
9605,"female",25,"right","Hebrew",1,14,"triangle.bmp","Stranger","Matching","Stranger","Stranger","Stranger","Stranger","z",1283,1.283,1
9605,"female",25,"right","Hebrew",1,15,"square.bmp","Stranger","Nonmatching","Stranger","Father","Father","Close","m",899,0.899,1
9605,"female",25,"right","Hebrew",1,16,"triangle.bmp","Self","Nonmatching","Self","Stranger","Stranger","Stranger","m",1155,1.155,1
9605,"female",25,"right","Hebrew",1,17,"triangle.bmp","Self","Nonmatching","Self","Stranger","Stranger","Stranger","m",1256,1.256,1
9605,"female",25,"right","Hebrew",1,18,"square.bmp","Stranger","Nonmatching","Stranger","Father","Father","Close","m",1322,1.322,1
9605,"female",25,"right","Hebrew",1,19,"triangle.bmp","Father","Nonmatching","Father","Stranger","Stranger","Stranger","m",1048,1.048,1
9605,"female",25,"right","Hebrew",1,20,"square.bmp","Father","Matching","Father","Father","Father","Close","z",1170,1.17,1
9605,"female",25,"right","Hebrew",1,21,"circle.bmp","Stranger","Nonmatching","Stranger","Self","Self","Self","m",1687,1.687,1
9605,"female",25,"right","Hebrew",1,22,"circle.bmp","Stranger","Nonmatching","Stranger","Self","Self","Self","m",974,0.974,1
9605,"female",25,"right","Hebrew",1,23,"circle.bmp","Self","Matching","Self","Self","Self","Self","z",1667,1.667,1
9605,"female",25,"right","Hebrew",1,24,"square.bmp","Father","Matching","Father","Father","Father","Close","z",947,0.947,1
9605,"female",25,"right","Hebrew",1,25,"circle.bmp","Stranger","Nonmatching","Stranger","Self","Self","Self","m",1065,1.065,1
9605,"female",25,"right","Hebrew",1,26,"circle.bmp","Self","Matching","Self","Self","Self","Self","z",1018,1.018,1
9605,"female",25,"right","Hebrew",1,27,"circle.bmp","Self","Matching","Self","Self","Self","Self","z",1109,1.109,1
9605,"female",25,"right","Hebrew",1,28,"square.bmp","Stranger","Nonmatching","Stranger","Father","Father","Close","m",900,0.9,1
9605,"female",25,"right","Hebrew",1,29,"triangle.bmp","Self","Nonmatching","Self","Stranger","Stranger","Stranger","m",1219,1.219,1
9605,"female",25,"right","Hebrew",1,30,"square.bmp","Self","Nonmatching","Self","Father","Father","Close","m",966,0.966,1
9605,"female",25,"right","Hebrew",1,31,"triangle.bmp","Stranger","Matching","Stranger","Stranger","Stranger","Stranger","z",1210,1.21,1
9605,"female",25,"right","Hebrew",1,32,"circle.bmp","Self","Matching","Self","Self","Self","Self","z",869,0.869,1
9605,"female",25,"right","Hebrew",1,33,"circle.bmp","Self","Matching","Self","Self","Self","Self","m",806,0.806,0
9605,"female",25,"right","Hebrew",1,34,"circle.bmp","Stranger","Nonmatching","Stranger","Self","Self","Self","m",1089,1.089,1
9605,"female",25,"right","Hebrew",1,35,"square.bmp","Father","Matching","Father","Father","Father","Close","z",1338,1.338,1
9605,"female",25,"right","Hebrew",1,36,"circle.bmp","Self","Matching","Self","Self","Self","Self","z",1128,1.128,1
9605,"female",25,"right","Hebrew",1,37,"square.bmp","Father","Matching","Father","Father","Father","Close","z",1990,1.99,1
9605,"female",25,"right","Hebrew",1,38,"triangle.bmp","Father","Nonmatching","Father","Stranger","Stranger","Stranger","m",1506,1.506,1
9605,"female",25,"right","Hebrew",1,39,"triangle.bmp","Self","Nonmatching","Self","Stranger","Stranger","Stranger","m",1289,1.289,1
9605,"female",25,"right","Hebrew",1,40,"circle.bmp","Stranger","Nonmatching","Stranger","Self","Self","Self","m",1497,1.497,1
9605,"female",25,"right","Hebrew",1,41,"square.bmp","Self","Nonmatching","Self","Father","Father","Close","m",969,0.969,1
9605,"female",25,"right","Hebrew",1,42,"square.bmp","Father","Matching","Father","Father","Father","Close","z",821,0.821,1
9605,"female",25,"right","Hebrew",1,43,"triangle.bmp","Self","Nonmatching","Self","Stranger","Stranger","Stranger","m",1080,1.08,1
9605,"female",25,"right","Hebrew",1,44,"circle.bmp","Self","Matching","Self","Self","Self","Self","z",585,0.585,1
9605,"female",25,"right","Hebrew",1,45,"square.bmp","Self","Nonmatching","Self","Father","Father","Close","m",965,0.965,1
9605,"female",25,"right","Hebrew",1,46,"circle.bmp","Self","Matching","Self","Self","Self","Self","z",1066,1.066,1
9605,"female",25,"right","Hebrew",1,47,"circle.bmp","Father","Nonmatching","Father","Self","Self","Self","m",963,0.963,1
9605,"female",25,"right","Hebrew",1,48,"triangle.bmp","Stranger","Matching","Stranger","Stranger","Stranger","Stranger","z",904,0.904,1
9605,"female",25,"right","Hebrew",1,49,"square.bmp","Stranger","Nonmatching","Stranger","Father","Father","Close","m",983,0.983,1
9605,"female",25,"right","Hebrew",1,50,"square.bmp","Father","Matching","Father","Father","Father","Close","z",1155,1.155,1
9605,"female",25,"right","Hebrew",1,51,"square.bmp","Self","Nonmatching","Self","Father","Father","Close","m",761,0.761,1
9605,"female",25,"right","Hebrew",1,52,"circle.bmp","Father","Nonmatching","Father","Self","Self","Self","m",1670,1.67,1
9605,"female",25,"right","Hebrew",1,53,"triangle.bmp","Stranger","Matching","Stranger","Stranger","Stranger","Stranger","z",1494,1.494,1
9605,"female",25,"right","Hebrew",1,54,"triangle.bmp","Father","Nonmatching","Father","Stranger","Stranger","Stranger","m",822,0.822,1
9605,"female",25,"right","Hebrew",1,55,"circle.bmp","Self","Matching","Self","Self","Self","Self","z",952,0.952,1
9605,"female",25,"right","Hebrew",1,56,"circle.bmp","Father","Nonmatching","Father","Self","Self","Self","m",549,0.549,1
9605,"female",25,"right","Hebrew",1,57,"triangle.bmp","Stranger","Matching","Stranger","Stranger","Stranger","Stranger","z",915,0.915,1
9605,"female",25,"right","Hebrew",1,58,"square.bmp","Stranger","Nonmatching","Stranger","Father","Father","Close","m",802,0.802,1
9605,"female",25,"right","Hebrew",1,59,"square.bmp","Father","Matching","Father","Father","Father","Close","z",789,0.789,1
9605,"female",25,"right","Hebrew",1,60,"square.bmp","Father","Matching","Father","Father","Father","Close","z",857,0.857,1
9605,"female",25,"right","Hebrew",1,61,"square.bmp","Self","Nonmatching","Self","Father","Father","Close","m",722,0.722,1
9605,"female",25,"right","Hebrew",1,62,"circle.bmp","Father","Nonmatching","Father","Self","Self","Self","m",1033,1.033,1
9605,"female",25,"right","Hebrew",1,63,"triangle.bmp","Stranger","Matching","Stranger","Stranger","Stranger","Stranger","z",963,0.963,1
9605,"female",25,"right","Hebrew",1,64,"square.bmp","Father","Matching","Father","Father","Father","Close","z",888,0.888,1
9605,"female",25,"right","Hebrew",1,65,"square.bmp","Father","Matching","Father","Father","Father","Close","m",728,0.728,0
9605,"female",25,"right","Hebrew",1,66,"triangle.bmp","Father","Nonmatching","Father","Stranger","Stranger","Stranger","m",1311,1.311,1
9605,"female",25,"right","Hebrew",1,67,"circle.bmp","Stranger","Nonmatching","Stranger","Self","Self","Self","z",973,0.973,0
9605,"female",25,"right","Hebrew",1,68,"circle.bmp","Father","Nonmatching","Father","Self","Self","Self","m",1482,1.482,1
9605,"female",25,"right","Hebrew",1,69,"square.bmp","Father","Matching","Father","Father","Father","Close","z",850,0.85,1
9605,"female",25,"right","Hebrew",1,70,"circle.bmp","Self","Matching","Self","Self","Self","Self","z",643,0.643,1
9605,"female",25,"right","Hebrew",1,71,"square.bmp","Father","Matching","Father","Father","Father","Close","z",1125,1.125,1
9605,"female",25,"right","Hebrew",1,72,"triangle.bmp","Father","Nonmatching","Father","Stranger","Stranger","Stranger","m",1252,1.252,1
9605,"female",25,"right","Hebrew",1,73,"circle.bmp","Self","Matching","Self","Self","Self","Self","z",1413,1.413,1
9605,"female",25,"right","Hebrew",1,74,"circle.bmp","Self","Matching","Self","Self","Self","Self","z",1304,1.304,1
9605,"female",25,"right","Hebrew",1,75,"triangle.bmp","Stranger","Matching","Stranger","Stranger","Stranger","Stranger","z",1423,1.423,1
9605,"female",25,"right","Hebrew",1,76,"circle.bmp","Self","Matching","Self","Self","Self","Self","z",1585,1.585,1
9605,"female",25,"right","Hebrew",1,77,"square.bmp","Father","Matching","Father","Father","Father","Close","z",709,0.709,1
9605,"female",25,"right","Hebrew",1,78,"triangle.bmp","Stranger","Matching","Stranger","Stranger","Stranger","Stranger","z",1220,1.22,1
9605,"female",25,"right","Hebrew",1,79,"square.bmp","Father","Matching","Father","Father","Father","Close","z",775,0.775,1
9605,"female",25,"right","Hebrew",1,80,"triangle.bmp","Father","Nonmatching","Father","Stranger","Stranger","Stranger","m",810,0.81,1
9605,"female",25,"right","Hebrew",1,81,"triangle.bmp","Stranger","Matching","Stranger","Stranger","Stranger","Stranger","z",949,0.949,1
9605,"female",25,"right","Hebrew",1,82,"triangle.bmp","Stranger","Matching","Stranger","Stranger","Stranger","Stranger","z",835,0.835,1
9605,"female",25,"right","Hebrew",1,83,"square.bmp","Self","Nonmatching","Self","Father","Father","Close","m",1749,1.749,1
9605,"female",25,"right","Hebrew",1,84,"circle.bmp","Self","Matching","Self","Self","Self","Self","z",1170,1.17,1
9605,"female",25,"right","Hebrew",1,85,"triangle.bmp","Stranger","Matching","Stranger","Stranger","Stranger","Stranger","z",3063,3.063,1
9605,"female",25,"right","Hebrew",1,86,"triangle.bmp","Father","Nonmatching","Father","Stranger","Stranger","Stranger","m",1496,1.496,1
9605,"female",25,"right","Hebrew",1,87,"triangle.bmp","Self","Nonmatching","Self","Stranger","Stranger","Stranger","m",824,0.824,1
9605,"female",25,"right","Hebrew",1,88,"triangle.bmp","Stranger","Matching","Stranger","Stranger","Stranger","Stranger","z",1938,1.938,1
9605,"female",25,"right","Hebrew",1,89,"triangle.bmp","Stranger","Matching","Stranger","Stranger","Stranger","Stranger","z",2680,2.68,1
9605,"female",25,"right","Hebrew",1,90,"triangle.bmp","Self","Nonmatching","Self","Stranger","Stranger","Stranger","m",2088,2.088,1
9605,"female",25,"right","Hebrew",1,91,"triangle.bmp","Stranger","Matching","Stranger","Stranger","Stranger","Stranger","z",1976,1.976,1
9605,"female",25,"right","Hebrew",1,92,"triangle.bmp","Self","Nonmatching","Self","Stranger","Stranger","Stranger","m",1924,1.924,1
9605,"female",25,"right","Hebrew",1,93,"triangle.bmp","Father","Nonmatching","Father","Stranger","Stranger","Stranger","m",5187,5.187,1
9605,"female",25,"right","Hebrew",1,94,"circle.bmp","Self","Matching","Self","Self","Self","Self","z",3478,3.478,1
9605,"female",25,"right","Hebrew",1,95,"circle.bmp","Father","Nonmatching","Father","Self","Self","Self","m",2406,2.406,1
9605,"female",25,"right","Hebrew",1,96,"triangle.bmp","Stranger","Matching","Stranger","Stranger","Stranger","Stranger","z",5728,5.728,1
9605,"female",25,"right","Hebrew",1,97,"square.bmp","Father","Matching","Father","Father","Father","Close","z",7926,7.926,1
9605,"female",25,"right","Hebrew",1,98,"square.bmp","Self","Nonmatching","Self","Father","Father","Close","m",6788,6.788,1
9605,"female",25,"right","Hebrew",1,99,"triangle.bmp","Father","Nonmatching","Father","Stranger","Stranger","Stranger","m",9607,9.607,1
9605,"female",25,"right","Hebrew",1,100,"square.bmp","Stranger","Nonmatching","Stranger","Father","Father","Close","m",3721,3.721,1
9605,"female",25,"right","Hebrew",1,101,"square.bmp","Self","Nonmatching","Self","Father","Father","Close","m",3592,3.592,1
9605,"female",25,"right","Hebrew",1,102,"square.bmp","Father","Matching","Father","Father","Father","Close","z",4947,4.947,1
9605,"female",25,"right","Hebrew",1,103,"circle.bmp","Stranger","Nonmatching","Stranger","Self","Self","Self","m",3623,3.623,1
9605,"female",25,"right","Hebrew",1,104,"square.bmp","Father","Matching","Father","Father","Father","Close","z",6786,6.786,1
9605,"female",25,"right","Hebrew",1,105,"square.bmp","Self","Nonmatching","Self","Father","Father","Close","m",5797,5.797,1
9605,"female",25,"right","Hebrew",1,106,"circle.bmp","Self","Matching","Self","Self","Self","Self","m",3352,3.352,0
9605,"female",25,"right","Hebrew",1,107,"circle.bmp","Self","Matching","Self","Self","Self","Self","m",3245,3.245,0
9605,"female",25,"right","Hebrew",1,108,"triangle.bmp","Stranger","Matching","Stranger","Stranger","Stranger","Stranger","z",1998,1.998,1
9605,"female",25,"right","Hebrew",1,109,"triangle.bmp","Self","Nonmatching","Self","Stranger","Stranger","Stranger","m",5570,5.57,1
9605,"female",25,"right","Hebrew",1,110,"circle.bmp","Stranger","Nonmatching","Stranger","Self","Self","Self","m",1942,1.942,1
9605,"female",25,"right","Hebrew",1,111,"circle.bmp","Self","Matching","Self","Self","Self","Self","z",3492,3.492,1
9605,"female",25,"right","Hebrew",1,112,"circle.bmp","Father","Nonmatching","Father","Self","Self","Self","m",3043,3.043,1
9605,"female",25,"right","Hebrew",1,113,"circle.bmp","Father","Nonmatching","Father","Self","Self","Self","m",2211,2.211,1
9605,"female",25,"right","Hebrew",1,114,"triangle.bmp","Stranger","Matching","Stranger","Stranger","Stranger","Stranger","z",6038,6.038,1
9605,"female",25,"right","Hebrew",1,115,"circle.bmp","Self","Matching","Self","Self","Self","Self","z",6232,6.232,1
9605,"female",25,"right","Hebrew",1,116,"circle.bmp","Stranger","Nonmatching","Stranger","Self","Self","Self","m",3121,3.121,1
9605,"female",25,"right","Hebrew",1,117,"triangle.bmp","Stranger","Matching","Stranger","Stranger","Stranger","Stranger","z",4376,4.376,1
9605,"female",25,"right","Hebrew",1,118,"triangle.bmp","Father","Nonmatching","Father","Stranger","Stranger","Stranger","m",6324,6.324,1
9605,"female",25,"right","Hebrew",1,119,"triangle.bmp","Stranger","Matching","Stranger","Stranger","Stranger","Stranger","z",2849,2.849,1
9605,"female",25,"right","Hebrew",1,120,"circle.bmp","Stranger","Nonmatching","Stranger","Self","Self","Self","m",8547,8.547,1
9605,"female",25,"right","Hebrew",2,121,"circle.bmp","Self","Matching","Self","Self","Self","Self","z",2145,2.145,1
9605,"female",25,"right","Hebrew",2,122,"square.bmp","Stranger","Nonmatching","Stranger","Father","Father","Close","m",2302,2.302,1
9605,"female",25,"right","Hebrew",2,123,"circle.bmp","Stranger","Nonmatching","Stranger","Self","Self","Self","m",1981,1.981,1
9605,"female",25,"right","Hebrew",2,124,"square.bmp","Father","Matching","Father","Father","Father","Close","z",2337,2.337,1
9605,"female",25,"right","Hebrew",2,125,"triangle.bmp","Father","Nonmatching","Father","Stranger","Stranger","Stranger","m",2647,2.647,1
9605,"female",25,"right","Hebrew",2,126,"triangle.bmp","Stranger","Matching","Stranger","Stranger","Stranger","Stranger","z",1529,1.529,1
9605,"female",25,"right","Hebrew",2,127,"square.bmp","Father","Matching","Father","Father","Father","Close","z",967,0.967,1
9605,"female",25,"right","Hebrew",2,128,"triangle.bmp","Self","Nonmatching","Self","Stranger","Stranger","Stranger","m",1412,1.412,1
9605,"female",25,"right","Hebrew",2,129,"triangle.bmp","Father","Nonmatching","Father","Stranger","Stranger","Stranger","m",1079,1.079,1
9605,"female",25,"right","Hebrew",2,130,"square.bmp","Stranger","Nonmatching","Stranger","Father","Father","Close","m",1319,1.319,1
9605,"female",25,"right","Hebrew",2,131,"triangle.bmp","Father","Nonmatching","Father","Stranger","Stranger","Stranger","m",1206,1.206,1
9605,"female",25,"right","Hebrew",2,132,"triangle.bmp","Father","Nonmatching","Father","Stranger","Stranger","Stranger","m",1417,1.417,1
9605,"female",25,"right","Hebrew",2,133,"triangle.bmp","Stranger","Matching","Stranger","Stranger","Stranger","Stranger","z",1508,1.508,1
9605,"female",25,"right","Hebrew",2,134,"square.bmp","Stranger","Nonmatching","Stranger","Father","Father","Close","m",1315,1.315,1
9605,"female",25,"right","Hebrew",2,135,"square.bmp","Self","Nonmatching","Self","Father","Father","Close","m",1066,1.066,1
9605,"female",25,"right","Hebrew",2,136,"circle.bmp","Father","Nonmatching","Father","Self","Self","Self","m",1442,1.442,1
9605,"female",25,"right","Hebrew",2,137,"triangle.bmp","Father","Nonmatching","Father","Stranger","Stranger","Stranger","m",1188,1.188,1
9605,"female",25,"right","Hebrew",2,138,"square.bmp","Father","Matching","Father","Father","Father","Close","z",968,0.968,1
9605,"female",25,"right","Hebrew",2,139,"square.bmp","Stranger","Nonmatching","Stranger","Father","Father","Close","m",1780,1.78,1
9605,"female",25,"right","Hebrew",2,140,"square.bmp","Father","Matching","Father","Father","Father","Close","z",3176,3.176,1
9605,"female",25,"right","Hebrew",2,141,"circle.bmp","Father","Nonmatching","Father","Self","Self","Self","m",1652,1.652,1
9605,"female",25,"right","Hebrew",2,142,"triangle.bmp","Stranger","Matching","Stranger","Stranger","Stranger","Stranger","z",1030,1.03,1
9605,"female",25,"right","Hebrew",2,143,"circle.bmp","Father","Nonmatching","Father","Self","Self","Self","m",2072,2.072,1
9605,"female",25,"right","Hebrew",2,144,"square.bmp","Father","Matching","Father","Father","Father","Close","z",857,0.857,1
9605,"female",25,"right","Hebrew",2,145,"circle.bmp","Self","Matching","Self","Self","Self","Self","z",1634,1.634,1
9605,"female",25,"right","Hebrew",2,146,"square.bmp","Self","Nonmatching","Self","Father","Father","Close","m",1515,1.515,1
9605,"female",25,"right","Hebrew",2,147,"triangle.bmp","Self","Nonmatching","Self","Stranger","Stranger","Stranger","m",882,0.882,1
9605,"female",25,"right","Hebrew",2,148,"square.bmp","Father","Matching","Father","Father","Father","Close","z",1058,1.058,1
9605,"female",25,"right","Hebrew",2,149,"square.bmp","Father","Matching","Father","Father","Father","Close","z",1091,1.091,1
9605,"female",25,"right","Hebrew",2,150,"square.bmp","Stranger","Nonmatching","Stranger","Father","Father","Close","m",2403,2.403,1
9605,"female",25,"right","Hebrew",2,151,"circle.bmp","Stranger","Nonmatching","Stranger","Self","Self","Self","m",1814,1.814,1
9605,"female",25,"right","Hebrew",2,152,"circle.bmp","Father","Nonmatching","Father","Self","Self","Self","m",2929,2.929,1
9605,"female",25,"right","Hebrew",2,153,"triangle.bmp","Self","Nonmatching","Self","Stranger","Stranger","Stranger","m",1511,1.511,1
9605,"female",25,"right","Hebrew",2,154,"circle.bmp","Father","Nonmatching","Father","Self","Self","Self","m",1878,1.878,1
9605,"female",25,"right","Hebrew",2,155,"triangle.bmp","Stranger","Matching","Stranger","Stranger","Stranger","Stranger","z",1062,1.062,1
9605,"female",25,"right","Hebrew",2,156,"circle.bmp","Stranger","Nonmatching","Stranger","Self","Self","Self","m",959,0.959,1
9605,"female",25,"right","Hebrew",2,157,"square.bmp","Self","Nonmatching","Self","Father","Father","Close","m",1940,1.94,1
9605,"female",25,"right","Hebrew",2,158,"square.bmp","Self","Nonmatching","Self","Father","Father","Close","m",1161,1.161,1
9605,"female",25,"right","Hebrew",2,159,"triangle.bmp","Stranger","Matching","Stranger","Stranger","Stranger","Stranger","z",1686,1.686,1
9605,"female",25,"right","Hebrew",2,160,"triangle.bmp","Stranger","Matching","Stranger","Stranger","Stranger","Stranger","z",838,0.838,1
9605,"female",25,"right","Hebrew",2,161,"triangle.bmp","Self","Nonmatching","Self","Stranger","Stranger","Stranger","m",1016,1.016,1
9605,"female",25,"right","Hebrew",2,162,"square.bmp","Father","Matching","Father","Father","Father","Close","z",1043,1.043,1
9605,"female",25,"right","Hebrew",2,163,"square.bmp","Father","Matching","Father","Father","Father","Close","z",1285,1.285,1
9605,"female",25,"right","Hebrew",2,164,"square.bmp","Father","Matching","Father","Father","Father","Close","z",2053,2.053,1
9605,"female",25,"right","Hebrew",2,165,"triangle.bmp","Father","Nonmatching","Father","Stranger","Stranger","Stranger","m",998,0.998,1
9605,"female",25,"right","Hebrew",2,166,"circle.bmp","Self","Matching","Self","Self","Self","Self","z",1698,1.698,1
9605,"female",25,"right","Hebrew",2,167,"circle.bmp","Father","Nonmatching","Father","Self","Self","Self","m",1977,1.977,1
9605,"female",25,"right","Hebrew",2,168,"square.bmp","Self","Nonmatching","Self","Father","Father","Close","m",1526,1.526,1
9605,"female",25,"right","Hebrew",2,169,"square.bmp","Father","Matching","Father","Father","Father","Close","z",1348,1.348,1
9605,"female",25,"right","Hebrew",2,170,"triangle.bmp","Stranger","Matching","Stranger","Stranger","Stranger","Stranger","z",1098,1.098,1
9605,"female",25,"right","Hebrew",2,171,"square.bmp","Stranger","Nonmatching","Stranger","Father","Father","Close","m",2073,2.073,1
9605,"female",25,"right","Hebrew",2,172,"square.bmp","Father","Matching","Father","Father","Father","Close","z",1690,1.69,1
9605,"female",25,"right","Hebrew",2,173,"triangle.bmp","Self","Nonmatching","Self","Stranger","Stranger","Stranger","m",1442,1.442,1
9605,"female",25,"right","Hebrew",2,174,"circle.bmp","Self","Matching","Self","Self","Self","Self","z",899,0.899,1
9605,"female",25,"right","Hebrew",2,175,"circle.bmp","Self","Matching","Self","Self","Self","Self","z",1043,1.043,1
9605,"female",25,"right","Hebrew",2,176,"circle.bmp","Self","Matching","Self","Self","Self","Self","z",901,0.901,1
9605,"female",25,"right","Hebrew",2,177,"square.bmp","Self","Nonmatching","Self","Father","Father","Close","m",1044,1.044,1
9605,"female",25,"right","Hebrew",2,178,"circle.bmp","Father","Nonmatching","Father","Self","Self","Self","m",1190,1.19,1
9605,"female",25,"right","Hebrew",2,179,"circle.bmp","Stranger","Nonmatching","Stranger","Self","Self","Self","m",746,0.746,1
9605,"female",25,"right","Hebrew",2,180,"circle.bmp","Self","Matching","Self","Self","Self","Self","z",942,0.942,1
9605,"female",25,"right","Hebrew",2,181,"triangle.bmp","Father","Nonmatching","Father","Stranger","Stranger","Stranger","m",1188,1.188,1
9605,"female",25,"right","Hebrew",2,182,"triangle.bmp","Stranger","Matching","Stranger","Stranger","Stranger","Stranger","z",1112,1.112,1
9605,"female",25,"right","Hebrew",2,183,"triangle.bmp","Stranger","Matching","Stranger","Stranger","Stranger","Stranger","z",871,0.871,1
9605,"female",25,"right","Hebrew",2,184,"triangle.bmp","Father","Nonmatching","Father","Stranger","Stranger","Stranger","m",1080,1.08,1
9605,"female",25,"right","Hebrew",2,185,"circle.bmp","Stranger","Nonmatching","Stranger","Self","Self","Self","z",904,0.904,0
9605,"female",25,"right","Hebrew",2,186,"triangle.bmp","Stranger","Matching","Stranger","Stranger","Stranger","Stranger","z",944,0.944,1
9605,"female",25,"right","Hebrew",2,187,"circle.bmp","Stranger","Nonmatching","Stranger","Self","Self","Self","m",966,0.966,1
9605,"female",25,"right","Hebrew",2,188,"square.bmp","Stranger","Nonmatching","Stranger","Father","Father","Close","m",962,0.962,1
9605,"female",25,"right","Hebrew",2,189,"square.bmp","Father","Matching","Father","Father","Father","Close","z",1143,1.143,1
9605,"female",25,"right","Hebrew",2,190,"triangle.bmp","Stranger","Matching","Stranger","Stranger","Stranger","Stranger","z",2101,2.101,1
9605,"female",25,"right","Hebrew",2,191,"triangle.bmp","Stranger","Matching","Stranger","Stranger","Stranger","Stranger","z",884,0.884,1
9605,"female",25,"right","Hebrew",2,192,"triangle.bmp","Self","Nonmatching","Self","Stranger","Stranger","Stranger","m",869,0.869,1
9605,"female",25,"right","Hebrew",2,193,"triangle.bmp","Father","Nonmatching","Father","Stranger","Stranger","Stranger","m",2037,2.037,1
9605,"female",25,"right","Hebrew",2,194,"square.bmp","Father","Matching","Father","Father","Father","Close","z",1575,1.575,1
9605,"female",25,"right","Hebrew",2,195,"square.bmp","Father","Matching","Father","Father","Father","Close","z",1092,1.092,1
9605,"female",25,"right","Hebrew",2,196,"circle.bmp","Self","Matching","Self","Self","Self","Self","z",1619,1.619,1
9605,"female",25,"right","Hebrew",2,197,"square.bmp","Stranger","Nonmatching","Stranger","Father","Father","Close","m",1430,1.43,1
9605,"female",25,"right","Hebrew",2,198,"circle.bmp","Self","Matching","Self","Self","Self","Self","z",1000,1,1
9605,"female",25,"right","Hebrew",2,199,"circle.bmp","Self","Matching","Self","Self","Self","Self","z",772,0.772,1
9605,"female",25,"right","Hebrew",2,200,"circle.bmp","Stranger","Nonmatching","Stranger","Self","Self","Self","m",1008,1.008,1
9605,"female",25,"right","Hebrew",2,201,"square.bmp","Self","Nonmatching","Self","Father","Father","Close","m",1075,1.075,1
9605,"female",25,"right","Hebrew",2,202,"triangle.bmp","Stranger","Matching","Stranger","Stranger","Stranger","Stranger","z",1268,1.268,1
9605,"female",25,"right","Hebrew",2,203,"triangle.bmp","Stranger","Matching","Stranger","Stranger","Stranger","Stranger","z",1123,1.123,1
9605,"female",25,"right","Hebrew",2,204,"circle.bmp","Self","Matching","Self","Self","Self","Self","z",1042,1.042,1
9605,"female",25,"right","Hebrew",2,205,"circle.bmp","Stranger","Nonmatching","Stranger","Self","Self","Self","m",724,0.724,1
9605,"female",25,"right","Hebrew",2,206,"circle.bmp","Self","Matching","Self","Self","Self","Self","z",1474,1.474,1
9605,"female",25,"right","Hebrew",2,207,"circle.bmp","Self","Matching","Self","Self","Self","Self","z",738,0.738,1
9605,"female",25,"right","Hebrew",2,208,"triangle.bmp","Self","Nonmatching","Self","Stranger","Stranger","Stranger","m",1001,1.001,1
9605,"female",25,"right","Hebrew",2,209,"triangle.bmp","Stranger","Matching","Stranger","Stranger","Stranger","Stranger","z",900,0.9,1
9605,"female",25,"right","Hebrew",2,210,"triangle.bmp","Self","Nonmatching","Self","Stranger","Stranger","Stranger","m",1907,1.907,1
9605,"female",25,"right","Hebrew",2,211,"circle.bmp","Self","Matching","Self","Self","Self","Self","z",898,0.898,1
9605,"female",25,"right","Hebrew",2,212,"triangle.bmp","Self","Nonmatching","Self","Stranger","Stranger","Stranger","m",1154,1.154,1
9605,"female",25,"right","Hebrew",2,213,"square.bmp","Father","Matching","Father","Father","Father","Close","z",1255,1.255,1
9605,"female",25,"right","Hebrew",2,214,"triangle.bmp","Father","Nonmatching","Father","Stranger","Stranger","Stranger","m",1209,1.209,1
9605,"female",25,"right","Hebrew",2,215,"circle.bmp","Self","Matching","Self","Self","Self","Self","z",779,0.779,1
9605,"female",25,"right","Hebrew",2,216,"triangle.bmp","Stranger","Matching","Stranger","Stranger","Stranger","Stranger","z",6168,6.168,1
9605,"female",25,"right","Hebrew",2,217,"square.bmp","Self","Nonmatching","Self","Father","Father","Close","m",1092,1.092,1
9605,"female",25,"right","Hebrew",2,218,"square.bmp","Father","Matching","Father","Father","Father","Close","z",916,0.916,1
9605,"female",25,"right","Hebrew",2,219,"square.bmp","Father","Matching","Father","Father","Father","Close","z",770,0.77,1
9605,"female",25,"right","Hebrew",2,220,"triangle.bmp","Stranger","Matching","Stranger","Stranger","Stranger","Stranger","z",1111,1.111,1
9605,"female",25,"right","Hebrew",2,221,"circle.bmp","Father","Nonmatching","Father","Self","Self","Self","m",1430,1.43,1
9605,"female",25,"right","Hebrew",2,222,"circle.bmp","Stranger","Nonmatching","Stranger","Self","Self","Self","m",1497,1.497,1
9605,"female",25,"right","Hebrew",2,223,"circle.bmp","Self","Matching","Self","Self","Self","Self","z",1032,1.032,1
9605,"female",25,"right","Hebrew",2,224,"square.bmp","Self","Nonmatching","Self","Father","Father","Close","m",1074,1.074,1
9605,"female",25,"right","Hebrew",2,225,"triangle.bmp","Stranger","Matching","Stranger","Stranger","Stranger","Stranger","z",850,0.85,1
9605,"female",25,"right","Hebrew",2,226,"circle.bmp","Self","Matching","Self","Self","Self","Self","z",899,0.899,1
9605,"female",25,"right","Hebrew",2,227,"circle.bmp","Self","Matching","Self","Self","Self","Self","z",2611,2.611,1
9605,"female",25,"right","Hebrew",2,228,"triangle.bmp","Stranger","Matching","Stranger","Stranger","Stranger","Stranger","z",2109,2.109,1
9605,"female",25,"right","Hebrew",2,229,"square.bmp","Father","Matching","Father","Father","Father","Close","z",1796,1.796,1
9605,"female",25,"right","Hebrew",2,230,"circle.bmp","Father","Nonmatching","Father","Self","Self","Self","m",696,0.696,1
9605,"female",25,"right","Hebrew",2,231,"triangle.bmp","Stranger","Matching","Stranger","Stranger","Stranger","Stranger","z",815,0.815,1
9605,"female",25,"right","Hebrew",2,232,"triangle.bmp","Self","Nonmatching","Self","Stranger","Stranger","Stranger","m",2498,2.498,1
9605,"female",25,"right","Hebrew",2,233,"circle.bmp","Stranger","Nonmatching","Stranger","Self","Self","Self","m",865,0.865,1
9605,"female",25,"right","Hebrew",2,234,"circle.bmp","Self","Matching","Self","Self","Self","Self","z",770,0.77,1
9605,"female",25,"right","Hebrew",2,235,"circle.bmp","Father","Nonmatching","Father","Self","Self","Self","m",791,0.791,1
9605,"female",25,"right","Hebrew",2,236,"square.bmp","Father","Matching","Father","Father","Father","Close","z",643,0.643,1
9605,"female",25,"right","Hebrew",2,237,"circle.bmp","Self","Matching","Self","Self","Self","Self","z",1204,1.204,1
9605,"female",25,"right","Hebrew",2,238,"square.bmp","Self","Nonmatching","Self","Father","Father","Close","m",1112,1.112,1
9605,"female",25,"right","Hebrew",2,239,"square.bmp","Stranger","Nonmatching","Stranger","Father","Father","Close","m",967,0.967,1
9605,"female",25,"right","Hebrew",2,240,"square.bmp","Stranger","Nonmatching","Stranger","Father","Father","Close","m",1275,1.275,1
9605,"female",25,"right","Hebrew",3,241,"triangle.bmp","Self","Nonmatching","Self","Stranger","Stranger","Stranger","m",1160,1.16,1
9605,"female",25,"right","Hebrew",3,242,"circle.bmp","Father","Nonmatching","Father","Self","Self","Self","m",924,0.924,1
9605,"female",25,"right","Hebrew",3,243,"circle.bmp","Self","Matching","Self","Self","Self","Self","z",707,0.707,1
9605,"female",25,"right","Hebrew",3,244,"square.bmp","Father","Matching","Father","Father","Father","Close","z",586,0.586,1
9605,"female",25,"right","Hebrew",3,245,"triangle.bmp","Stranger","Matching","Stranger","Stranger","Stranger","Stranger","z",470,0.47,1
9605,"female",25,"right","Hebrew",3,246,"circle.bmp","Father","Nonmatching","Father","Self","Self","Self","m",663,0.663,1
9605,"female",25,"right","Hebrew",3,247,"square.bmp","Self","Nonmatching","Self","Father","Father","Close","m",807,0.807,1
9605,"female",25,"right","Hebrew",3,248,"square.bmp","Stranger","Nonmatching","Stranger","Father","Father","Close","m",1474,1.474,1
9605,"female",25,"right","Hebrew",3,249,"triangle.bmp","Father","Nonmatching","Father","Stranger","Stranger","Stranger","m",739,0.739,1
9605,"female",25,"right","Hebrew",3,250,"circle.bmp","Stranger","Nonmatching","Stranger","Self","Self","Self","m",1257,1.257,1
9605,"female",25,"right","Hebrew",3,251,"triangle.bmp","Stranger","Matching","Stranger","Stranger","Stranger","Stranger","z",914,0.914,1
9605,"female",25,"right","Hebrew",3,252,"square.bmp","Self","Nonmatching","Self","Father","Father","Close","m",1241,1.241,1
9605,"female",25,"right","Hebrew",3,253,"triangle.bmp","Stranger","Matching","Stranger","Stranger","Stranger","Stranger","z",915,0.915,1
9605,"female",25,"right","Hebrew",3,254,"triangle.bmp","Stranger","Matching","Stranger","Stranger","Stranger","Stranger","z",674,0.674,1
9605,"female",25,"right","Hebrew",3,255,"circle.bmp","Self","Matching","Self","Self","Self","Self","z",802,0.802,1
9605,"female",25,"right","Hebrew",3,256,"triangle.bmp","Self","Nonmatching","Self","Stranger","Stranger","Stranger","m",853,0.853,1
9605,"female",25,"right","Hebrew",3,257,"circle.bmp","Self","Matching","Self","Self","Self","Self","z",743,0.743,1
9605,"female",25,"right","Hebrew",3,258,"square.bmp","Stranger","Nonmatching","Stranger","Father","Father","Close","m",1660,1.66,1
9605,"female",25,"right","Hebrew",3,259,"square.bmp","Father","Matching","Father","Father","Father","Close","z",1021,1.021,1
9605,"female",25,"right","Hebrew",3,260,"square.bmp","Father","Matching","Father","Father","Father","Close","z",712,0.712,1
9605,"female",25,"right","Hebrew",3,261,"square.bmp","Father","Matching","Father","Father","Father","Close","z",455,0.455,1
9605,"female",25,"right","Hebrew",3,262,"square.bmp","Stranger","Nonmatching","Stranger","Father","Father","Close","m",1016,1.016,1
9605,"female",25,"right","Hebrew",3,263,"triangle.bmp","Stranger","Matching","Stranger","Stranger","Stranger","Stranger","z",2643,2.643,1
9605,"female",25,"right","Hebrew",3,264,"square.bmp","Self","Nonmatching","Self","Father","Father","Close","m",1164,1.164,1
9605,"female",25,"right","Hebrew",3,265,"triangle.bmp","Stranger","Matching","Stranger","Stranger","Stranger","Stranger","z",777,0.777,1
9605,"female",25,"right","Hebrew",3,266,"circle.bmp","Self","Matching","Self","Self","Self","Self","z",742,0.742,1
9605,"female",25,"right","Hebrew",3,267,"triangle.bmp","Stranger","Matching","Stranger","Stranger","Stranger","Stranger","z",1460,1.46,1
9605,"female",25,"right","Hebrew",3,268,"square.bmp","Self","Nonmatching","Self","Father","Father","Close","m",1052,1.052,1
9605,"female",25,"right","Hebrew",3,269,"circle.bmp","Self","Matching","Self","Self","Self","Self","z",646,0.646,1
9605,"female",25,"right","Hebrew",3,270,"triangle.bmp","Self","Nonmatching","Self","Stranger","Stranger","Stranger","m",1144,1.144,1
9605,"female",25,"right","Hebrew",3,271,"triangle.bmp","Father","Nonmatching","Father","Stranger","Stranger","Stranger","m",1300,1.3,1
9605,"female",25,"right","Hebrew",3,272,"triangle.bmp","Stranger","Matching","Stranger","Stranger","Stranger","Stranger","z",875,0.875,1
9605,"female",25,"right","Hebrew",3,273,"square.bmp","Father","Matching","Father","Father","Father","Close","m",1348,1.348,0
9605,"female",25,"right","Hebrew",3,274,"circle.bmp","Self","Matching","Self","Self","Self","Self","z",697,0.697,1
9605,"female",25,"right","Hebrew",3,275,"triangle.bmp","Stranger","Matching","Stranger","Stranger","Stranger","Stranger","z",1241,1.241,1
9605,"female",25,"right","Hebrew",3,276,"circle.bmp","Father","Nonmatching","Father","Self","Self","Self","m",819,0.819,1
9605,"female",25,"right","Hebrew",3,277,"circle.bmp","Self","Matching","Self","Self","Self","Self","z",901,0.901,1
9605,"female",25,"right","Hebrew",3,278,"square.bmp","Self","Nonmatching","Self","Father","Father","Close","m",773,0.773,1
9605,"female",25,"right","Hebrew",3,279,"square.bmp","Self","Nonmatching","Self","Father","Father","Close","m",778,0.778,1
9605,"female",25,"right","Hebrew",3,280,"circle.bmp","Self","Matching","Self","Self","Self","Self","z",774,0.774,1
9605,"female",25,"right","Hebrew",3,281,"square.bmp","Stranger","Nonmatching","Stranger","Father","Father","Close","m",875,0.875,1
9605,"female",25,"right","Hebrew",3,282,"square.bmp","Father","Matching","Father","Father","Father","Close","z",659,0.659,1
9605,"female",25,"right","Hebrew",3,283,"circle.bmp","Stranger","Nonmatching","Stranger","Self","Self","Self","m",1156,1.156,1
9605,"female",25,"right","Hebrew",3,284,"circle.bmp","Self","Matching","Self","Self","Self","Self","z",738,0.738,1
9605,"female",25,"right","Hebrew",3,285,"triangle.bmp","Stranger","Matching","Stranger","Stranger","Stranger","Stranger","z",1128,1.128,1
9605,"female",25,"right","Hebrew",3,286,"circle.bmp","Father","Nonmatching","Father","Self","Self","Self","m",806,0.806,1
9605,"female",25,"right","Hebrew",3,287,"circle.bmp","Father","Nonmatching","Father","Self","Self","Self","m",553,0.553,1
9605,"female",25,"right","Hebrew",3,288,"triangle.bmp","Self","Nonmatching","Self","Stranger","Stranger","Stranger","m",1031,1.031,1
9605,"female",25,"right","Hebrew",3,289,"triangle.bmp","Father","Nonmatching","Father","Stranger","Stranger","Stranger","m",1033,1.033,1
9605,"female",25,"right","Hebrew",3,290,"circle.bmp","Stranger","Nonmatching","Stranger","Self","Self","Self","m",947,0.947,1
9605,"female",25,"right","Hebrew",3,291,"triangle.bmp","Self","Nonmatching","Self","Stranger","Stranger","Stranger","m",937,0.937,1
9605,"female",25,"right","Hebrew",3,292,"circle.bmp","Self","Matching","Self","Self","Self","Self","z",695,0.695,1
9605,"female",25,"right","Hebrew",3,293,"square.bmp","Father","Matching","Father","Father","Father","Close","z",871,0.871,1
9605,"female",25,"right","Hebrew",3,294,"triangle.bmp","Stranger","Matching","Stranger","Stranger","Stranger","Stranger","z",792,0.792,1
9605,"female",25,"right","Hebrew",3,295,"triangle.bmp","Self","Nonmatching","Self","Stranger","Stranger","Stranger","m",900,0.9,1
9605,"female",25,"right","Hebrew",3,296,"triangle.bmp","Self","Nonmatching","Self","Stranger","Stranger","Stranger","m",1043,1.043,1
9605,"female",25,"right","Hebrew",3,297,"triangle.bmp","Stranger","Matching","Stranger","Stranger","Stranger","Stranger","z",1157,1.157,1
9605,"female",25,"right","Hebrew",3,298,"circle.bmp","Stranger","Nonmatching","Stranger","Self","Self","Self","m",1561,1.561,1
9605,"female",25,"right","Hebrew",3,299,"triangle.bmp","Stranger","Matching","Stranger","Stranger","Stranger","Stranger","z",710,0.71,1
9605,"female",25,"right","Hebrew",3,300,"square.bmp","Father","Matching","Father","Father","Father","Close","z",1029,1.029,1
9605,"female",25,"right","Hebrew",3,301,"circle.bmp","Self","Matching","Self","Self","Self","Self","z",584,0.584,1
9605,"female",25,"right","Hebrew",3,302,"triangle.bmp","Self","Nonmatching","Self","Stranger","Stranger","Stranger","m",628,0.628,1
9605,"female",25,"right","Hebrew",3,303,"circle.bmp","Self","Matching","Self","Self","Self","Self","z",774,0.774,1
9605,"female",25,"right","Hebrew",3,304,"triangle.bmp","Father","Nonmatching","Father","Stranger","Stranger","Stranger","m",947,0.947,1
9605,"female",25,"right","Hebrew",3,305,"circle.bmp","Father","Nonmatching","Father","Self","Self","Self","m",848,0.848,1
9605,"female",25,"right","Hebrew",3,306,"square.bmp","Stranger","Nonmatching","Stranger","Father","Father","Close","m",642,0.642,1
9605,"female",25,"right","Hebrew",3,307,"triangle.bmp","Self","Nonmatching","Self","Stranger","Stranger","Stranger","m",852,0.852,1
9605,"female",25,"right","Hebrew",3,308,"circle.bmp","Stranger","Nonmatching","Stranger","Self","Self","Self","m",1173,1.173,1
9605,"female",25,"right","Hebrew",3,309,"square.bmp","Father","Matching","Father","Father","Father","Close","z",650,0.65,1
9605,"female",25,"right","Hebrew",3,310,"circle.bmp","Stranger","Nonmatching","Stranger","Self","Self","Self","m",1219,1.219,1
9605,"female",25,"right","Hebrew",3,311,"circle.bmp","Self","Matching","Self","Self","Self","Self","z",4054,4.054,1
9605,"female",25,"right","Hebrew",3,312,"triangle.bmp","Self","Nonmatching","Self","Stranger","Stranger","Stranger","m",1271,1.271,1
9605,"female",25,"right","Hebrew",3,313,"triangle.bmp","Father","Nonmatching","Father","Stranger","Stranger","Stranger","m",1215,1.215,1
9605,"female",25,"right","Hebrew",3,314,"triangle.bmp","Father","Nonmatching","Father","Stranger","Stranger","Stranger","m",1106,1.106,1
9605,"female",25,"right","Hebrew",3,315,"triangle.bmp","Father","Nonmatching","Father","Stranger","Stranger","Stranger","m",618,0.618,1
9605,"female",25,"right","Hebrew",3,316,"square.bmp","Father","Matching","Father","Father","Father","Close","z",1588,1.588,1
9605,"female",25,"right","Hebrew",3,317,"circle.bmp","Stranger","Nonmatching","Stranger","Self","Self","Self","m",776,0.776,1
9605,"female",25,"right","Hebrew",3,318,"triangle.bmp","Stranger","Matching","Stranger","Stranger","Stranger","Stranger","z",805,0.805,1
9605,"female",25,"right","Hebrew",3,319,"square.bmp","Self","Nonmatching","Self","Father","Father","Close","m",824,0.824,1
9605,"female",25,"right","Hebrew",3,320,"circle.bmp","Self","Matching","Self","Self","Self","Self","z",995,0.995,1
9605,"female",25,"right","Hebrew",3,321,"square.bmp","Self","Nonmatching","Self","Father","Father","Close","m",1542,1.542,1
9605,"female",25,"right","Hebrew",3,322,"circle.bmp","Self","Matching","Self","Self","Self","Self","z",803,0.803,1
9605,"female",25,"right","Hebrew",3,323,"circle.bmp","Father","Nonmatching","Father","Self","Self","Self","m",967,0.967,1
9605,"female",25,"right","Hebrew",3,324,"square.bmp","Father","Matching","Father","Father","Father","Close","z",755,0.755,1
9605,"female",25,"right","Hebrew",3,325,"circle.bmp","Stranger","Nonmatching","Stranger","Self","Self","Self","m",777,0.777,1
9605,"female",25,"right","Hebrew",3,326,"square.bmp","Father","Matching","Father","Father","Father","Close","z",805,0.805,1
9605,"female",25,"right","Hebrew",3,327,"triangle.bmp","Stranger","Matching","Stranger","Stranger","Stranger","Stranger","z",889,0.889,1
9605,"female",25,"right","Hebrew",3,328,"circle.bmp","Self","Matching","Self","Self","Self","Self","z",1001,1.001,1
9605,"female",25,"right","Hebrew",3,329,"triangle.bmp","Stranger","Matching","Stranger","Stranger","Stranger","Stranger","z",1220,1.22,1
9605,"female",25,"right","Hebrew",3,330,"square.bmp","Father","Matching","Father","Father","Father","Close","z",759,0.759,1
9605,"female",25,"right","Hebrew",3,331,"triangle.bmp","Father","Nonmatching","Father","Stranger","Stranger","Stranger","m",692,0.692,1
9605,"female",25,"right","Hebrew",3,332,"square.bmp","Father","Matching","Father","Father","Father","Close","z",676,0.676,1
9605,"female",25,"right","Hebrew",3,333,"triangle.bmp","Stranger","Matching","Stranger","Stranger","Stranger","Stranger","z",884,0.884,1
9605,"female",25,"right","Hebrew",3,334,"circle.bmp","Self","Matching","Self","Self","Self","Self","z",676,0.676,1
9605,"female",25,"right","Hebrew",3,335,"triangle.bmp","Stranger","Matching","Stranger","Stranger","Stranger","Stranger","z",1045,1.045,1
9605,"female",25,"right","Hebrew",3,336,"square.bmp","Father","Matching","Father","Father","Father","Close","z",1678,1.678,1
9605,"female",25,"right","Hebrew",3,337,"circle.bmp","Father","Nonmatching","Father","Self","Self","Self","m",903,0.903,1
9605,"female",25,"right","Hebrew",3,338,"square.bmp","Father","Matching","Father","Father","Father","Close","z",1014,1.014,1
9605,"female",25,"right","Hebrew",3,339,"triangle.bmp","Stranger","Matching","Stranger","Stranger","Stranger","Stranger","z",761,0.761,1
9605,"female",25,"right","Hebrew",3,340,"triangle.bmp","Stranger","Matching","Stranger","Stranger","Stranger","Stranger","z",774,0.774,1
9605,"female",25,"right","Hebrew",3,341,"circle.bmp","Father","Nonmatching","Father","Self","Self","Self","m",963,0.963,1
9605,"female",25,"right","Hebrew",3,342,"square.bmp","Father","Matching","Father","Father","Father","Close","z",808,0.808,1
9605,"female",25,"right","Hebrew",3,343,"square.bmp","Father","Matching","Father","Father","Father","Close","z",1411,1.411,1
9605,"female",25,"right","Hebrew",3,344,"circle.bmp","Self","Matching","Self","Self","Self","Self","z",710,0.71,1
9605,"female",25,"right","Hebrew",3,345,"square.bmp","Self","Nonmatching","Self","Father","Father","Close","m",965,0.965,1
9605,"female",25,"right","Hebrew",3,346,"circle.bmp","Stranger","Nonmatching","Stranger","Self","Self","Self","m",1114,1.114,1
9605,"female",25,"right","Hebrew",3,347,"square.bmp","Stranger","Nonmatching","Stranger","Father","Father","Close","m",1433,1.433,1
9605,"female",25,"right","Hebrew",3,348,"circle.bmp","Self","Matching","Self","Self","Self","Self","z",786,0.786,1
9605,"female",25,"right","Hebrew",3,349,"square.bmp","Stranger","Nonmatching","Stranger","Father","Father","Close","m",1654,1.654,1
9605,"female",25,"right","Hebrew",3,350,"square.bmp","Stranger","Nonmatching","Stranger","Father","Father","Close","m",712,0.712,1
9605,"female",25,"right","Hebrew",3,351,"circle.bmp","Self","Matching","Self","Self","Self","Self","z",663,0.663,1
9605,"female",25,"right","Hebrew",3,352,"triangle.bmp","Father","Nonmatching","Father","Stranger","Stranger","Stranger","m",1032,1.032,1
9605,"female",25,"right","Hebrew",3,353,"circle.bmp","Stranger","Nonmatching","Stranger","Self","Self","Self","m",1202,1.202,1
9605,"female",25,"right","Hebrew",3,354,"triangle.bmp","Father","Nonmatching","Father","Stranger","Stranger","Stranger","m",933,0.933,1
9605,"female",25,"right","Hebrew",3,355,"square.bmp","Father","Matching","Father","Father","Father","Close","z",692,0.692,1
9605,"female",25,"right","Hebrew",3,356,"square.bmp","Self","Nonmatching","Self","Father","Father","Close","m",1027,1.027,1
9605,"female",25,"right","Hebrew",3,357,"square.bmp","Stranger","Nonmatching","Stranger","Father","Father","Close","m",1685,1.685,1
9605,"female",25,"right","Hebrew",3,358,"square.bmp","Father","Matching","Father","Father","Father","Close","z",821,0.821,1
9605,"female",25,"right","Hebrew",3,359,"circle.bmp","Father","Nonmatching","Father","Self","Self","Self","m",888,0.888,1
9605,"female",25,"right","Hebrew",3,360,"square.bmp","Stranger","Nonmatching","Stranger","Father","Father","Close","m",2032,2.032,1
9612,"female",21,"right","Hebrew",1,1,"circle.bmp","Stranger","Nonmatching","Stranger","Self","Self","Self","z",1701,1.701,1
9612,"female",21,"right","Hebrew",1,2,"triangle.bmp","Father","Matching","Father","Father","Father","Close","m",1509,1.509,1
9612,"female",21,"right","Hebrew",1,3,"triangle.bmp","Self","Nonmatching","Self","Father","Father","Close","z",1067,1.067,1
9612,"female",21,"right","Hebrew",1,4,"square.bmp","Self","Nonmatching","Self","Stranger","Stranger","Stranger","z",1172,1.172,1
9612,"female",21,"right","Hebrew",1,5,"triangle.bmp","Stranger","Nonmatching","Stranger","Father","Father","Close","z",976,0.976,1
9612,"female",21,"right","Hebrew",1,6,"triangle.bmp","Father","Matching","Father","Father","Father","Close","m",1109,1.109,1
9612,"female",21,"right","Hebrew",1,7,"circle.bmp","Self","Matching","Self","Self","Self","Self","z",836,0.836,0
9612,"female",21,"right","Hebrew",1,8,"triangle.bmp","Stranger","Nonmatching","Stranger","Father","Father","Close","z",1966,1.966,1
9612,"female",21,"right","Hebrew",1,9,"square.bmp","Stranger","Matching","Stranger","Stranger","Stranger","Stranger","m",931,0.931,1
9612,"female",21,"right","Hebrew",1,10,"circle.bmp","Self","Matching","Self","Self","Self","Self","m",1169,1.169,1
9612,"female",21,"right","Hebrew",1,11,"triangle.bmp","Father","Matching","Father","Father","Father","Close","m",764,0.764,1
9612,"female",21,"right","Hebrew",1,12,"triangle.bmp","Self","Nonmatching","Self","Father","Father","Close","z",737,0.737,1
9612,"female",21,"right","Hebrew",1,13,"circle.bmp","Self","Matching","Self","Self","Self","Self","m",647,0.647,1
9612,"female",21,"right","Hebrew",1,14,"square.bmp","Self","Nonmatching","Self","Stranger","Stranger","Stranger","z",872,0.872,1
9612,"female",21,"right","Hebrew",1,15,"triangle.bmp","Father","Matching","Father","Father","Father","Close","m",889,0.889,1
9612,"female",21,"right","Hebrew",1,16,"circle.bmp","Stranger","Nonmatching","Stranger","Self","Self","Self","z",2889,2.889,1
9612,"female",21,"right","Hebrew",1,17,"square.bmp","Father","Nonmatching","Father","Stranger","Stranger","Stranger","z",905,0.905,1
9612,"female",21,"right","Hebrew",1,18,"triangle.bmp","Father","Matching","Father","Father","Father","Close","m",2648,2.648,1
9612,"female",21,"right","Hebrew",1,19,"square.bmp","Stranger","Matching","Stranger","Stranger","Stranger","Stranger","m",746,0.746,1
9612,"female",21,"right","Hebrew",1,20,"square.bmp","Father","Nonmatching","Father","Stranger","Stranger","Stranger","z",1400,1.4,1
9612,"female",21,"right","Hebrew",1,21,"circle.bmp","Father","Nonmatching","Father","Self","Self","Self","m",819,0.819,0
9612,"female",21,"right","Hebrew",1,22,"circle.bmp","Stranger","Nonmatching","Stranger","Self","Self","Self","z",1806,1.806,1
9612,"female",21,"right","Hebrew",1,23,"triangle.bmp","Father","Matching","Father","Father","Father","Close","m",713,0.713,1
9612,"female",21,"right","Hebrew",1,24,"square.bmp","Father","Nonmatching","Father","Stranger","Stranger","Stranger","z",856,0.856,1
9612,"female",21,"right","Hebrew",1,25,"triangle.bmp","Self","Nonmatching","Self","Father","Father","Close","z",1034,1.034,1
9612,"female",21,"right","Hebrew",1,26,"square.bmp","Stranger","Matching","Stranger","Stranger","Stranger","Stranger","m",1348,1.348,1
9612,"female",21,"right","Hebrew",1,27,"circle.bmp","Self","Matching","Self","Self","Self","Self","m",681,0.681,1
9612,"female",21,"right","Hebrew",1,28,"square.bmp","Father","Nonmatching","Father","Stranger","Stranger","Stranger","z",1562,1.562,1
9612,"female",21,"right","Hebrew",1,29,"circle.bmp","Self","Matching","Self","Self","Self","Self","m",1175,1.175,1
9612,"female",21,"right","Hebrew",1,30,"square.bmp","Self","Nonmatching","Self","Stranger","Stranger","Stranger","z",1155,1.155,1
9612,"female",21,"right","Hebrew",1,31,"circle.bmp","Self","Matching","Self","Self","Self","Self","m",681,0.681,1
9612,"female",21,"right","Hebrew",1,32,"circle.bmp","Self","Matching","Self","Self","Self","Self","m",1113,1.113,1
9612,"female",21,"right","Hebrew",1,33,"square.bmp","Stranger","Matching","Stranger","Stranger","Stranger","Stranger","m",840,0.84,1
9612,"female",21,"right","Hebrew",1,34,"triangle.bmp","Stranger","Nonmatching","Stranger","Father","Father","Close","z",2650,2.65,1
9612,"female",21,"right","Hebrew",1,35,"square.bmp","Stranger","Matching","Stranger","Stranger","Stranger","Stranger","m",884,0.884,1
9612,"female",21,"right","Hebrew",1,36,"triangle.bmp","Stranger","Nonmatching","Stranger","Father","Father","Close","z",1379,1.379,1
9612,"female",21,"right","Hebrew",1,37,"circle.bmp","Self","Matching","Self","Self","Self","Self","m",615,0.615,1
9612,"female",21,"right","Hebrew",1,38,"triangle.bmp","Self","Nonmatching","Self","Father","Father","Close","z",1938,1.938,1
9612,"female",21,"right","Hebrew",1,39,"circle.bmp","Self","Matching","Self","Self","Self","Self","m",559,0.559,1
9612,"female",21,"right","Hebrew",1,40,"circle.bmp","Stranger","Nonmatching","Stranger","Self","Self","Self","z",1141,1.141,1
9612,"female",21,"right","Hebrew",1,41,"triangle.bmp","Father","Matching","Father","Father","Father","Close","m",626,0.626,1
9612,"female",21,"right","Hebrew",1,42,"triangle.bmp","Father","Matching","Father","Father","Father","Close","m",588,0.588,1
9612,"female",21,"right","Hebrew",1,43,"triangle.bmp","Stranger","Nonmatching","Stranger","Father","Father","Close","m",464,0.464,0
9612,"female",21,"right","Hebrew",1,44,"circle.bmp","Father","Nonmatching","Father","Self","Self","Self","z",1225,1.225,1
9612,"female",21,"right","Hebrew",1,45,"triangle.bmp","Father","Matching","Father","Father","Father","Close","m",755,0.755,1
9612,"female",21,"right","Hebrew",1,46,"triangle.bmp","Father","Matching","Father","Father","Father","Close","m",593,0.593,1
9612,"female",21,"right","Hebrew",1,47,"circle.bmp","Stranger","Nonmatching","Stranger","Self","Self","Self","z",1260,1.26,1
9612,"female",21,"right","Hebrew",1,48,"square.bmp","Stranger","Matching","Stranger","Stranger","Stranger","Stranger","m",837,0.837,1
9612,"female",21,"right","Hebrew",1,49,"triangle.bmp","Father","Matching","Father","Father","Father","Close","m",583,0.583,1
9612,"female",21,"right","Hebrew",1,50,"square.bmp","Self","Nonmatching","Self","Stranger","Stranger","Stranger","z",915,0.915,1
9612,"female",21,"right","Hebrew",1,51,"square.bmp","Stranger","Matching","Stranger","Stranger","Stranger","Stranger","m",914,0.914,1
9612,"female",21,"right","Hebrew",1,52,"circle.bmp","Self","Matching","Self","Self","Self","Self","m",905,0.905,1
9612,"female",21,"right","Hebrew",1,53,"triangle.bmp","Father","Matching","Father","Father","Father","Close","m",825,0.825,1
9612,"female",21,"right","Hebrew",1,54,"circle.bmp","Stranger","Nonmatching","Stranger","Self","Self","Self","z",931,0.931,1
9612,"female",21,"right","Hebrew",1,55,"square.bmp","Stranger","Matching","Stranger","Stranger","Stranger","Stranger","m",873,0.873,1
9612,"female",21,"right","Hebrew",1,56,"triangle.bmp","Stranger","Nonmatching","Stranger","Father","Father","Close","z",898,0.898,1
9612,"female",21,"right","Hebrew",1,57,"triangle.bmp","Stranger","Nonmatching","Stranger","Father","Father","Close","z",721,0.721,1
9612,"female",21,"right","Hebrew",1,58,"circle.bmp","Self","Matching","Self","Self","Self","Self","m",584,0.584,1
9612,"female",21,"right","Hebrew",1,59,"square.bmp","Stranger","Matching","Stranger","Stranger","Stranger","Stranger","m",852,0.852,1
9612,"female",21,"right","Hebrew",1,60,"triangle.bmp","Self","Nonmatching","Self","Father","Father","Close","z",1126,1.126,1
9612,"female",21,"right","Hebrew",1,61,"circle.bmp","Stranger","Nonmatching","Stranger","Self","Self","Self","z",884,0.884,1
9612,"female",21,"right","Hebrew",1,62,"circle.bmp","Self","Matching","Self","Self","Self","Self","m",740,0.74,1
9612,"female",21,"right","Hebrew",1,63,"square.bmp","Father","Nonmatching","Father","Stranger","Stranger","Stranger","z",1865,1.865,1
9612,"female",21,"right","Hebrew",1,64,"square.bmp","Stranger","Matching","Stranger","Stranger","Stranger","Stranger","m",866,0.866,1
9612,"female",21,"right","Hebrew",1,65,"square.bmp","Stranger","Matching","Stranger","Stranger","Stranger","Stranger","m",611,0.611,1
9612,"female",21,"right","Hebrew",1,66,"triangle.bmp","Stranger","Nonmatching","Stranger","Father","Father","Close","z",742,0.742,1
9612,"female",21,"right","Hebrew",1,67,"triangle.bmp","Self","Nonmatching","Self","Father","Father","Close","z",795,0.795,1
9612,"female",21,"right","Hebrew",1,68,"square.bmp","Self","Nonmatching","Self","Stranger","Stranger","Stranger","z",807,0.807,1
9612,"female",21,"right","Hebrew",1,69,"circle.bmp","Self","Matching","Self","Self","Self","Self","m",658,0.658,1
9612,"female",21,"right","Hebrew",1,70,"triangle.bmp","Self","Nonmatching","Self","Father","Father","Close","z",963,0.963,1
9612,"female",21,"right","Hebrew",1,71,"square.bmp","Stranger","Matching","Stranger","Stranger","Stranger","Stranger","m",984,0.984,1
9612,"female",21,"right","Hebrew",1,72,"square.bmp","Self","Nonmatching","Self","Stranger","Stranger","Stranger","z",748,0.748,1
9612,"female",21,"right","Hebrew",1,73,"square.bmp","Stranger","Matching","Stranger","Stranger","Stranger","Stranger","m",914,0.914,1
9612,"female",21,"right","Hebrew",1,74,"triangle.bmp","Self","Nonmatching","Self","Father","Father","Close","z",905,0.905,1
9612,"female",21,"right","Hebrew",1,75,"square.bmp","Stranger","Matching","Stranger","Stranger","Stranger","Stranger","m",648,0.648,1
9612,"female",21,"right","Hebrew",1,76,"circle.bmp","Father","Nonmatching","Father","Self","Self","Self","m",594,0.594,0
9612,"female",21,"right","Hebrew",1,77,"circle.bmp","Stranger","Nonmatching","Stranger","Self","Self","Self","z",1085,1.085,1
9612,"female",21,"right","Hebrew",1,78,"square.bmp","Self","Nonmatching","Self","Stranger","Stranger","Stranger","z",854,0.854,1
9612,"female",21,"right","Hebrew",1,79,"triangle.bmp","Father","Matching","Father","Father","Father","Close","m",759,0.759,1
9612,"female",21,"right","Hebrew",1,80,"triangle.bmp","Self","Nonmatching","Self","Father","Father","Close","z",1300,1.3,1
9612,"female",21,"right","Hebrew",1,81,"circle.bmp","Father","Nonmatching","Father","Self","Self","Self","z",1411,1.411,1
9612,"female",21,"right","Hebrew",1,82,"circle.bmp","Father","Nonmatching","Father","Self","Self","Self","z",1159,1.159,1
9612,"female",21,"right","Hebrew",1,83,"square.bmp","Stranger","Matching","Stranger","Stranger","Stranger","Stranger","m",948,0.948,1
9612,"female",21,"right","Hebrew",1,84,"circle.bmp","Self","Matching","Self","Self","Self","Self","m",793,0.793,1
9612,"female",21,"right","Hebrew",1,85,"triangle.bmp","Stranger","Nonmatching","Stranger","Father","Father","Close","z",869,0.869,1
9612,"female",21,"right","Hebrew",1,86,"circle.bmp","Self","Matching","Self","Self","Self","Self","m",726,0.726,1
9612,"female",21,"right","Hebrew",1,87,"square.bmp","Stranger","Matching","Stranger","Stranger","Stranger","Stranger","z",1012,1.012,0
9612,"female",21,"right","Hebrew",1,88,"square.bmp","Stranger","Matching","Stranger","Stranger","Stranger","Stranger","m",767,0.767,1
9612,"female",21,"right","Hebrew",1,89,"triangle.bmp","Father","Matching","Father","Father","Father","Close","m",643,0.643,1
9612,"female",21,"right","Hebrew",1,90,"triangle.bmp","Father","Matching","Father","Father","Father","Close","m",1637,1.637,1
9612,"female",21,"right","Hebrew",1,91,"circle.bmp","Father","Nonmatching","Father","Self","Self","Self","z",1015,1.015,1
9612,"female",21,"right","Hebrew",1,92,"circle.bmp","Stranger","Nonmatching","Stranger","Self","Self","Self","z",2114,2.114,1
9612,"female",21,"right","Hebrew",1,93,"triangle.bmp","Self","Nonmatching","Self","Father","Father","Close","z",905,0.905,1
9612,"female",21,"right","Hebrew",1,94,"circle.bmp","Father","Nonmatching","Father","Self","Self","Self","z",1768,1.768,1
9612,"female",21,"right","Hebrew",1,95,"circle.bmp","Self","Matching","Self","Self","Self","Self","m",1029,1.029,1
9612,"female",21,"right","Hebrew",1,96,"circle.bmp","Father","Nonmatching","Father","Self","Self","Self","z",1383,1.383,1
9612,"female",21,"right","Hebrew",1,97,"square.bmp","Self","Nonmatching","Self","Stranger","Stranger","Stranger","z",787,0.787,1
9612,"female",21,"right","Hebrew",1,98,"triangle.bmp","Father","Matching","Father","Father","Father","Close","m",647,0.647,1
9612,"female",21,"right","Hebrew",1,99,"square.bmp","Father","Nonmatching","Father","Stranger","Stranger","Stranger","z",761,0.761,1
9612,"female",21,"right","Hebrew",1,100,"circle.bmp","Self","Matching","Self","Self","Self","Self","m",1046,1.046,1
9612,"female",21,"right","Hebrew",1,101,"triangle.bmp","Father","Matching","Father","Father","Father","Close","m",1096,1.096,1
9612,"female",21,"right","Hebrew",1,102,"triangle.bmp","Father","Matching","Father","Father","Father","Close","m",655,0.655,1
9612,"female",21,"right","Hebrew",1,103,"square.bmp","Stranger","Matching","Stranger","Stranger","Stranger","Stranger","m",745,0.745,1
9612,"female",21,"right","Hebrew",1,104,"square.bmp","Father","Nonmatching","Father","Stranger","Stranger","Stranger","m",631,0.631,0
9612,"female",21,"right","Hebrew",1,105,"triangle.bmp","Stranger","Nonmatching","Stranger","Father","Father","Close","z",1137,1.137,1
9612,"female",21,"right","Hebrew",1,106,"circle.bmp","Father","Nonmatching","Father","Self","Self","Self","z",1703,1.703,1
9612,"female",21,"right","Hebrew",1,107,"square.bmp","Father","Nonmatching","Father","Stranger","Stranger","Stranger","z",998,0.998,1
9612,"female",21,"right","Hebrew",1,108,"circle.bmp","Self","Matching","Self","Self","Self","Self","m",706,0.706,1
9612,"female",21,"right","Hebrew",1,109,"circle.bmp","Self","Matching","Self","Self","Self","Self","m",921,0.921,1
9612,"female",21,"right","Hebrew",1,110,"square.bmp","Father","Nonmatching","Father","Stranger","Stranger","Stranger","z",680,0.68,1
9612,"female",21,"right","Hebrew",1,111,"circle.bmp","Father","Nonmatching","Father","Self","Self","Self","z",777,0.777,1
9612,"female",21,"right","Hebrew",1,112,"square.bmp","Father","Nonmatching","Father","Stranger","Stranger","Stranger","z",885,0.885,1
9612,"female",21,"right","Hebrew",1,113,"circle.bmp","Self","Matching","Self","Self","Self","Self","m",741,0.741,1
9612,"female",21,"right","Hebrew",1,114,"triangle.bmp","Father","Matching","Father","Father","Father","Close","m",1122,1.122,1
9612,"female",21,"right","Hebrew",1,115,"square.bmp","Self","Nonmatching","Self","Stranger","Stranger","Stranger","z",800,0.8,1
9612,"female",21,"right","Hebrew",1,116,"square.bmp","Self","Nonmatching","Self","Stranger","Stranger","Stranger","z",708,0.708,1
9612,"female",21,"right","Hebrew",1,117,"square.bmp","Stranger","Matching","Stranger","Stranger","Stranger","Stranger","m",611,0.611,1
9612,"female",21,"right","Hebrew",1,118,"circle.bmp","Stranger","Nonmatching","Stranger","Self","Self","Self","z",670,0.67,1
9612,"female",21,"right","Hebrew",1,119,"triangle.bmp","Father","Matching","Father","Father","Father","Close","m",663,0.663,1
9612,"female",21,"right","Hebrew",1,120,"square.bmp","Stranger","Matching","Stranger","Stranger","Stranger","Stranger","z",735,0.735,0
9612,"female",21,"right","Hebrew",2,121,"circle.bmp","Father","Nonmatching","Father","Self","Self","Self","z",1063,1.063,1
9612,"female",21,"right","Hebrew",2,122,"square.bmp","Stranger","Matching","Stranger","Stranger","Stranger","Stranger","m",816,0.816,1
9612,"female",21,"right","Hebrew",2,123,"triangle.bmp","Father","Matching","Father","Father","Father","Close","m",1251,1.251,1
9612,"female",21,"right","Hebrew",2,124,"circle.bmp","Father","Nonmatching","Father","Self","Self","Self","z",868,0.868,1
9612,"female",21,"right","Hebrew",2,125,"triangle.bmp","Self","Nonmatching","Self","Father","Father","Close","z",901,0.901,1
9612,"female",21,"right","Hebrew",2,126,"circle.bmp","Self","Matching","Self","Self","Self","Self","m",612,0.612,1
9612,"female",21,"right","Hebrew",2,127,"square.bmp","Stranger","Matching","Stranger","Stranger","Stranger","Stranger","m",695,0.695,1
9612,"female",21,"right","Hebrew",2,128,"triangle.bmp","Father","Matching","Father","Father","Father","Close","m",719,0.719,1
9612,"female",21,"right","Hebrew",2,129,"square.bmp","Stranger","Matching","Stranger","Stranger","Stranger","Stranger","m",813,0.813,1
9612,"female",21,"right","Hebrew",2,130,"triangle.bmp","Father","Matching","Father","Father","Father","Close","m",680,0.68,1
9612,"female",21,"right","Hebrew",2,131,"circle.bmp","Self","Matching","Self","Self","Self","Self","m",601,0.601,1
9612,"female",21,"right","Hebrew",2,132,"circle.bmp","Self","Matching","Self","Self","Self","Self","m",836,0.836,1
9612,"female",21,"right","Hebrew",2,133,"square.bmp","Self","Nonmatching","Self","Stranger","Stranger","Stranger","z",711,0.711,1
9612,"female",21,"right","Hebrew",2,134,"triangle.bmp","Self","Nonmatching","Self","Father","Father","Close","z",854,0.854,1
9612,"female",21,"right","Hebrew",2,135,"circle.bmp","Father","Nonmatching","Father","Self","Self","Self","z",1639,1.639,1
9612,"female",21,"right","Hebrew",2,136,"square.bmp","Stranger","Matching","Stranger","Stranger","Stranger","Stranger","m",712,0.712,1
9612,"female",21,"right","Hebrew",2,137,"circle.bmp","Father","Nonmatching","Father","Self","Self","Self","z",823,0.823,1
9612,"female",21,"right","Hebrew",2,138,"triangle.bmp","Father","Matching","Father","Father","Father","Close","m",850,0.85,1
9612,"female",21,"right","Hebrew",2,139,"circle.bmp","Stranger","Nonmatching","Stranger","Self","Self","Self","z",947,0.947,1
9612,"female",21,"right","Hebrew",2,140,"triangle.bmp","Stranger","Nonmatching","Stranger","Father","Father","Close","z",953,0.953,1
9612,"female",21,"right","Hebrew",2,141,"square.bmp","Stranger","Matching","Stranger","Stranger","Stranger","Stranger","m",798,0.798,1
9612,"female",21,"right","Hebrew",2,142,"square.bmp","Self","Nonmatching","Self","Stranger","Stranger","Stranger","z",833,0.833,1
9612,"female",21,"right","Hebrew",2,143,"circle.bmp","Self","Matching","Self","Self","Self","Self","m",548,0.548,1
9612,"female",21,"right","Hebrew",2,144,"square.bmp","Stranger","Matching","Stranger","Stranger","Stranger","Stranger","m",921,0.921,1
9612,"female",21,"right","Hebrew",2,145,"triangle.bmp","Father","Matching","Father","Father","Father","Close","m",472,0.472,1
9612,"female",21,"right","Hebrew",2,146,"triangle.bmp","Father","Matching","Father","Father","Father","Close","m",633,0.633,1
9612,"female",21,"right","Hebrew",2,147,"circle.bmp","Father","Nonmatching","Father","Self","Self","Self","z",755,0.755,1
9612,"female",21,"right","Hebrew",2,148,"triangle.bmp","Stranger","Nonmatching","Stranger","Father","Father","Close","z",1088,1.088,1
9612,"female",21,"right","Hebrew",2,149,"triangle.bmp","Stranger","Nonmatching","Stranger","Father","Father","Close","z",568,0.568,1
9612,"female",21,"right","Hebrew",2,150,"circle.bmp","Self","Matching","Self","Self","Self","Self","m",725,0.725,1
9612,"female",21,"right","Hebrew",2,151,"circle.bmp","Father","Nonmatching","Father","Self","Self","Self","z",996,0.996,1
9612,"female",21,"right","Hebrew",2,152,"square.bmp","Self","Nonmatching","Self","Stranger","Stranger","Stranger","z",807,0.807,1
9612,"female",21,"right","Hebrew",2,153,"square.bmp","Stranger","Matching","Stranger","Stranger","Stranger","Stranger","m",514,0.514,1
9612,"female",21,"right","Hebrew",2,154,"circle.bmp","Self","Matching","Self","Self","Self","Self","m",906,0.906,1
9612,"female",21,"right","Hebrew",2,155,"square.bmp","Stranger","Matching","Stranger","Stranger","Stranger","Stranger","m",953,0.953,1
9612,"female",21,"right","Hebrew",2,156,"circle.bmp","Father","Nonmatching","Father","Self","Self","Self","z",582,0.582,1
9612,"female",21,"right","Hebrew",2,157,"square.bmp","Stranger","Matching","Stranger","Stranger","Stranger","Stranger","m",1027,1.027,1
9612,"female",21,"right","Hebrew",2,158,"triangle.bmp","Father","Matching","Father","Father","Father","Close","m",629,0.629,1
9612,"female",21,"right","Hebrew",2,159,"circle.bmp","Father","Nonmatching","Father","Self","Self","Self","z",1127,1.127,1
9612,"female",21,"right","Hebrew",2,160,"square.bmp","Father","Nonmatching","Father","Stranger","Stranger","Stranger","z",758,0.758,1
9612,"female",21,"right","Hebrew",2,161,"circle.bmp","Stranger","Nonmatching","Stranger","Self","Self","Self","z",1027,1.027,1
9612,"female",21,"right","Hebrew",2,162,"circle.bmp","Self","Matching","Self","Self","Self","Self","m",613,0.613,1
9612,"female",21,"right","Hebrew",2,163,"square.bmp","Self","Nonmatching","Self","Stranger","Stranger","Stranger","z",745,0.745,1
9612,"female",21,"right","Hebrew",2,164,"circle.bmp","Stranger","Nonmatching","Stranger","Self","Self","Self","z",1141,1.141,1
9612,"female",21,"right","Hebrew",2,165,"square.bmp","Father","Nonmatching","Father","Stranger","Stranger","Stranger","z",883,0.883,1
9612,"female",21,"right","Hebrew",2,166,"triangle.bmp","Self","Nonmatching","Self","Father","Father","Close","z",803,0.803,1
9612,"female",21,"right","Hebrew",2,167,"circle.bmp","Self","Matching","Self","Self","Self","Self","m",599,0.599,1
9612,"female",21,"right","Hebrew",2,168,"triangle.bmp","Stranger","Nonmatching","Stranger","Father","Father","Close","z",2178,2.178,1
9612,"female",21,"right","Hebrew",2,169,"square.bmp","Self","Nonmatching","Self","Stranger","Stranger","Stranger","z",1574,1.574,1
9612,"female",21,"right","Hebrew",2,170,"square.bmp","Stranger","Matching","Stranger","Stranger","Stranger","Stranger","m",851,0.851,1
9612,"female",21,"right","Hebrew",2,171,"triangle.bmp","Father","Matching","Father","Father","Father","Close","m",660,0.66,1
9612,"female",21,"right","Hebrew",2,172,"circle.bmp","Self","Matching","Self","Self","Self","Self","m",389,0.389,1
9612,"female",21,"right","Hebrew",2,173,"triangle.bmp","Father","Matching","Father","Father","Father","Close","m",633,0.633,1
9612,"female",21,"right","Hebrew",2,174,"triangle.bmp","Father","Matching","Father","Father","Father","Close","m",644,0.644,1
9612,"female",21,"right","Hebrew",2,175,"triangle.bmp","Father","Matching","Father","Father","Father","Close","m",485,0.485,1
9612,"female",21,"right","Hebrew",2,176,"square.bmp","Father","Nonmatching","Father","Stranger","Stranger","Stranger","z",854,0.854,1
9612,"female",21,"right","Hebrew",2,177,"square.bmp","Stranger","Matching","Stranger","Stranger","Stranger","Stranger","m",695,0.695,1
9612,"female",21,"right","Hebrew",2,178,"square.bmp","Stranger","Matching","Stranger","Stranger","Stranger","Stranger","m",631,0.631,1
9612,"female",21,"right","Hebrew",2,179,"circle.bmp","Self","Matching","Self","Self","Self","Self","m",937,0.937,1
9612,"female",21,"right","Hebrew",2,180,"circle.bmp","Stranger","Nonmatching","Stranger","Self","Self","Self","m",615,0.615,0
9612,"female",21,"right","Hebrew",2,181,"circle.bmp","Stranger","Nonmatching","Stranger","Self","Self","Self","z",1546,1.546,1
9612,"female",21,"right","Hebrew",2,182,"square.bmp","Father","Nonmatching","Father","Stranger","Stranger","Stranger","z",1512,1.512,1
9612,"female",21,"right","Hebrew",2,183,"triangle.bmp","Father","Matching","Father","Father","Father","Close","m",663,0.663,1
9612,"female",21,"right","Hebrew",2,184,"square.bmp","Father","Nonmatching","Father","Stranger","Stranger","Stranger","z",760,0.76,1
9612,"female",21,"right","Hebrew",2,185,"triangle.bmp","Stranger","Nonmatching","Stranger","Father","Father","Close","z",837,0.837,1
9612,"female",21,"right","Hebrew",2,186,"circle.bmp","Stranger","Nonmatching","Stranger","Self","Self","Self","z",823,0.823,1
9612,"female",21,"right","Hebrew",2,187,"triangle.bmp","Self","Nonmatching","Self","Father","Father","Close","z",714,0.714,1
9612,"female",21,"right","Hebrew",2,188,"triangle.bmp","Stranger","Nonmatching","Stranger","Father","Father","Close","z",1705,1.705,1
9612,"female",21,"right","Hebrew",2,189,"circle.bmp","Self","Matching","Self","Self","Self","Self","m",616,0.616,1
9612,"female",21,"right","Hebrew",2,190,"triangle.bmp","Father","Matching","Father","Father","Father","Close","m",899,0.899,1
9612,"female",21,"right","Hebrew",2,191,"circle.bmp","Self","Matching","Self","Self","Self","Self","m",666,0.666,1
9612,"female",21,"right","Hebrew",2,192,"triangle.bmp","Stranger","Nonmatching","Stranger","Father","Father","Close","z",1139,1.139,1
9612,"female",21,"right","Hebrew",2,193,"square.bmp","Father","Nonmatching","Father","Stranger","Stranger","Stranger","z",841,0.841,1
9612,"female",21,"right","Hebrew",2,194,"circle.bmp","Stranger","Nonmatching","Stranger","Self","Self","Self","z",787,0.787,1
9612,"female",21,"right","Hebrew",2,195,"circle.bmp","Self","Matching","Self","Self","Self","Self","m",647,0.647,1
9612,"female",21,"right","Hebrew",2,196,"circle.bmp","Self","Matching","Self","Self","Self","Self","m",512,0.512,1
9612,"female",21,"right","Hebrew",2,197,"triangle.bmp","Self","Nonmatching","Self","Father","Father","Close","z",727,0.727,1
9612,"female",21,"right","Hebrew",2,198,"triangle.bmp","Self","Nonmatching","Self","Father","Father","Close","z",918,0.918,1
9612,"female",21,"right","Hebrew",2,199,"square.bmp","Self","Nonmatching","Self","Stranger","Stranger","Stranger","z",677,0.677,1
9612,"female",21,"right","Hebrew",2,200,"square.bmp","Self","Nonmatching","Self","Stranger","Stranger","Stranger","z",709,0.709,1
9612,"female",21,"right","Hebrew",2,201,"circle.bmp","Self","Matching","Self","Self","Self","Self","m",652,0.652,1
9612,"female",21,"right","Hebrew",2,202,"square.bmp","Father","Nonmatching","Father","Stranger","Stranger","Stranger","z",821,0.821,1
9612,"female",21,"right","Hebrew",2,203,"circle.bmp","Stranger","Nonmatching","Stranger","Self","Self","Self","z",696,0.696,1
9612,"female",21,"right","Hebrew",2,204,"square.bmp","Stranger","Matching","Stranger","Stranger","Stranger","Stranger","m",1176,1.176,1
9612,"female",21,"right","Hebrew",2,205,"triangle.bmp","Stranger","Nonmatching","Stranger","Father","Father","Close","z",1012,1.012,1
9612,"female",21,"right","Hebrew",2,206,"triangle.bmp","Father","Matching","Father","Father","Father","Close","m",727,0.727,1
9612,"female",21,"right","Hebrew",2,207,"triangle.bmp","Stranger","Nonmatching","Stranger","Father","Father","Close","m",598,0.598,0
9612,"female",21,"right","Hebrew",2,208,"square.bmp","Stranger","Matching","Stranger","Stranger","Stranger","Stranger","m",898,0.898,1
9612,"female",21,"right","Hebrew",2,209,"square.bmp","Father","Nonmatching","Father","Stranger","Stranger","Stranger","z",977,0.977,1
9612,"female",21,"right","Hebrew",2,210,"square.bmp","Stranger","Matching","Stranger","Stranger","Stranger","Stranger","m",805,0.805,1
9612,"female",21,"right","Hebrew",2,211,"square.bmp","Father","Nonmatching","Father","Stranger","Stranger","Stranger","z",1241,1.241,1
9612,"female",21,"right","Hebrew",2,212,"circle.bmp","Self","Matching","Self","Self","Self","Self","m",579,0.579,1
9612,"female",21,"right","Hebrew",2,213,"triangle.bmp","Father","Matching","Father","Father","Father","Close","m",535,0.535,1
9612,"female",21,"right","Hebrew",2,214,"square.bmp","Stranger","Matching","Stranger","Stranger","Stranger","Stranger","m",805,0.805,1
9612,"female",21,"right","Hebrew",2,215,"circle.bmp","Self","Matching","Self","Self","Self","Self","m",672,0.672,1
9612,"female",21,"right","Hebrew",2,216,"triangle.bmp","Father","Matching","Father","Father","Father","Close","m",665,0.665,1
9612,"female",21,"right","Hebrew",2,217,"triangle.bmp","Father","Matching","Father","Father","Father","Close","m",666,0.666,1
9612,"female",21,"right","Hebrew",2,218,"triangle.bmp","Father","Matching","Father","Father","Father","Close","m",555,0.555,1
9612,"female",21,"right","Hebrew",2,219,"square.bmp","Father","Nonmatching","Father","Stranger","Stranger","Stranger","z",664,0.664,1
9612,"female",21,"right","Hebrew",2,220,"circle.bmp","Self","Matching","Self","Self","Self","Self","m",681,0.681,1
9612,"female",21,"right","Hebrew",2,221,"circle.bmp","Self","Matching","Self","Self","Self","Self","m",689,0.689,1
9612,"female",21,"right","Hebrew",2,222,"circle.bmp","Father","Nonmatching","Father","Self","Self","Self","z",969,0.969,1
9612,"female",21,"right","Hebrew",2,223,"square.bmp","Self","Nonmatching","Self","Stranger","Stranger","Stranger","z",1814,1.814,1
9612,"female",21,"right","Hebrew",2,224,"circle.bmp","Stranger","Nonmatching","Stranger","Self","Self","Self","z",1689,1.689,1
9612,"female",21,"right","Hebrew",2,225,"triangle.bmp","Stranger","Nonmatching","Stranger","Father","Father","Close","z",1097,1.097,1
9612,"female",21,"right","Hebrew",2,226,"triangle.bmp","Self","Nonmatching","Self","Father","Father","Close","z",1641,1.641,1
9612,"female",21,"right","Hebrew",2,227,"triangle.bmp","Self","Nonmatching","Self","Father","Father","Close","z",1538,1.538,1
9612,"female",21,"right","Hebrew",2,228,"square.bmp","Stranger","Matching","Stranger","Stranger","Stranger","Stranger","m",1800,1.8,1
9612,"female",21,"right","Hebrew",2,229,"square.bmp","Stranger","Matching","Stranger","Stranger","Stranger","Stranger","m",532,0.532,1
9612,"female",21,"right","Hebrew",2,230,"circle.bmp","Self","Matching","Self","Self","Self","Self","m",738,0.738,1
9612,"female",21,"right","Hebrew",2,231,"triangle.bmp","Father","Matching","Father","Father","Father","Close","m",440,0.44,1
9612,"female",21,"right","Hebrew",2,232,"triangle.bmp","Self","Nonmatching","Self","Father","Father","Close","z",626,0.626,1
9612,"female",21,"right","Hebrew",2,233,"square.bmp","Self","Nonmatching","Self","Stranger","Stranger","Stranger","z",820,0.82,1
9612,"female",21,"right","Hebrew",2,234,"square.bmp","Stranger","Matching","Stranger","Stranger","Stranger","Stranger","m",1095,1.095,1
9612,"female",21,"right","Hebrew",2,235,"square.bmp","Self","Nonmatching","Self","Stranger","Stranger","Stranger","z",903,0.903,1
9612,"female",21,"right","Hebrew",2,236,"triangle.bmp","Father","Matching","Father","Father","Father","Close","m",550,0.55,1
9612,"female",21,"right","Hebrew",2,237,"circle.bmp","Father","Nonmatching","Father","Self","Self","Self","z",708,0.708,1
9612,"female",21,"right","Hebrew",2,238,"square.bmp","Stranger","Matching","Stranger","Stranger","Stranger","Stranger","m",995,0.995,1
9612,"female",21,"right","Hebrew",2,239,"triangle.bmp","Self","Nonmatching","Self","Father","Father","Close","z",1262,1.262,1
9612,"female",21,"right","Hebrew",2,240,"circle.bmp","Stranger","Nonmatching","Stranger","Self","Self","Self","z",951,0.951,1
9612,"female",21,"right","Hebrew",3,241,"square.bmp","Stranger","Matching","Stranger","Stranger","Stranger","Stranger","m",1156,1.156,1
9612,"female",21,"right","Hebrew",3,242,"circle.bmp","Self","Matching","Self","Self","Self","Self","m",665,0.665,1
9612,"female",21,"right","Hebrew",3,243,"circle.bmp","Father","Nonmatching","Father","Self","Self","Self","z",898,0.898,1
9612,"female",21,"right","Hebrew",3,244,"triangle.bmp","Father","Matching","Father","Father","Father","Close","m",608,0.608,1
9612,"female",21,"right","Hebrew",3,245,"triangle.bmp","Father","Matching","Father","Father","Father","Close","m",1492,1.492,1
9612,"female",21,"right","Hebrew",3,246,"square.bmp","Father","Nonmatching","Father","Stranger","Stranger","Stranger","z",739,0.739,1
9612,"female",21,"right","Hebrew",3,247,"circle.bmp","Self","Matching","Self","Self","Self","Self","m",665,0.665,1
9612,"female",21,"right","Hebrew",3,248,"square.bmp","Father","Nonmatching","Father","Stranger","Stranger","Stranger","z",978,0.978,1
9612,"female",21,"right","Hebrew",3,249,"square.bmp","Father","Nonmatching","Father","Stranger","Stranger","Stranger","z",759,0.759,1
9612,"female",21,"right","Hebrew",3,250,"square.bmp","Self","Nonmatching","Self","Stranger","Stranger","Stranger","z",683,0.683,1
9612,"female",21,"right","Hebrew",3,251,"circle.bmp","Stranger","Nonmatching","Stranger","Self","Self","Self","z",931,0.931,1
9612,"female",21,"right","Hebrew",3,252,"triangle.bmp","Father","Matching","Father","Father","Father","Close","m",818,0.818,1
9612,"female",21,"right","Hebrew",3,253,"square.bmp","Stranger","Matching","Stranger","Stranger","Stranger","Stranger","m",1220,1.22,1
9612,"female",21,"right","Hebrew",3,254,"triangle.bmp","Stranger","Nonmatching","Stranger","Father","Father","Close","z",935,0.935,1
9612,"female",21,"right","Hebrew",3,255,"circle.bmp","Self","Matching","Self","Self","Self","Self","m",1141,1.141,1
9612,"female",21,"right","Hebrew",3,256,"square.bmp","Self","Nonmatching","Self","Stranger","Stranger","Stranger","z",771,0.771,1
9612,"female",21,"right","Hebrew",3,257,"circle.bmp","Self","Matching","Self","Self","Self","Self","m",632,0.632,1
9612,"female",21,"right","Hebrew",3,258,"circle.bmp","Self","Matching","Self","Self","Self","Self","m",658,0.658,1
9612,"female",21,"right","Hebrew",3,259,"triangle.bmp","Father","Matching","Father","Father","Father","Close","m",707,0.707,1
9612,"female",21,"right","Hebrew",3,260,"square.bmp","Stranger","Matching","Stranger","Stranger","Stranger","Stranger","m",626,0.626,1
9612,"female",21,"right","Hebrew",3,261,"triangle.bmp","Father","Matching","Father","Father","Father","Close","m",956,0.956,1
9612,"female",21,"right","Hebrew",3,262,"square.bmp","Self","Nonmatching","Self","Stranger","Stranger","Stranger","z",721,0.721,1
9612,"female",21,"right","Hebrew",3,263,"circle.bmp","Self","Matching","Self","Self","Self","Self","m",696,0.696,1
9612,"female",21,"right","Hebrew",3,264,"triangle.bmp","Stranger","Nonmatching","Stranger","Father","Father","Close","z",1992,1.992,1
9612,"female",21,"right","Hebrew",3,265,"square.bmp","Stranger","Matching","Stranger","Stranger","Stranger","Stranger","m",900,0.9,1
9612,"female",21,"right","Hebrew",3,266,"circle.bmp","Father","Nonmatching","Father","Self","Self","Self","z",995,0.995,1
9612,"female",21,"right","Hebrew",3,267,"square.bmp","Father","Nonmatching","Father","Stranger","Stranger","Stranger","z",1271,1.271,1
9612,"female",21,"right","Hebrew",3,268,"triangle.bmp","Father","Matching","Father","Father","Father","Close","m",735,0.735,1
9612,"female",21,"right","Hebrew",3,269,"square.bmp","Father","Nonmatching","Father","Stranger","Stranger","Stranger","z",677,0.677,1
9612,"female",21,"right","Hebrew",3,270,"circle.bmp","Father","Nonmatching","Father","Self","Self","Self","z",1884,1.884,1
9612,"female",21,"right","Hebrew",3,271,"triangle.bmp","Stranger","Nonmatching","Stranger","Father","Father","Close","m",612,0.612,0
9612,"female",21,"right","Hebrew",3,272,"circle.bmp","Father","Nonmatching","Father","Self","Self","Self","z",711,0.711,1
9612,"female",21,"right","Hebrew",3,273,"circle.bmp","Father","Nonmatching","Father","Self","Self","Self","z",854,0.854,1
9612,"female",21,"right","Hebrew",3,274,"square.bmp","Stranger","Matching","Stranger","Stranger","Stranger","Stranger","m",943,0.943,1
9612,"female",21,"right","Hebrew",3,275,"triangle.bmp","Self","Nonmatching","Self","Father","Father","Close","z",773,0.773,1
9612,"female",21,"right","Hebrew",3,276,"circle.bmp","Self","Matching","Self","Self","Self","Self","m",1250,1.25,1
9612,"female",21,"right","Hebrew",3,277,"square.bmp","Stranger","Matching","Stranger","Stranger","Stranger","Stranger","m",819,0.819,1
9612,"female",21,"right","Hebrew",3,278,"square.bmp","Stranger","Matching","Stranger","Stranger","Stranger","Stranger","m",950,0.95,1
9612,"female",21,"right","Hebrew",3,279,"triangle.bmp","Stranger","Nonmatching","Stranger","Father","Father","Close","z",819,0.819,1
9612,"female",21,"right","Hebrew",3,280,"circle.bmp","Self","Matching","Self","Self","Self","Self","m",758,0.758,1
9612,"female",21,"right","Hebrew",3,281,"triangle.bmp","Father","Matching","Father","Father","Father","Close","m",1219,1.219,1
9612,"female",21,"right","Hebrew",3,282,"square.bmp","Self","Nonmatching","Self","Stranger","Stranger","Stranger","z",998,0.998,1
9612,"female",21,"right","Hebrew",3,283,"square.bmp","Self","Nonmatching","Self","Stranger","Stranger","Stranger","z",945,0.945,1
9612,"female",21,"right","Hebrew",3,284,"triangle.bmp","Self","Nonmatching","Self","Father","Father","Close","z",887,0.887,1
9612,"female",21,"right","Hebrew",3,285,"circle.bmp","Father","Nonmatching","Father","Self","Self","Self","z",711,0.711,1
9612,"female",21,"right","Hebrew",3,286,"square.bmp","Stranger","Matching","Stranger","Stranger","Stranger","Stranger","m",822,0.822,1
9612,"female",21,"right","Hebrew",3,287,"square.bmp","Stranger","Matching","Stranger","Stranger","Stranger","Stranger","m",713,0.713,1
9612,"female",21,"right","Hebrew",3,288,"square.bmp","Stranger","Matching","Stranger","Stranger","Stranger","Stranger","m",616,0.616,1
9612,"female",21,"right","Hebrew",3,289,"square.bmp","Stranger","Matching","Stranger","Stranger","Stranger","Stranger","m",611,0.611,1
9612,"female",21,"right","Hebrew",3,290,"triangle.bmp","Self","Nonmatching","Self","Father","Father","Close","z",1206,1.206,1
9612,"female",21,"right","Hebrew",3,291,"circle.bmp","Self","Matching","Self","Self","Self","Self","m",761,0.761,1
9612,"female",21,"right","Hebrew",3,292,"square.bmp","Self","Nonmatching","Self","Stranger","Stranger","Stranger","z",615,0.615,1
9612,"female",21,"right","Hebrew",3,293,"circle.bmp","Self","Matching","Self","Self","Self","Self","m",618,0.618,1
9612,"female",21,"right","Hebrew",3,294,"square.bmp","Stranger","Matching","Stranger","Stranger","Stranger","Stranger","m",908,0.908,1
9612,"female",21,"right","Hebrew",3,295,"triangle.bmp","Self","Nonmatching","Self","Father","Father","Close","z",899,0.899,1
9612,"female",21,"right","Hebrew",3,296,"square.bmp","Self","Nonmatching","Self","Stranger","Stranger","Stranger","z",835,0.835,1
9612,"female",21,"right","Hebrew",3,297,"circle.bmp","Father","Nonmatching","Father","Self","Self","Self","z",900,0.9,1
9612,"female",21,"right","Hebrew",3,298,"square.bmp","Stranger","Matching","Stranger","Stranger","Stranger","Stranger","m",883,0.883,1
9612,"female",21,"right","Hebrew",3,299,"triangle.bmp","Father","Matching","Father","Father","Father","Close","m",787,0.787,1
9612,"female",21,"right","Hebrew",3,300,"circle.bmp","Stranger","Nonmatching","Stranger","Self","Self","Self","z",775,0.775,1
9612,"female",21,"right","Hebrew",3,301,"circle.bmp","Stranger","Nonmatching","Stranger","Self","Self","Self","z",900,0.9,1
9612,"female",21,"right","Hebrew",3,302,"square.bmp","Self","Nonmatching","Self","Stranger","Stranger","Stranger","z",595,0.595,1
9612,"female",21,"right","Hebrew",3,303,"triangle.bmp","Father","Matching","Father","Father","Father","Close","m",631,0.631,1
9612,"female",21,"right","Hebrew",3,304,"circle.bmp","Self","Matching","Self","Self","Self","Self","m",753,0.753,1
9612,"female",21,"right","Hebrew",3,305,"square.bmp","Father","Nonmatching","Father","Stranger","Stranger","Stranger","z",759,0.759,1
9612,"female",21,"right","Hebrew",3,306,"triangle.bmp","Father","Matching","Father","Father","Father","Close","m",900,0.9,1
9612,"female",21,"right","Hebrew",3,307,"triangle.bmp","Stranger","Nonmatching","Stranger","Father","Father","Close","z",1123,1.123,1
9612,"female",21,"right","Hebrew",3,308,"triangle.bmp","Self","Nonmatching","Self","Father","Father","Close","z",834,0.834,1
9612,"female",21,"right","Hebrew",3,309,"square.bmp","Stranger","Matching","Stranger","Stranger","Stranger","Stranger","m",1204,1.204,1
9612,"female",21,"right","Hebrew",3,310,"triangle.bmp","Self","Nonmatching","Self","Father","Father","Close","z",1623,1.623,1
9612,"female",21,"right","Hebrew",3,311,"circle.bmp","Stranger","Nonmatching","Stranger","Self","Self","Self","z",1354,1.354,1
9612,"female",21,"right","Hebrew",3,312,"square.bmp","Father","Nonmatching","Father","Stranger","Stranger","Stranger","z",1127,1.127,1
9612,"female",21,"right","Hebrew",3,313,"square.bmp","Stranger","Matching","Stranger","Stranger","Stranger","Stranger","m",758,0.758,1
9612,"female",21,"right","Hebrew",3,314,"triangle.bmp","Father","Matching","Father","Father","Father","Close","m",931,0.931,1
9612,"female",21,"right","Hebrew",3,315,"triangle.bmp","Stranger","Nonmatching","Stranger","Father","Father","Close","z",1753,1.753,1
9612,"female",21,"right","Hebrew",3,316,"circle.bmp","Stranger","Nonmatching","Stranger","Self","Self","Self","z",734,0.734,1
9612,"female",21,"right","Hebrew",3,317,"circle.bmp","Self","Matching","Self","Self","Self","Self","m",532,0.532,1
9612,"female",21,"right","Hebrew",3,318,"triangle.bmp","Father","Matching","Father","Father","Father","Close","m",1042,1.042,1
9612,"female",21,"right","Hebrew",3,319,"triangle.bmp","Father","Matching","Father","Father","Father","Close","m",548,0.548,1
9612,"female",21,"right","Hebrew",3,320,"triangle.bmp","Father","Matching","Father","Father","Father","Close","m",602,0.602,1
9612,"female",21,"right","Hebrew",3,321,"circle.bmp","Self","Matching","Self","Self","Self","Self","m",966,0.966,1
9612,"female",21,"right","Hebrew",3,322,"circle.bmp","Father","Nonmatching","Father","Self","Self","Self","z",866,0.866,1
9612,"female",21,"right","Hebrew",3,323,"circle.bmp","Father","Nonmatching","Father","Self","Self","Self","z",787,0.787,1
9612,"female",21,"right","Hebrew",3,324,"circle.bmp","Self","Matching","Self","Self","Self","Self","m",662,0.662,1
9612,"female",21,"right","Hebrew",3,325,"square.bmp","Father","Nonmatching","Father","Stranger","Stranger","Stranger","z",1063,1.063,1
9612,"female",21,"right","Hebrew",3,326,"circle.bmp","Stranger","Nonmatching","Stranger","Self","Self","Self","z",1192,1.192,1
9612,"female",21,"right","Hebrew",3,327,"circle.bmp","Stranger","Nonmatching","Stranger","Self","Self","Self","z",740,0.74,1
9612,"female",21,"right","Hebrew",3,328,"square.bmp","Self","Nonmatching","Self","Stranger","Stranger","Stranger","z",962,0.962,1
9612,"female",21,"right","Hebrew",3,329,"circle.bmp","Self","Matching","Self","Self","Self","Self","m",839,0.839,1
9612,"female",21,"right","Hebrew",3,330,"triangle.bmp","Father","Matching","Father","Father","Father","Close","m",713,0.713,1
9612,"female",21,"right","Hebrew",3,331,"triangle.bmp","Father","Matching","Father","Father","Father","Close","m",616,0.616,1
9612,"female",21,"right","Hebrew",3,332,"circle.bmp","Stranger","Nonmatching","Stranger","Self","Self","Self","z",979,0.979,1
9612,"female",21,"right","Hebrew",3,333,"circle.bmp","Stranger","Nonmatching","Stranger","Self","Self","Self","z",615,0.615,1
9612,"female",21,"right","Hebrew",3,334,"triangle.bmp","Stranger","Nonmatching","Stranger","Father","Father","Close","z",754,0.754,1
9612,"female",21,"right","Hebrew",3,335,"triangle.bmp","Father","Matching","Father","Father","Father","Close","m",744,0.744,1
9612,"female",21,"right","Hebrew",3,336,"triangle.bmp","Self","Nonmatching","Self","Father","Father","Close","z",845,0.845,1
9612,"female",21,"right","Hebrew",3,337,"circle.bmp","Father","Nonmatching","Father","Self","Self","Self","z",823,0.823,1
9612,"female",21,"right","Hebrew",3,338,"triangle.bmp","Self","Nonmatching","Self","Father","Father","Close","z",762,0.762,1
9612,"female",21,"right","Hebrew",3,339,"square.bmp","Father","Nonmatching","Father","Stranger","Stranger","Stranger","z",1319,1.319,1
9612,"female",21,"right","Hebrew",3,340,"triangle.bmp","Stranger","Nonmatching","Stranger","Father","Father","Close","m",717,0.717,0
9612,"female",21,"right","Hebrew",3,341,"circle.bmp","Self","Matching","Self","Self","Self","Self","m",756,0.756,1
9612,"female",21,"right","Hebrew",3,342,"square.bmp","Stranger","Matching","Stranger","Stranger","Stranger","Stranger","m",1001,1.001,1
9612,"female",21,"right","Hebrew",3,343,"square.bmp","Stranger","Matching","Stranger","Stranger","Stranger","Stranger","m",1028,1.028,1
9612,"female",21,"right","Hebrew",3,344,"triangle.bmp","Father","Matching","Father","Father","Father","Close","m",839,0.839,1
9612,"female",21,"right","Hebrew",3,345,"circle.bmp","Self","Matching","Self","Self","Self","Self","m",440,0.44,1
9612,"female",21,"right","Hebrew",3,346,"triangle.bmp","Father","Matching","Father","Father","Father","Close","m",811,0.811,1
9612,"female",21,"right","Hebrew",3,347,"circle.bmp","Self","Matching","Self","Self","Self","Self","m",710,0.71,1
9612,"female",21,"right","Hebrew",3,348,"square.bmp","Self","Nonmatching","Self","Stranger","Stranger","Stranger","z",773,0.773,1
9612,"female",21,"right","Hebrew",3,349,"circle.bmp","Self","Matching","Self","Self","Self","Self","m",961,0.961,1
9612,"female",21,"right","Hebrew",3,350,"circle.bmp","Self","Matching","Self","Self","Self","Self","m",766,0.766,1
9612,"female",21,"right","Hebrew",3,351,"square.bmp","Father","Nonmatching","Father","Stranger","Stranger","Stranger","z",626,0.626,1
9612,"female",21,"right","Hebrew",3,352,"square.bmp","Stranger","Matching","Stranger","Stranger","Stranger","Stranger","m",868,0.868,1
9612,"female",21,"right","Hebrew",3,353,"triangle.bmp","Stranger","Nonmatching","Stranger","Father","Father","Close","m",677,0.677,0
9612,"female",21,"right","Hebrew",3,354,"circle.bmp","Stranger","Nonmatching","Stranger","Self","Self","Self","z",773,0.773,1
9612,"female",21,"right","Hebrew",3,355,"triangle.bmp","Stranger","Nonmatching","Stranger","Father","Father","Close","z",642,0.642,1
9612,"female",21,"right","Hebrew",3,356,"triangle.bmp","Father","Matching","Father","Father","Father","Close","m",547,0.547,1
9612,"female",21,"right","Hebrew",3,357,"square.bmp","Stranger","Matching","Stranger","Stranger","Stranger","Stranger","m",793,0.793,1
9612,"female",21,"right","Hebrew",3,358,"square.bmp","Stranger","Matching","Stranger","Stranger","Stranger","Stranger","m",661,0.661,1
9612,"female",21,"right","Hebrew",3,359,"triangle.bmp","Self","Nonmatching","Self","Father","Father","Close","z",1126,1.126,1
9612,"female",21,"right","Hebrew",3,360,"triangle.bmp","Self","Nonmatching","Self","Father","Father","Close","z",916,0.916,1
9702,"male",34,"right","Hebrew",1,1,"circle.bmp","Self","Matching","Self","Self","Self","Self","z",1700,1.7,1
9702,"male",34,"right","Hebrew",1,2,"circle.bmp","Self","Matching","Self","Self","Self","Self","z",1577,1.577,1
9702,"male",34,"right","Hebrew",1,3,"circle.bmp","Self","Matching","Self","Self","Self","Self","z",1018,1.018,1
9702,"male",34,"right","Hebrew",1,4,"triangle.bmp","Father","Matching","Father","Father","Father","Close","m",955,0.955,0
9702,"male",34,"right","Hebrew",1,5,"square.bmp","Self","Nonmatching","Self","Stranger","Stranger","Stranger","m",1375,1.375,1
9702,"male",34,"right","Hebrew",1,6,"square.bmp","Father","Nonmatching","Father","Stranger","Stranger","Stranger","m",1306,1.306,1
9702,"male",34,"right","Hebrew",1,7,"circle.bmp","Father","Nonmatching","Father","Self","Self","Self","m",1087,1.087,1
9702,"male",34,"right","Hebrew",1,8,"triangle.bmp","Stranger","Nonmatching","Stranger","Father","Father","Close","m",1797,1.797,1
9702,"male",34,"right","Hebrew",1,9,"circle.bmp","Self","Matching","Self","Self","Self","Self","z",806,0.806,1
9702,"male",34,"right","Hebrew",1,10,"circle.bmp","Stranger","Nonmatching","Stranger","Self","Self","Self","m",952,0.952,1
9702,"male",34,"right","Hebrew",1,11,"triangle.bmp","Father","Matching","Father","Father","Father","Close","z",1083,1.083,1
9702,"male",34,"right","Hebrew",1,12,"circle.bmp","Father","Nonmatching","Father","Self","Self","Self","m",746,0.746,1
9702,"male",34,"right","Hebrew",1,13,"square.bmp","Father","Nonmatching","Father","Stranger","Stranger","Stranger","m",1703,1.703,1
9702,"male",34,"right","Hebrew",1,14,"circle.bmp","Stranger","Nonmatching","Stranger","Self","Self","Self","m",967,0.967,1
9702,"male",34,"right","Hebrew",1,15,"circle.bmp","Stranger","Nonmatching","Stranger","Self","Self","Self","m",924,0.924,1
9702,"male",34,"right","Hebrew",1,16,"circle.bmp","Stranger","Nonmatching","Stranger","Self","Self","Self","m",626,0.626,1
9702,"male",34,"right","Hebrew",1,17,"circle.bmp","Self","Matching","Self","Self","Self","Self","z",805,0.805,1
9702,"male",34,"right","Hebrew",1,18,"triangle.bmp","Father","Matching","Father","Father","Father","Close","z",1128,1.128,1
9702,"male",34,"right","Hebrew",1,19,"square.bmp","Stranger","Matching","Stranger","Stranger","Stranger","Stranger","z",1335,1.335,1
9702,"male",34,"right","Hebrew",1,20,"square.bmp","Self","Nonmatching","Self","Stranger","Stranger","Stranger","m",853,0.853,1
9702,"male",34,"right","Hebrew",1,21,"triangle.bmp","Father","Matching","Father","Father","Father","Close","z",917,0.917,1
9702,"male",34,"right","Hebrew",1,22,"square.bmp","Stranger","Matching","Stranger","Stranger","Stranger","Stranger","z",1444,1.444,1
9702,"male",34,"right","Hebrew",1,23,"triangle.bmp","Father","Matching","Father","Father","Father","Close","z",1238,1.238,1
9702,"male",34,"right","Hebrew",1,24,"square.bmp","Father","Nonmatching","Father","Stranger","Stranger","Stranger","m",696,0.696,1
9702,"male",34,"right","Hebrew",1,25,"triangle.bmp","Stranger","Nonmatching","Stranger","Father","Father","Close","m",983,0.983,1
9702,"male",34,"right","Hebrew",1,26,"triangle.bmp","Self","Nonmatching","Self","Father","Father","Close","m",764,0.764,1
9702,"male",34,"right","Hebrew",1,27,"circle.bmp","Self","Matching","Self","Self","Self","Self","z",697,0.697,1
9702,"male",34,"right","Hebrew",1,28,"square.bmp","Self","Nonmatching","Self","Stranger","Stranger","Stranger","m",697,0.697,1
9702,"male",34,"right","Hebrew",1,29,"square.bmp","Self","Nonmatching","Self","Stranger","Stranger","Stranger","m",713,0.713,1
9702,"male",34,"right","Hebrew",1,30,"triangle.bmp","Father","Matching","Father","Father","Father","Close","z",808,0.808,1
9702,"male",34,"right","Hebrew",1,31,"square.bmp","Father","Nonmatching","Father","Stranger","Stranger","Stranger","m",667,0.667,1
9702,"male",34,"right","Hebrew",1,32,"square.bmp","Self","Nonmatching","Self","Stranger","Stranger","Stranger","m",828,0.828,1
9702,"male",34,"right","Hebrew",1,33,"triangle.bmp","Father","Matching","Father","Father","Father","Close","z",839,0.839,1
9702,"male",34,"right","Hebrew",1,34,"circle.bmp","Self","Matching","Self","Self","Self","Self","z",696,0.696,1
9702,"male",34,"right","Hebrew",1,35,"square.bmp","Self","Nonmatching","Self","Stranger","Stranger","Stranger","m",824,0.824,1
9702,"male",34,"right","Hebrew",1,36,"circle.bmp","Self","Matching","Self","Self","Self","Self","z",1419,1.419,1
9702,"male",34,"right","Hebrew",1,37,"triangle.bmp","Father","Matching","Father","Father","Father","Close","z",837,0.837,1
9702,"male",34,"right","Hebrew",1,38,"square.bmp","Stranger","Matching","Stranger","Stranger","Stranger","Stranger","z",1223,1.223,1
9702,"male",34,"right","Hebrew",1,39,"square.bmp","Stranger","Matching","Stranger","Stranger","Stranger","Stranger","z",1706,1.706,1
9702,"male",34,"right","Hebrew",1,40,"triangle.bmp","Stranger","Nonmatching","Stranger","Father","Father","Close","m",810,0.81,1
9702,"male",34,"right","Hebrew",1,41,"triangle.bmp","Stranger","Nonmatching","Stranger","Father","Father","Close","m",885,0.885,1
9702,"male",34,"right","Hebrew",1,42,"square.bmp","Father","Nonmatching","Father","Stranger","Stranger","Stranger","m",1093,1.093,1
9702,"male",34,"right","Hebrew",1,43,"triangle.bmp","Stranger","Nonmatching","Stranger","Father","Father","Close","m",949,0.949,1
9702,"male",34,"right","Hebrew",1,44,"square.bmp","Father","Nonmatching","Father","Stranger","Stranger","Stranger","m",730,0.73,1
9702,"male",34,"right","Hebrew",1,45,"triangle.bmp","Stranger","Nonmatching","Stranger","Father","Father","Close","m",1001,1.001,1
9702,"male",34,"right","Hebrew",1,46,"triangle.bmp","Self","Nonmatching","Self","Father","Father","Close","m",845,0.845,1
9702,"male",34,"right","Hebrew",1,47,"square.bmp","Stranger","Matching","Stranger","Stranger","Stranger","Stranger","z",981,0.981,1
9702,"male",34,"right","Hebrew",1,48,"circle.bmp","Father","Nonmatching","Father","Self","Self","Self","m",1002,1.002,1
9702,"male",34,"right","Hebrew",1,49,"circle.bmp","Self","Matching","Self","Self","Self","Self","z",821,0.821,1
9702,"male",34,"right","Hebrew",1,50,"square.bmp","Stranger","Matching","Stranger","Stranger","Stranger","Stranger","z",1000,1,1
9702,"male",34,"right","Hebrew",1,51,"square.bmp","Stranger","Matching","Stranger","Stranger","Stranger","Stranger","z",771,0.771,1
9702,"male",34,"right","Hebrew",1,52,"circle.bmp","Self","Matching","Self","Self","Self","Self","z",808,0.808,1
9702,"male",34,"right","Hebrew",1,53,"square.bmp","Stranger","Matching","Stranger","Stranger","Stranger","Stranger","z",1260,1.26,1
9702,"male",34,"right","Hebrew",1,54,"circle.bmp","Stranger","Nonmatching","Stranger","Self","Self","Self","m",773,0.773,1
9702,"male",34,"right","Hebrew",1,55,"triangle.bmp","Father","Matching","Father","Father","Father","Close","z",825,0.825,1
9702,"male",34,"right","Hebrew",1,56,"circle.bmp","Father","Nonmatching","Father","Self","Self","Self","m",644,0.644,1
9702,"male",34,"right","Hebrew",1,57,"triangle.bmp","Self","Nonmatching","Self","Father","Father","Close","m",934,0.934,1
9702,"male",34,"right","Hebrew",1,58,"circle.bmp","Father","Nonmatching","Father","Self","Self","Self","m",740,0.74,1
9702,"male",34,"right","Hebrew",1,59,"triangle.bmp","Stranger","Nonmatching","Stranger","Father","Father","Close","m",1010,1.01,1
9702,"male",34,"right","Hebrew",1,60,"triangle.bmp","Self","Nonmatching","Self","Father","Father","Close","m",908,0.908,1
9702,"male",34,"right","Hebrew",1,61,"triangle.bmp","Father","Matching","Father","Father","Father","Close","z",803,0.803,1
9702,"male",34,"right","Hebrew",1,62,"square.bmp","Stranger","Matching","Stranger","Stranger","Stranger","Stranger","z",855,0.855,1
9702,"male",34,"right","Hebrew",1,63,"square.bmp","Father","Nonmatching","Father","Stranger","Stranger","Stranger","m",784,0.784,1
9702,"male",34,"right","Hebrew",1,64,"circle.bmp","Self","Matching","Self","Self","Self","Self","z",660,0.66,1
9702,"male",34,"right","Hebrew",1,65,"circle.bmp","Self","Matching","Self","Self","Self","Self","z",1125,1.125,1
9702,"male",34,"right","Hebrew",1,66,"circle.bmp","Self","Matching","Self","Self","Self","Self","z",1164,1.164,1
9702,"male",34,"right","Hebrew",1,67,"square.bmp","Self","Nonmatching","Self","Stranger","Stranger","Stranger","m",905,0.905,1
9702,"male",34,"right","Hebrew",1,68,"circle.bmp","Self","Matching","Self","Self","Self","Self","z",680,0.68,1
