"","Subject","Gender","Age","Handedness","First_Lanugage","Block","Trial","Shape","Label","Matching","Label_Identity","Origin_Identity","English_Identity","Standarlized_Identity","Response","RT_ms","RT_sec","ACC"
"1",9605,"female",25,"right","Hebrew",1,1,"circle.bmp","Father","Nonmatching","Father","Self","Self","Self","m",3237,3.237,1
"2",9605,"female",25,"right","Hebrew",1,2,"circle.bmp","Self","Matching","Self","Self","Self","Self","z",839,0.839,1
"3",9605,"female",25,"right","Hebrew",1,3,"square.bmp","Stranger","Nonmatching","Stranger","Father","Father","Close","m",2320,2.32,1
"4",9605,"female",25,"right","Hebrew",1,4,"square.bmp","Stranger","Nonmatching","Stranger","Father","Father","Close","m",2287,2.287,1
"5",9605,"female",25,"right","Hebrew",1,5,"circle.bmp","Father","Nonmatching","Father","Self","Self","Self","m",1534,1.534,1
"6",9605,"female",25,"right","Hebrew",1,6,"square.bmp","Stranger","Nonmatching","Stranger","Father","Father","Close","m",2260,2.26,1
"7",9605,"female",25,"right","Hebrew",1,7,"triangle.bmp","Self","Nonmatching","Self","Stranger","Stranger","Stranger","m",789,0.789,1
"8",9605,"female",25,"right","Hebrew",1,8,"triangle.bmp","Stranger","Matching","Stranger","Stranger","Stranger","Stranger","z",2728,2.728,1
"9",9605,"female",25,"right","Hebrew",1,9,"square.bmp","Father","Matching","Father","Father","Father","Close","z",1318,1.318,1
"10",9605,"female",25,"right","Hebrew",1,10,"square.bmp","Self","Nonmatching","Self","Father","Father","Close","m",997,0.997,1
"11",9605,"female",25,"right","Hebrew",1,11,"square.bmp","Father","Matching","Father","Father","Father","Close","z",1113,1.113,1
"12",9605,"female",25,"right","Hebrew",1,12,"square.bmp","Father","Matching","Father","Father","Father","Close","z",1272,1.272,1
"13",9605,"female",25,"right","Hebrew",1,13,"square.bmp","Stranger","Nonmatching","Stranger","Father","Father","Close","m",1417,1.417,1
"14",9605,"female",25,"right","Hebrew",1,14,"triangle.bmp","Stranger","Matching","Stranger","Stranger","Stranger","Stranger","z",1283,1.283,1
"15",9605,"female",25,"right","Hebrew",1,15,"square.bmp","Stranger","Nonmatching","Stranger","Father","Father","Close","m",899,0.899,1
"16",9605,"female",25,"right","Hebrew",1,16,"triangle.bmp","Self","Nonmatching","Self","Stranger","Stranger","Stranger","m",1155,1.155,1
"17",9605,"female",25,"right","Hebrew",1,17,"triangle.bmp","Self","Nonmatching","Self","Stranger","Stranger","Stranger","m",1256,1.256,1
"18",9605,"female",25,"right","Hebrew",1,18,"square.bmp","Stranger","Nonmatching","Stranger","Father","Father","Close","m",1322,1.322,1
"19",9605,"female",25,"right","Hebrew",1,19,"triangle.bmp","Father","Nonmatching","Father","Stranger","Stranger","Stranger","m",1048,1.048,1
"20",9605,"female",25,"right","Hebrew",1,20,"square.bmp","Father","Matching","Father","Father","Father","Close","z",1170,1.17,1
"21",9605,"female",25,"right","Hebrew",1,21,"circle.bmp","Stranger","Nonmatching","Stranger","Self","Self","Self","m",1687,1.687,1
"22",9605,"female",25,"right","Hebrew",1,22,"circle.bmp","Stranger","Nonmatching","Stranger","Self","Self","Self","m",974,0.974,1
"23",9605,"female",25,"right","Hebrew",1,23,"circle.bmp","Self","Matching","Self","Self","Self","Self","z",1667,1.667,1
"24",9605,"female",25,"right","Hebrew",1,24,"square.bmp","Father","Matching","Father","Father","Father","Close","z",947,0.947,1
"25",9605,"female",25,"right","Hebrew",1,25,"circle.bmp","Stranger","Nonmatching","Stranger","Self","Self","Self","m",1065,1.065,1
"26",9605,"female",25,"right","Hebrew",1,26,"circle.bmp","Self","Matching","Self","Self","Self","Self","z",1018,1.018,1
"27",9605,"female",25,"right","Hebrew",1,27,"circle.bmp","Self","Matching","Self","Self","Self","Self","z",1109,1.109,1
"28",9605,"female",25,"right","Hebrew",1,28,"square.bmp","Stranger","Nonmatching","Stranger","Father","Father","Close","m",900,0.9,1
"29",9605,"female",25,"right","Hebrew",1,29,"triangle.bmp","Self","Nonmatching","Self","Stranger","Stranger","Stranger","m",1219,1.219,1
"30",9605,"female",25,"right","Hebrew",1,30,"square.bmp","Self","Nonmatching","Self","Father","Father","Close","m",966,0.966,1
"31",9605,"female",25,"right","Hebrew",1,31,"triangle.bmp","Stranger","Matching","Stranger","Stranger","Stranger","Stranger","z",1210,1.21,1
"32",9605,"female",25,"right","Hebrew",1,32,"circle.bmp","Self","Matching","Self","Self","Self","Self","z",869,0.869,1
"33",9605,"female",25,"right","Hebrew",1,33,"circle.bmp","Self","Matching","Self","Self","Self","Self","m",806,0.806,0
"34",9605,"female",25,"right","Hebrew",1,34,"circle.bmp","Stranger","Nonmatching","Stranger","Self","Self","Self","m",1089,1.089,1
"35",9605,"female",25,"right","Hebrew",1,35,"square.bmp","Father","Matching","Father","Father","Father","Close","z",1338,1.338,1
"36",9605,"female",25,"right","Hebrew",1,36,"circle.bmp","Self","Matching","Self","Self","Self","Self","z",1128,1.128,1
"37",9605,"female",25,"right","Hebrew",1,37,"square.bmp","Father","Matching","Father","Father","Father","Close","z",1990,1.99,1
"38",9605,"female",25,"right","Hebrew",1,38,"triangle.bmp","Father","Nonmatching","Father","Stranger","Stranger","Stranger","m",1506,1.506,1
"39",9605,"female",25,"right","Hebrew",1,39,"triangle.bmp","Self","Nonmatching","Self","Stranger","Stranger","Stranger","m",1289,1.289,1
"40",9605,"female",25,"right","Hebrew",1,40,"circle.bmp","Stranger","Nonmatching","Stranger","Self","Self","Self","m",1497,1.497,1
"41",9605,"female",25,"right","Hebrew",1,41,"square.bmp","Self","Nonmatching","Self","Father","Father","Close","m",969,0.969,1
"42",9605,"female",25,"right","Hebrew",1,42,"square.bmp","Father","Matching","Father","Father","Father","Close","z",821,0.821,1
"43",9605,"female",25,"right","Hebrew",1,43,"triangle.bmp","Self","Nonmatching","Self","Stranger","Stranger","Stranger","m",1080,1.08,1
"44",9605,"female",25,"right","Hebrew",1,44,"circle.bmp","Self","Matching","Self","Self","Self","Self","z",585,0.585,1
"45",9605,"female",25,"right","Hebrew",1,45,"square.bmp","Self","Nonmatching","Self","Father","Father","Close","m",965,0.965,1
"46",9605,"female",25,"right","Hebrew",1,46,"circle.bmp","Self","Matching","Self","Self","Self","Self","z",1066,1.066,1
"47",9605,"female",25,"right","Hebrew",1,47,"circle.bmp","Father","Nonmatching","Father","Self","Self","Self","m",963,0.963,1
"48",9605,"female",25,"right","Hebrew",1,48,"triangle.bmp","Stranger","Matching","Stranger","Stranger","Stranger","Stranger","z",904,0.904,1
"49",9605,"female",25,"right","Hebrew",1,49,"square.bmp","Stranger","Nonmatching","Stranger","Father","Father","Close","m",983,0.983,1
"50",9605,"female",25,"right","Hebrew",1,50,"square.bmp","Father","Matching","Father","Father","Father","Close","z",1155,1.155,1
"51",9605,"female",25,"right","Hebrew",1,51,"square.bmp","Self","Nonmatching","Self","Father","Father","Close","m",761,0.761,1
"52",9605,"female",25,"right","Hebrew",1,52,"circle.bmp","Father","Nonmatching","Father","Self","Self","Self","m",1670,1.67,1
"53",9605,"female",25,"right","Hebrew",1,53,"triangle.bmp","Stranger","Matching","Stranger","Stranger","Stranger","Stranger","z",1494,1.494,1
"54",9605,"female",25,"right","Hebrew",1,54,"triangle.bmp","Father","Nonmatching","Father","Stranger","Stranger","Stranger","m",822,0.822,1
"55",9605,"female",25,"right","Hebrew",1,55,"circle.bmp","Self","Matching","Self","Self","Self","Self","z",952,0.952,1
"56",9605,"female",25,"right","Hebrew",1,56,"circle.bmp","Father","Nonmatching","Father","Self","Self","Self","m",549,0.549,1
"57",9605,"female",25,"right","Hebrew",1,57,"triangle.bmp","Stranger","Matching","Stranger","Stranger","Stranger","Stranger","z",915,0.915,1
"58",9605,"female",25,"right","Hebrew",1,58,"square.bmp","Stranger","Nonmatching","Stranger","Father","Father","Close","m",802,0.802,1
"59",9605,"female",25,"right","Hebrew",1,59,"square.bmp","Father","Matching","Father","Father","Father","Close","z",789,0.789,1
"60",9605,"female",25,"right","Hebrew",1,60,"square.bmp","Father","Matching","Father","Father","Father","Close","z",857,0.857,1
"61",9605,"female",25,"right","Hebrew",1,61,"square.bmp","Self","Nonmatching","Self","Father","Father","Close","m",722,0.722,1
"62",9605,"female",25,"right","Hebrew",1,62,"circle.bmp","Father","Nonmatching","Father","Self","Self","Self","m",1033,1.033,1
"63",9605,"female",25,"right","Hebrew",1,63,"triangle.bmp","Stranger","Matching","Stranger","Stranger","Stranger","Stranger","z",963,0.963,1
"64",9605,"female",25,"right","Hebrew",1,64,"square.bmp","Father","Matching","Father","Father","Father","Close","z",888,0.888,1
"65",9605,"female",25,"right","Hebrew",1,65,"square.bmp","Father","Matching","Father","Father","Father","Close","m",728,0.728,0
"66",9605,"female",25,"right","Hebrew",1,66,"triangle.bmp","Father","Nonmatching","Father","Stranger","Stranger","Stranger","m",1311,1.311,1
"67",9605,"female",25,"right","Hebrew",1,67,"circle.bmp","Stranger","Nonmatching","Stranger","Self","Self","Self","z",973,0.973,0
"68",9605,"female",25,"right","Hebrew",1,68,"circle.bmp","Father","Nonmatching","Father","Self","Self","Self","m",1482,1.482,1
"69",9605,"female",25,"right","Hebrew",1,69,"square.bmp","Father","Matching","Father","Father","Father","Close","z",850,0.85,1
"70",9605,"female",25,"right","Hebrew",1,70,"circle.bmp","Self","Matching","Self","Self","Self","Self","z",643,0.643,1
"71",9605,"female",25,"right","Hebrew",1,71,"square.bmp","Father","Matching","Father","Father","Father","Close","z",1125,1.125,1
"72",9605,"female",25,"right","Hebrew",1,72,"triangle.bmp","Father","Nonmatching","Father","Stranger","Stranger","Stranger","m",1252,1.252,1
"73",9605,"female",25,"right","Hebrew",1,73,"circle.bmp","Self","Matching","Self","Self","Self","Self","z",1413,1.413,1
"74",9605,"female",25,"right","Hebrew",1,74,"circle.bmp","Self","Matching","Self","Self","Self","Self","z",1304,1.304,1
"75",9605,"female",25,"right","Hebrew",1,75,"triangle.bmp","Stranger","Matching","Stranger","Stranger","Stranger","Stranger","z",1423,1.423,1
"76",9605,"female",25,"right","Hebrew",1,76,"circle.bmp","Self","Matching","Self","Self","Self","Self","z",1585,1.585,1
"77",9605,"female",25,"right","Hebrew",1,77,"square.bmp","Father","Matching","Father","Father","Father","Close","z",709,0.709,1
"78",9605,"female",25,"right","Hebrew",1,78,"triangle.bmp","Stranger","Matching","Stranger","Stranger","Stranger","Stranger","z",1220,1.22,1
"79",9605,"female",25,"right","Hebrew",1,79,"square.bmp","Father","Matching","Father","Father","Father","Close","z",775,0.775,1
"80",9605,"female",25,"right","Hebrew",1,80,"triangle.bmp","Father","Nonmatching","Father","Stranger","Stranger","Stranger","m",810,0.81,1
"81",9605,"female",25,"right","Hebrew",1,81,"triangle.bmp","Stranger","Matching","Stranger","Stranger","Stranger","Stranger","z",949,0.949,1
"82",9605,"female",25,"right","Hebrew",1,82,"triangle.bmp","Stranger","Matching","Stranger","Stranger","Stranger","Stranger","z",835,0.835,1
"83",9605,"female",25,"right","Hebrew",1,83,"square.bmp","Self","Nonmatching","Self","Father","Father","Close","m",1749,1.749,1
"84",9605,"female",25,"right","Hebrew",1,84,"circle.bmp","Self","Matching","Self","Self","Self","Self","z",1170,1.17,1
"85",9605,"female",25,"right","Hebrew",1,85,"triangle.bmp","Stranger","Matching","Stranger","Stranger","Stranger","Stranger","z",3063,3.063,1
"86",9605,"female",25,"right","Hebrew",1,86,"triangle.bmp","Father","Nonmatching","Father","Stranger","Stranger","Stranger","m",1496,1.496,1
"87",9605,"female",25,"right","Hebrew",1,87,"triangle.bmp","Self","Nonmatching","Self","Stranger","Stranger","Stranger","m",824,0.824,1
"88",9605,"female",25,"right","Hebrew",1,88,"triangle.bmp","Stranger","Matching","Stranger","Stranger","Stranger","Stranger","z",1938,1.938,1
"89",9605,"female",25,"right","Hebrew",1,89,"triangle.bmp","Stranger","Matching","Stranger","Stranger","Stranger","Stranger","z",2680,2.68,1
"90",9605,"female",25,"right","Hebrew",1,90,"triangle.bmp","Self","Nonmatching","Self","Stranger","Stranger","Stranger","m",2088,2.088,1
"91",9605,"female",25,"right","Hebrew",1,91,"triangle.bmp","Stranger","Matching","Stranger","Stranger","Stranger","Stranger","z",1976,1.976,1
"92",9605,"female",25,"right","Hebrew",1,92,"triangle.bmp","Self","Nonmatching","Self","Stranger","Stranger","Stranger","m",1924,1.924,1
"93",9605,"female",25,"right","Hebrew",1,93,"triangle.bmp","Father","Nonmatching","Father","Stranger","Stranger","Stranger","m",5187,5.187,1
"94",9605,"female",25,"right","Hebrew",1,94,"circle.bmp","Self","Matching","Self","Self","Self","Self","z",3478,3.478,1
"95",9605,"female",25,"right","Hebrew",1,95,"circle.bmp","Father","Nonmatching","Father","Self","Self","Self","m",2406,2.406,1
"96",9605,"female",25,"right","Hebrew",1,96,"triangle.bmp","Stranger","Matching","Stranger","Stranger","Stranger","Stranger","z",5728,5.728,1
"97",9605,"female",25,"right","Hebrew",1,97,"square.bmp","Father","Matching","Father","Father","Father","Close","z",7926,7.926,1
"98",9605,"female",25,"right","Hebrew",1,98,"square.bmp","Self","Nonmatching","Self","Father","Father","Close","m",6788,6.788,1
"99",9605,"female",25,"right","Hebrew",1,99,"triangle.bmp","Father","Nonmatching","Father","Stranger","Stranger","Stranger","m",9607,9.607,1
"100",9605,"female",25,"right","Hebrew",1,100,"square.bmp","Stranger","Nonmatching","Stranger","Father","Father","Close","m",3721,3.721,1
"101",9605,"female",25,"right","Hebrew",1,101,"square.bmp","Self","Nonmatching","Self","Father","Father","Close","m",3592,3.592,1
"102",9605,"female",25,"right","Hebrew",1,102,"square.bmp","Father","Matching","Father","Father","Father","Close","z",4947,4.947,1
"103",9605,"female",25,"right","Hebrew",1,103,"circle.bmp","Stranger","Nonmatching","Stranger","Self","Self","Self","m",3623,3.623,1
"104",9605,"female",25,"right","Hebrew",1,104,"square.bmp","Father","Matching","Father","Father","Father","Close","z",6786,6.786,1
"105",9605,"female",25,"right","Hebrew",1,105,"square.bmp","Self","Nonmatching","Self","Father","Father","Close","m",5797,5.797,1
"106",9605,"female",25,"right","Hebrew",1,106,"circle.bmp","Self","Matching","Self","Self","Self","Self","m",3352,3.352,0
"107",9605,"female",25,"right","Hebrew",1,107,"circle.bmp","Self","Matching","Self","Self","Self","Self","m",3245,3.245,0
"108",9605,"female",25,"right","Hebrew",1,108,"triangle.bmp","Stranger","Matching","Stranger","Stranger","Stranger","Stranger","z",1998,1.998,1
"109",9605,"female",25,"right","Hebrew",1,109,"triangle.bmp","Self","Nonmatching","Self","Stranger","Stranger","Stranger","m",5570,5.57,1
"110",9605,"female",25,"right","Hebrew",1,110,"circle.bmp","Stranger","Nonmatching","Stranger","Self","Self","Self","m",1942,1.942,1
"111",9605,"female",25,"right","Hebrew",1,111,"circle.bmp","Self","Matching","Self","Self","Self","Self","z",3492,3.492,1
"112",9605,"female",25,"right","Hebrew",1,112,"circle.bmp","Father","Nonmatching","Father","Self","Self","Self","m",3043,3.043,1
"113",9605,"female",25,"right","Hebrew",1,113,"circle.bmp","Father","Nonmatching","Father","Self","Self","Self","m",2211,2.211,1
"114",9605,"female",25,"right","Hebrew",1,114,"triangle.bmp","Stranger","Matching","Stranger","Stranger","Stranger","Stranger","z",6038,6.038,1
"115",9605,"female",25,"right","Hebrew",1,115,"circle.bmp","Self","Matching","Self","Self","Self","Self","z",6232,6.232,1
"116",9605,"female",25,"right","Hebrew",1,116,"circle.bmp","Stranger","Nonmatching","Stranger","Self","Self","Self","m",3121,3.121,1
"117",9605,"female",25,"right","Hebrew",1,117,"triangle.bmp","Stranger","Matching","Stranger","Stranger","Stranger","Stranger","z",4376,4.376,1
"118",9605,"female",25,"right","Hebrew",1,118,"triangle.bmp","Father","Nonmatching","Father","Stranger","Stranger","Stranger","m",6324,6.324,1
"119",9605,"female",25,"right","Hebrew",1,119,"triangle.bmp","Stranger","Matching","Stranger","Stranger","Stranger","Stranger","z",2849,2.849,1
"120",9605,"female",25,"right","Hebrew",1,120,"circle.bmp","Stranger","Nonmatching","Stranger","Self","Self","Self","m",8547,8.547,1
"121",9605,"female",25,"right","Hebrew",2,121,"circle.bmp","Self","Matching","Self","Self","Self","Self","z",2145,2.145,1
"122",9605,"female",25,"right","Hebrew",2,122,"square.bmp","Stranger","Nonmatching","Stranger","Father","Father","Close","m",2302,2.302,1
"123",9605,"female",25,"right","Hebrew",2,123,"circle.bmp","Stranger","Nonmatching","Stranger","Self","Self","Self","m",1981,1.981,1
"124",9605,"female",25,"right","Hebrew",2,124,"square.bmp","Father","Matching","Father","Father","Father","Close","z",2337,2.337,1
"125",9605,"female",25,"right","Hebrew",2,125,"triangle.bmp","Father","Nonmatching","Father","Stranger","Stranger","Stranger","m",2647,2.647,1
"126",9605,"female",25,"right","Hebrew",2,126,"triangle.bmp","Stranger","Matching","Stranger","Stranger","Stranger","Stranger","z",1529,1.529,1
"127",9605,"female",25,"right","Hebrew",2,127,"square.bmp","Father","Matching","Father","Father","Father","Close","z",967,0.967,1
"128",9605,"female",25,"right","Hebrew",2,128,"triangle.bmp","Self","Nonmatching","Self","Stranger","Stranger","Stranger","m",1412,1.412,1
"129",9605,"female",25,"right","Hebrew",2,129,"triangle.bmp","Father","Nonmatching","Father","Stranger","Stranger","Stranger","m",1079,1.079,1
"130",9605,"female",25,"right","Hebrew",2,130,"square.bmp","Stranger","Nonmatching","Stranger","Father","Father","Close","m",1319,1.319,1
"131",9605,"female",25,"right","Hebrew",2,131,"triangle.bmp","Father","Nonmatching","Father","Stranger","Stranger","Stranger","m",1206,1.206,1
"132",9605,"female",25,"right","Hebrew",2,132,"triangle.bmp","Father","Nonmatching","Father","Stranger","Stranger","Stranger","m",1417,1.417,1
"133",9605,"female",25,"right","Hebrew",2,133,"triangle.bmp","Stranger","Matching","Stranger","Stranger","Stranger","Stranger","z",1508,1.508,1
"134",9605,"female",25,"right","Hebrew",2,134,"square.bmp","Stranger","Nonmatching","Stranger","Father","Father","Close","m",1315,1.315,1
"135",9605,"female",25,"right","Hebrew",2,135,"square.bmp","Self","Nonmatching","Self","Father","Father","Close","m",1066,1.066,1
"136",9605,"female",25,"right","Hebrew",2,136,"circle.bmp","Father","Nonmatching","Father","Self","Self","Self","m",1442,1.442,1
"137",9605,"female",25,"right","Hebrew",2,137,"triangle.bmp","Father","Nonmatching","Father","Stranger","Stranger","Stranger","m",1188,1.188,1
"138",9605,"female",25,"right","Hebrew",2,138,"square.bmp","Father","Matching","Father","Father","Father","Close","z",968,0.968,1
"139",9605,"female",25,"right","Hebrew",2,139,"square.bmp","Stranger","Nonmatching","Stranger","Father","Father","Close","m",1780,1.78,1
"140",9605,"female",25,"right","Hebrew",2,140,"square.bmp","Father","Matching","Father","Father","Father","Close","z",3176,3.176,1
"141",9605,"female",25,"right","Hebrew",2,141,"circle.bmp","Father","Nonmatching","Father","Self","Self","Self","m",1652,1.652,1
"142",9605,"female",25,"right","Hebrew",2,142,"triangle.bmp","Stranger","Matching","Stranger","Stranger","Stranger","Stranger","z",1030,1.03,1
"143",9605,"female",25,"right","Hebrew",2,143,"circle.bmp","Father","Nonmatching","Father","Self","Self","Self","m",2072,2.072,1
"144",9605,"female",25,"right","Hebrew",2,144,"square.bmp","Father","Matching","Father","Father","Father","Close","z",857,0.857,1
"145",9605,"female",25,"right","Hebrew",2,145,"circle.bmp","Self","Matching","Self","Self","Self","Self","z",1634,1.634,1
"146",9605,"female",25,"right","Hebrew",2,146,"square.bmp","Self","Nonmatching","Self","Father","Father","Close","m",1515,1.515,1
"147",9605,"female",25,"right","Hebrew",2,147,"triangle.bmp","Self","Nonmatching","Self","Stranger","Stranger","Stranger","m",882,0.882,1
"148",9605,"female",25,"right","Hebrew",2,148,"square.bmp","Father","Matching","Father","Father","Father","Close","z",1058,1.058,1
"149",9605,"female",25,"right","Hebrew",2,149,"square.bmp","Father","Matching","Father","Father","Father","Close","z",1091,1.091,1
"150",9605,"female",25,"right","Hebrew",2,150,"square.bmp","Stranger","Nonmatching","Stranger","Father","Father","Close","m",2403,2.403,1
"151",9605,"female",25,"right","Hebrew",2,151,"circle.bmp","Stranger","Nonmatching","Stranger","Self","Self","Self","m",1814,1.814,1
"152",9605,"female",25,"right","Hebrew",2,152,"circle.bmp","Father","Nonmatching","Father","Self","Self","Self","m",2929,2.929,1
"153",9605,"female",25,"right","Hebrew",2,153,"triangle.bmp","Self","Nonmatching","Self","Stranger","Stranger","Stranger","m",1511,1.511,1
"154",9605,"female",25,"right","Hebrew",2,154,"circle.bmp","Father","Nonmatching","Father","Self","Self","Self","m",1878,1.878,1
"155",9605,"female",25,"right","Hebrew",2,155,"triangle.bmp","Stranger","Matching","Stranger","Stranger","Stranger","Stranger","z",1062,1.062,1
"156",9605,"female",25,"right","Hebrew",2,156,"circle.bmp","Stranger","Nonmatching","Stranger","Self","Self","Self","m",959,0.959,1
"157",9605,"female",25,"right","Hebrew",2,157,"square.bmp","Self","Nonmatching","Self","Father","Father","Close","m",1940,1.94,1
"158",9605,"female",25,"right","Hebrew",2,158,"square.bmp","Self","Nonmatching","Self","Father","Father","Close","m",1161,1.161,1
"159",9605,"female",25,"right","Hebrew",2,159,"triangle.bmp","Stranger","Matching","Stranger","Stranger","Stranger","Stranger","z",1686,1.686,1
"160",9605,"female",25,"right","Hebrew",2,160,"triangle.bmp","Stranger","Matching","Stranger","Stranger","Stranger","Stranger","z",838,0.838,1
"161",9605,"female",25,"right","Hebrew",2,161,"triangle.bmp","Self","Nonmatching","Self","Stranger","Stranger","Stranger","m",1016,1.016,1
"162",9605,"female",25,"right","Hebrew",2,162,"square.bmp","Father","Matching","Father","Father","Father","Close","z",1043,1.043,1
"163",9605,"female",25,"right","Hebrew",2,163,"square.bmp","Father","Matching","Father","Father","Father","Close","z",1285,1.285,1
"164",9605,"female",25,"right","Hebrew",2,164,"square.bmp","Father","Matching","Father","Father","Father","Close","z",2053,2.053,1
"165",9605,"female",25,"right","Hebrew",2,165,"triangle.bmp","Father","Nonmatching","Father","Stranger","Stranger","Stranger","m",998,0.998,1
"166",9605,"female",25,"right","Hebrew",2,166,"circle.bmp","Self","Matching","Self","Self","Self","Self","z",1698,1.698,1
"167",9605,"female",25,"right","Hebrew",2,167,"circle.bmp","Father","Nonmatching","Father","Self","Self","Self","m",1977,1.977,1
"168",9605,"female",25,"right","Hebrew",2,168,"square.bmp","Self","Nonmatching","Self","Father","Father","Close","m",1526,1.526,1
"169",9605,"female",25,"right","Hebrew",2,169,"square.bmp","Father","Matching","Father","Father","Father","Close","z",1348,1.348,1
"170",9605,"female",25,"right","Hebrew",2,170,"triangle.bmp","Stranger","Matching","Stranger","Stranger","Stranger","Stranger","z",1098,1.098,1
"171",9605,"female",25,"right","Hebrew",2,171,"square.bmp","Stranger","Nonmatching","Stranger","Father","Father","Close","m",2073,2.073,1
"172",9605,"female",25,"right","Hebrew",2,172,"square.bmp","Father","Matching","Father","Father","Father","Close","z",1690,1.69,1
"173",9605,"female",25,"right","Hebrew",2,173,"triangle.bmp","Self","Nonmatching","Self","Stranger","Stranger","Stranger","m",1442,1.442,1
"174",9605,"female",25,"right","Hebrew",2,174,"circle.bmp","Self","Matching","Self","Self","Self","Self","z",899,0.899,1
"175",9605,"female",25,"right","Hebrew",2,175,"circle.bmp","Self","Matching","Self","Self","Self","Self","z",1043,1.043,1
"176",9605,"female",25,"right","Hebrew",2,176,"circle.bmp","Self","Matching","Self","Self","Self","Self","z",901,0.901,1
"177",9605,"female",25,"right","Hebrew",2,177,"square.bmp","Self","Nonmatching","Self","Father","Father","Close","m",1044,1.044,1
"178",9605,"female",25,"right","Hebrew",2,178,"circle.bmp","Father","Nonmatching","Father","Self","Self","Self","m",1190,1.19,1
"179",9605,"female",25,"right","Hebrew",2,179,"circle.bmp","Stranger","Nonmatching","Stranger","Self","Self","Self","m",746,0.746,1
"180",9605,"female",25,"right","Hebrew",2,180,"circle.bmp","Self","Matching","Self","Self","Self","Self","z",942,0.942,1
"181",9605,"female",25,"right","Hebrew",2,181,"triangle.bmp","Father","Nonmatching","Father","Stranger","Stranger","Stranger","m",1188,1.188,1
"182",9605,"female",25,"right","Hebrew",2,182,"triangle.bmp","Stranger","Matching","Stranger","Stranger","Stranger","Stranger","z",1112,1.112,1
"183",9605,"female",25,"right","Hebrew",2,183,"triangle.bmp","Stranger","Matching","Stranger","Stranger","Stranger","Stranger","z",871,0.871,1
"184",9605,"female",25,"right","Hebrew",2,184,"triangle.bmp","Father","Nonmatching","Father","Stranger","Stranger","Stranger","m",1080,1.08,1
"185",9605,"female",25,"right","Hebrew",2,185,"circle.bmp","Stranger","Nonmatching","Stranger","Self","Self","Self","z",904,0.904,0
"186",9605,"female",25,"right","Hebrew",2,186,"triangle.bmp","Stranger","Matching","Stranger","Stranger","Stranger","Stranger","z",944,0.944,1
"187",9605,"female",25,"right","Hebrew",2,187,"circle.bmp","Stranger","Nonmatching","Stranger","Self","Self","Self","m",966,0.966,1
"188",9605,"female",25,"right","Hebrew",2,188,"square.bmp","Stranger","Nonmatching","Stranger","Father","Father","Close","m",962,0.962,1
"189",9605,"female",25,"right","Hebrew",2,189,"square.bmp","Father","Matching","Father","Father","Father","Close","z",1143,1.143,1
"190",9605,"female",25,"right","Hebrew",2,190,"triangle.bmp","Stranger","Matching","Stranger","Stranger","Stranger","Stranger","z",2101,2.101,1
"191",9605,"female",25,"right","Hebrew",2,191,"triangle.bmp","Stranger","Matching","Stranger","Stranger","Stranger","Stranger","z",884,0.884,1
"192",9605,"female",25,"right","Hebrew",2,192,"triangle.bmp","Self","Nonmatching","Self","Stranger","Stranger","Stranger","m",869,0.869,1
"193",9605,"female",25,"right","Hebrew",2,193,"triangle.bmp","Father","Nonmatching","Father","Stranger","Stranger","Stranger","m",2037,2.037,1
"194",9605,"female",25,"right","Hebrew",2,194,"square.bmp","Father","Matching","Father","Father","Father","Close","z",1575,1.575,1
"195",9605,"female",25,"right","Hebrew",2,195,"square.bmp","Father","Matching","Father","Father","Father","Close","z",1092,1.092,1
"196",9605,"female",25,"right","Hebrew",2,196,"circle.bmp","Self","Matching","Self","Self","Self","Self","z",1619,1.619,1
"197",9605,"female",25,"right","Hebrew",2,197,"square.bmp","Stranger","Nonmatching","Stranger","Father","Father","Close","m",1430,1.43,1
"198",9605,"female",25,"right","Hebrew",2,198,"circle.bmp","Self","Matching","Self","Self","Self","Self","z",1000,1,1
"199",9605,"female",25,"right","Hebrew",2,199,"circle.bmp","Self","Matching","Self","Self","Self","Self","z",772,0.772,1
"200",9605,"female",25,"right","Hebrew",2,200,"circle.bmp","Stranger","Nonmatching","Stranger","Self","Self","Self","m",1008,1.008,1
"201",9605,"female",25,"right","Hebrew",2,201,"square.bmp","Self","Nonmatching","Self","Father","Father","Close","m",1075,1.075,1
"202",9605,"female",25,"right","Hebrew",2,202,"triangle.bmp","Stranger","Matching","Stranger","Stranger","Stranger","Stranger","z",1268,1.268,1
"203",9605,"female",25,"right","Hebrew",2,203,"triangle.bmp","Stranger","Matching","Stranger","Stranger","Stranger","Stranger","z",1123,1.123,1
"204",9605,"female",25,"right","Hebrew",2,204,"circle.bmp","Self","Matching","Self","Self","Self","Self","z",1042,1.042,1
"205",9605,"female",25,"right","Hebrew",2,205,"circle.bmp","Stranger","Nonmatching","Stranger","Self","Self","Self","m",724,0.724,1
"206",9605,"female",25,"right","Hebrew",2,206,"circle.bmp","Self","Matching","Self","Self","Self","Self","z",1474,1.474,1
"207",9605,"female",25,"right","Hebrew",2,207,"circle.bmp","Self","Matching","Self","Self","Self","Self","z",738,0.738,1
"208",9605,"female",25,"right","Hebrew",2,208,"triangle.bmp","Self","Nonmatching","Self","Stranger","Stranger","Stranger","m",1001,1.001,1
"209",9605,"female",25,"right","Hebrew",2,209,"triangle.bmp","Stranger","Matching","Stranger","Stranger","Stranger","Stranger","z",900,0.9,1
"210",9605,"female",25,"right","Hebrew",2,210,"triangle.bmp","Self","Nonmatching","Self","Stranger","Stranger","Stranger","m",1907,1.907,1
"211",9605,"female",25,"right","Hebrew",2,211,"circle.bmp","Self","Matching","Self","Self","Self","Self","z",898,0.898,1
"212",9605,"female",25,"right","Hebrew",2,212,"triangle.bmp","Self","Nonmatching","Self","Stranger","Stranger","Stranger","m",1154,1.154,1
"213",9605,"female",25,"right","Hebrew",2,213,"square.bmp","Father","Matching","Father","Father","Father","Close","z",1255,1.255,1
"214",9605,"female",25,"right","Hebrew",2,214,"triangle.bmp","Father","Nonmatching","Father","Stranger","Stranger","Stranger","m",1209,1.209,1
"215",9605,"female",25,"right","Hebrew",2,215,"circle.bmp","Self","Matching","Self","Self","Self","Self","z",779,0.779,1
"216",9605,"female",25,"right","Hebrew",2,216,"triangle.bmp","Stranger","Matching","Stranger","Stranger","Stranger","Stranger","z",6168,6.168,1
"217",9605,"female",25,"right","Hebrew",2,217,"square.bmp","Self","Nonmatching","Self","Father","Father","Close","m",1092,1.092,1
"218",9605,"female",25,"right","Hebrew",2,218,"square.bmp","Father","Matching","Father","Father","Father","Close","z",916,0.916,1
"219",9605,"female",25,"right","Hebrew",2,219,"square.bmp","Father","Matching","Father","Father","Father","Close","z",770,0.77,1
"220",9605,"female",25,"right","Hebrew",2,220,"triangle.bmp","Stranger","Matching","Stranger","Stranger","Stranger","Stranger","z",1111,1.111,1
"221",9605,"female",25,"right","Hebrew",2,221,"circle.bmp","Father","Nonmatching","Father","Self","Self","Self","m",1430,1.43,1
"222",9605,"female",25,"right","Hebrew",2,222,"circle.bmp","Stranger","Nonmatching","Stranger","Self","Self","Self","m",1497,1.497,1
"223",9605,"female",25,"right","Hebrew",2,223,"circle.bmp","Self","Matching","Self","Self","Self","Self","z",1032,1.032,1
"224",9605,"female",25,"right","Hebrew",2,224,"square.bmp","Self","Nonmatching","Self","Father","Father","Close","m",1074,1.074,1
"225",9605,"female",25,"right","Hebrew",2,225,"triangle.bmp","Stranger","Matching","Stranger","Stranger","Stranger","Stranger","z",850,0.85,1
"226",9605,"female",25,"right","Hebrew",2,226,"circle.bmp","Self","Matching","Self","Self","Self","Self","z",899,0.899,1
"227",9605,"female",25,"right","Hebrew",2,227,"circle.bmp","Self","Matching","Self","Self","Self","Self","z",2611,2.611,1
"228",9605,"female",25,"right","Hebrew",2,228,"triangle.bmp","Stranger","Matching","Stranger","Stranger","Stranger","Stranger","z",2109,2.109,1
"229",9605,"female",25,"right","Hebrew",2,229,"square.bmp","Father","Matching","Father","Father","Father","Close","z",1796,1.796,1
"230",9605,"female",25,"right","Hebrew",2,230,"circle.bmp","Father","Nonmatching","Father","Self","Self","Self","m",696,0.696,1
"231",9605,"female",25,"right","Hebrew",2,231,"triangle.bmp","Stranger","Matching","Stranger","Stranger","Stranger","Stranger","z",815,0.815,1
"232",9605,"female",25,"right","Hebrew",2,232,"triangle.bmp","Self","Nonmatching","Self","Stranger","Stranger","Stranger","m",2498,2.498,1
"233",9605,"female",25,"right","Hebrew",2,233,"circle.bmp","Stranger","Nonmatching","Stranger","Self","Self","Self","m",865,0.865,1
"234",9605,"female",25,"right","Hebrew",2,234,"circle.bmp","Self","Matching","Self","Self","Self","Self","z",770,0.77,1
"235",9605,"female",25,"right","Hebrew",2,235,"circle.bmp","Father","Nonmatching","Father","Self","Self","Self","m",791,0.791,1
"236",9605,"female",25,"right","Hebrew",2,236,"square.bmp","Father","Matching","Father","Father","Father","Close","z",643,0.643,1
"237",9605,"female",25,"right","Hebrew",2,237,"circle.bmp","Self","Matching","Self","Self","Self","Self","z",1204,1.204,1
"238",9605,"female",25,"right","Hebrew",2,238,"square.bmp","Self","Nonmatching","Self","Father","Father","Close","m",1112,1.112,1
"239",9605,"female",25,"right","Hebrew",2,239,"square.bmp","Stranger","Nonmatching","Stranger","Father","Father","Close","m",967,0.967,1
"240",9605,"female",25,"right","Hebrew",2,240,"square.bmp","Stranger","Nonmatching","Stranger","Father","Father","Close","m",1275,1.275,1
"241",9605,"female",25,"right","Hebrew",3,241,"triangle.bmp","Self","Nonmatching","Self","Stranger","Stranger","Stranger","m",1160,1.16,1
"242",9605,"female",25,"right","Hebrew",3,242,"circle.bmp","Father","Nonmatching","Father","Self","Self","Self","m",924,0.924,1
"243",9605,"female",25,"right","Hebrew",3,243,"circle.bmp","Self","Matching","Self","Self","Self","Self","z",707,0.707,1
"244",9605,"female",25,"right","Hebrew",3,244,"square.bmp","Father","Matching","Father","Father","Father","Close","z",586,0.586,1
"245",9605,"female",25,"right","Hebrew",3,245,"triangle.bmp","Stranger","Matching","Stranger","Stranger","Stranger","Stranger","z",470,0.47,1
"246",9605,"female",25,"right","Hebrew",3,246,"circle.bmp","Father","Nonmatching","Father","Self","Self","Self","m",663,0.663,1
"247",9605,"female",25,"right","Hebrew",3,247,"square.bmp","Self","Nonmatching","Self","Father","Father","Close","m",807,0.807,1
"248",9605,"female",25,"right","Hebrew",3,248,"square.bmp","Stranger","Nonmatching","Stranger","Father","Father","Close","m",1474,1.474,1
"249",9605,"female",25,"right","Hebrew",3,249,"triangle.bmp","Father","Nonmatching","Father","Stranger","Stranger","Stranger","m",739,0.739,1
"250",9605,"female",25,"right","Hebrew",3,250,"circle.bmp","Stranger","Nonmatching","Stranger","Self","Self","Self","m",1257,1.257,1
"251",9605,"female",25,"right","Hebrew",3,251,"triangle.bmp","Stranger","Matching","Stranger","Stranger","Stranger","Stranger","z",914,0.914,1
"252",9605,"female",25,"right","Hebrew",3,252,"square.bmp","Self","Nonmatching","Self","Father","Father","Close","m",1241,1.241,1
"253",9605,"female",25,"right","Hebrew",3,253,"triangle.bmp","Stranger","Matching","Stranger","Stranger","Stranger","Stranger","z",915,0.915,1
"254",9605,"female",25,"right","Hebrew",3,254,"triangle.bmp","Stranger","Matching","Stranger","Stranger","Stranger","Stranger","z",674,0.674,1
"255",9605,"female",25,"right","Hebrew",3,255,"circle.bmp","Self","Matching","Self","Self","Self","Self","z",802,0.802,1
"256",9605,"female",25,"right","Hebrew",3,256,"triangle.bmp","Self","Nonmatching","Self","Stranger","Stranger","Stranger","m",853,0.853,1
"257",9605,"female",25,"right","Hebrew",3,257,"circle.bmp","Self","Matching","Self","Self","Self","Self","z",743,0.743,1
"258",9605,"female",25,"right","Hebrew",3,258,"square.bmp","Stranger","Nonmatching","Stranger","Father","Father","Close","m",1660,1.66,1
"259",9605,"female",25,"right","Hebrew",3,259,"square.bmp","Father","Matching","Father","Father","Father","Close","z",1021,1.021,1
"260",9605,"female",25,"right","Hebrew",3,260,"square.bmp","Father","Matching","Father","Father","Father","Close","z",712,0.712,1
"261",9605,"female",25,"right","Hebrew",3,261,"square.bmp","Father","Matching","Father","Father","Father","Close","z",455,0.455,1
"262",9605,"female",25,"right","Hebrew",3,262,"square.bmp","Stranger","Nonmatching","Stranger","Father","Father","Close","m",1016,1.016,1
"263",9605,"female",25,"right","Hebrew",3,263,"triangle.bmp","Stranger","Matching","Stranger","Stranger","Stranger","Stranger","z",2643,2.643,1
"264",9605,"female",25,"right","Hebrew",3,264,"square.bmp","Self","Nonmatching","Self","Father","Father","Close","m",1164,1.164,1
"265",9605,"female",25,"right","Hebrew",3,265,"triangle.bmp","Stranger","Matching","Stranger","Stranger","Stranger","Stranger","z",777,0.777,1
"266",9605,"female",25,"right","Hebrew",3,266,"circle.bmp","Self","Matching","Self","Self","Self","Self","z",742,0.742,1
"267",9605,"female",25,"right","Hebrew",3,267,"triangle.bmp","Stranger","Matching","Stranger","Stranger","Stranger","Stranger","z",1460,1.46,1
"268",9605,"female",25,"right","Hebrew",3,268,"square.bmp","Self","Nonmatching","Self","Father","Father","Close","m",1052,1.052,1
"269",9605,"female",25,"right","Hebrew",3,269,"circle.bmp","Self","Matching","Self","Self","Self","Self","z",646,0.646,1
"270",9605,"female",25,"right","Hebrew",3,270,"triangle.bmp","Self","Nonmatching","Self","Stranger","Stranger","Stranger","m",1144,1.144,1
"271",9605,"female",25,"right","Hebrew",3,271,"triangle.bmp","Father","Nonmatching","Father","Stranger","Stranger","Stranger","m",1300,1.3,1
"272",9605,"female",25,"right","Hebrew",3,272,"triangle.bmp","Stranger","Matching","Stranger","Stranger","Stranger","Stranger","z",875,0.875,1
"273",9605,"female",25,"right","Hebrew",3,273,"square.bmp","Father","Matching","Father","Father","Father","Close","m",1348,1.348,0
"274",9605,"female",25,"right","Hebrew",3,274,"circle.bmp","Self","Matching","Self","Self","Self","Self","z",697,0.697,1
"275",9605,"female",25,"right","Hebrew",3,275,"triangle.bmp","Stranger","Matching","Stranger","Stranger","Stranger","Stranger","z",1241,1.241,1
"276",9605,"female",25,"right","Hebrew",3,276,"circle.bmp","Father","Nonmatching","Father","Self","Self","Self","m",819,0.819,1
"277",9605,"female",25,"right","Hebrew",3,277,"circle.bmp","Self","Matching","Self","Self","Self","Self","z",901,0.901,1
"278",9605,"female",25,"right","Hebrew",3,278,"square.bmp","Self","Nonmatching","Self","Father","Father","Close","m",773,0.773,1
"279",9605,"female",25,"right","Hebrew",3,279,"square.bmp","Self","Nonmatching","Self","Father","Father","Close","m",778,0.778,1
"280",9605,"female",25,"right","Hebrew",3,280,"circle.bmp","Self","Matching","Self","Self","Self","Self","z",774,0.774,1
"281",9605,"female",25,"right","Hebrew",3,281,"square.bmp","Stranger","Nonmatching","Stranger","Father","Father","Close","m",875,0.875,1
"282",9605,"female",25,"right","Hebrew",3,282,"square.bmp","Father","Matching","Father","Father","Father","Close","z",659,0.659,1
"283",9605,"female",25,"right","Hebrew",3,283,"circle.bmp","Stranger","Nonmatching","Stranger","Self","Self","Self","m",1156,1.156,1
"284",9605,"female",25,"right","Hebrew",3,284,"circle.bmp","Self","Matching","Self","Self","Self","Self","z",738,0.738,1
"285",9605,"female",25,"right","Hebrew",3,285,"triangle.bmp","Stranger","Matching","Stranger","Stranger","Stranger","Stranger","z",1128,1.128,1
"286",9605,"female",25,"right","Hebrew",3,286,"circle.bmp","Father","Nonmatching","Father","Self","Self","Self","m",806,0.806,1
"287",9605,"female",25,"right","Hebrew",3,287,"circle.bmp","Father","Nonmatching","Father","Self","Self","Self","m",553,0.553,1
"288",9605,"female",25,"right","Hebrew",3,288,"triangle.bmp","Self","Nonmatching","Self","Stranger","Stranger","Stranger","m",1031,1.031,1
"289",9605,"female",25,"right","Hebrew",3,289,"triangle.bmp","Father","Nonmatching","Father","Stranger","Stranger","Stranger","m",1033,1.033,1
"290",9605,"female",25,"right","Hebrew",3,290,"circle.bmp","Stranger","Nonmatching","Stranger","Self","Self","Self","m",947,0.947,1
"291",9605,"female",25,"right","Hebrew",3,291,"triangle.bmp","Self","Nonmatching","Self","Stranger","Stranger","Stranger","m",937,0.937,1
"292",9605,"female",25,"right","Hebrew",3,292,"circle.bmp","Self","Matching","Self","Self","Self","Self","z",695,0.695,1
"293",9605,"female",25,"right","Hebrew",3,293,"square.bmp","Father","Matching","Father","Father","Father","Close","z",871,0.871,1
"294",9605,"female",25,"right","Hebrew",3,294,"triangle.bmp","Stranger","Matching","Stranger","Stranger","Stranger","Stranger","z",792,0.792,1
"295",9605,"female",25,"right","Hebrew",3,295,"triangle.bmp","Self","Nonmatching","Self","Stranger","Stranger","Stranger","m",900,0.9,1
"296",9605,"female",25,"right","Hebrew",3,296,"triangle.bmp","Self","Nonmatching","Self","Stranger","Stranger","Stranger","m",1043,1.043,1
"297",9605,"female",25,"right","Hebrew",3,297,"triangle.bmp","Stranger","Matching","Stranger","Stranger","Stranger","Stranger","z",1157,1.157,1
"298",9605,"female",25,"right","Hebrew",3,298,"circle.bmp","Stranger","Nonmatching","Stranger","Self","Self","Self","m",1561,1.561,1
"299",9605,"female",25,"right","Hebrew",3,299,"triangle.bmp","Stranger","Matching","Stranger","Stranger","Stranger","Stranger","z",710,0.71,1
"300",9605,"female",25,"right","Hebrew",3,300,"square.bmp","Father","Matching","Father","Father","Father","Close","z",1029,1.029,1
"301",9605,"female",25,"right","Hebrew",3,301,"circle.bmp","Self","Matching","Self","Self","Self","Self","z",584,0.584,1
"302",9605,"female",25,"right","Hebrew",3,302,"triangle.bmp","Self","Nonmatching","Self","Stranger","Stranger","Stranger","m",628,0.628,1
"303",9605,"female",25,"right","Hebrew",3,303,"circle.bmp","Self","Matching","Self","Self","Self","Self","z",774,0.774,1
"304",9605,"female",25,"right","Hebrew",3,304,"triangle.bmp","Father","Nonmatching","Father","Stranger","Stranger","Stranger","m",947,0.947,1
"305",9605,"female",25,"right","Hebrew",3,305,"circle.bmp","Father","Nonmatching","Father","Self","Self","Self","m",848,0.848,1
"306",9605,"female",25,"right","Hebrew",3,306,"square.bmp","Stranger","Nonmatching","Stranger","Father","Father","Close","m",642,0.642,1
"307",9605,"female",25,"right","Hebrew",3,307,"triangle.bmp","Self","Nonmatching","Self","Stranger","Stranger","Stranger","m",852,0.852,1
"308",9605,"female",25,"right","Hebrew",3,308,"circle.bmp","Stranger","Nonmatching","Stranger","Self","Self","Self","m",1173,1.173,1
"309",9605,"female",25,"right","Hebrew",3,309,"square.bmp","Father","Matching","Father","Father","Father","Close","z",650,0.65,1
"310",9605,"female",25,"right","Hebrew",3,310,"circle.bmp","Stranger","Nonmatching","Stranger","Self","Self","Self","m",1219,1.219,1
"311",9605,"female",25,"right","Hebrew",3,311,"circle.bmp","Self","Matching","Self","Self","Self","Self","z",4054,4.054,1
"312",9605,"female",25,"right","Hebrew",3,312,"triangle.bmp","Self","Nonmatching","Self","Stranger","Stranger","Stranger","m",1271,1.271,1
"313",9605,"female",25,"right","Hebrew",3,313,"triangle.bmp","Father","Nonmatching","Father","Stranger","Stranger","Stranger","m",1215,1.215,1
"314",9605,"female",25,"right","Hebrew",3,314,"triangle.bmp","Father","Nonmatching","Father","Stranger","Stranger","Stranger","m",1106,1.106,1
"315",9605,"female",25,"right","Hebrew",3,315,"triangle.bmp","Father","Nonmatching","Father","Stranger","Stranger","Stranger","m",618,0.618,1
"316",9605,"female",25,"right","Hebrew",3,316,"square.bmp","Father","Matching","Father","Father","Father","Close","z",1588,1.588,1
"317",9605,"female",25,"right","Hebrew",3,317,"circle.bmp","Stranger","Nonmatching","Stranger","Self","Self","Self","m",776,0.776,1
"318",9605,"female",25,"right","Hebrew",3,318,"triangle.bmp","Stranger","Matching","Stranger","Stranger","Stranger","Stranger","z",805,0.805,1
"319",9605,"female",25,"right","Hebrew",3,319,"square.bmp","Self","Nonmatching","Self","Father","Father","Close","m",824,0.824,1
"320",9605,"female",25,"right","Hebrew",3,320,"circle.bmp","Self","Matching","Self","Self","Self","Self","z",995,0.995,1
"321",9605,"female",25,"right","Hebrew",3,321,"square.bmp","Self","Nonmatching","Self","Father","Father","Close","m",1542,1.542,1
"322",9605,"female",25,"right","Hebrew",3,322,"circle.bmp","Self","Matching","Self","Self","Self","Self","z",803,0.803,1
"323",9605,"female",25,"right","Hebrew",3,323,"circle.bmp","Father","Nonmatching","Father","Self","Self","Self","m",967,0.967,1
"324",9605,"female",25,"right","Hebrew",3,324,"square.bmp","Father","Matching","Father","Father","Father","Close","z",755,0.755,1
"325",9605,"female",25,"right","Hebrew",3,325,"circle.bmp","Stranger","Nonmatching","Stranger","Self","Self","Self","m",777,0.777,1
"326",9605,"female",25,"right","Hebrew",3,326,"square.bmp","Father","Matching","Father","Father","Father","Close","z",805,0.805,1
"327",9605,"female",25,"right","Hebrew",3,327,"triangle.bmp","Stranger","Matching","Stranger","Stranger","Stranger","Stranger","z",889,0.889,1
"328",9605,"female",25,"right","Hebrew",3,328,"circle.bmp","Self","Matching","Self","Self","Self","Self","z",1001,1.001,1
"329",9605,"female",25,"right","Hebrew",3,329,"triangle.bmp","Stranger","Matching","Stranger","Stranger","Stranger","Stranger","z",1220,1.22,1
"330",9605,"female",25,"right","Hebrew",3,330,"square.bmp","Father","Matching","Father","Father","Father","Close","z",759,0.759,1
"331",9605,"female",25,"right","Hebrew",3,331,"triangle.bmp","Father","Nonmatching","Father","Stranger","Stranger","Stranger","m",692,0.692,1
"332",9605,"female",25,"right","Hebrew",3,332,"square.bmp","Father","Matching","Father","Father","Father","Close","z",676,0.676,1
"333",9605,"female",25,"right","Hebrew",3,333,"triangle.bmp","Stranger","Matching","Stranger","Stranger","Stranger","Stranger","z",884,0.884,1
"334",9605,"female",25,"right","Hebrew",3,334,"circle.bmp","Self","Matching","Self","Self","Self","Self","z",676,0.676,1
"335",9605,"female",25,"right","Hebrew",3,335,"triangle.bmp","Stranger","Matching","Stranger","Stranger","Stranger","Stranger","z",1045,1.045,1
"336",9605,"female",25,"right","Hebrew",3,336,"square.bmp","Father","Matching","Father","Father","Father","Close","z",1678,1.678,1
"337",9605,"female",25,"right","Hebrew",3,337,"circle.bmp","Father","Nonmatching","Father","Self","Self","Self","m",903,0.903,1
"338",9605,"female",25,"right","Hebrew",3,338,"square.bmp","Father","Matching","Father","Father","Father","Close","z",1014,1.014,1
"339",9605,"female",25,"right","Hebrew",3,339,"triangle.bmp","Stranger","Matching","Stranger","Stranger","Stranger","Stranger","z",761,0.761,1
"340",9605,"female",25,"right","Hebrew",3,340,"triangle.bmp","Stranger","Matching","Stranger","Stranger","Stranger","Stranger","z",774,0.774,1
"341",9605,"female",25,"right","Hebrew",3,341,"circle.bmp","Father","Nonmatching","Father","Self","Self","Self","m",963,0.963,1
"342",9605,"female",25,"right","Hebrew",3,342,"square.bmp","Father","Matching","Father","Father","Father","Close","z",808,0.808,1
"343",9605,"female",25,"right","Hebrew",3,343,"square.bmp","Father","Matching","Father","Father","Father","Close","z",1411,1.411,1
"344",9605,"female",25,"right","Hebrew",3,344,"circle.bmp","Self","Matching","Self","Self","Self","Self","z",710,0.71,1
"345",9605,"female",25,"right","Hebrew",3,345,"square.bmp","Self","Nonmatching","Self","Father","Father","Close","m",965,0.965,1
"346",9605,"female",25,"right","Hebrew",3,346,"circle.bmp","Stranger","Nonmatching","Stranger","Self","Self","Self","m",1114,1.114,1
"347",9605,"female",25,"right","Hebrew",3,347,"square.bmp","Stranger","Nonmatching","Stranger","Father","Father","Close","m",1433,1.433,1
"348",9605,"female",25,"right","Hebrew",3,348,"circle.bmp","Self","Matching","Self","Self","Self","Self","z",786,0.786,1
"349",9605,"female",25,"right","Hebrew",3,349,"square.bmp","Stranger","Nonmatching","Stranger","Father","Father","Close","m",1654,1.654,1
"350",9605,"female",25,"right","Hebrew",3,350,"square.bmp","Stranger","Nonmatching","Stranger","Father","Father","Close","m",712,0.712,1
"351",9605,"female",25,"right","Hebrew",3,351,"circle.bmp","Self","Matching","Self","Self","Self","Self","z",663,0.663,1
"352",9605,"female",25,"right","Hebrew",3,352,"triangle.bmp","Father","Nonmatching","Father","Stranger","Stranger","Stranger","m",1032,1.032,1
"353",9605,"female",25,"right","Hebrew",3,353,"circle.bmp","Stranger","Nonmatching","Stranger","Self","Self","Self","m",1202,1.202,1
"354",9605,"female",25,"right","Hebrew",3,354,"triangle.bmp","Father","Nonmatching","Father","Stranger","Stranger","Stranger","m",933,0.933,1
"355",9605,"female",25,"right","Hebrew",3,355,"square.bmp","Father","Matching","Father","Father","Father","Close","z",692,0.692,1
"356",9605,"female",25,"right","Hebrew",3,356,"square.bmp","Self","Nonmatching","Self","Father","Father","Close","m",1027,1.027,1
"357",9605,"female",25,"right","Hebrew",3,357,"square.bmp","Stranger","Nonmatching","Stranger","Father","Father","Close","m",1685,1.685,1
"358",9605,"female",25,"right","Hebrew",3,358,"square.bmp","Father","Matching","Father","Father","Father","Close","z",821,0.821,1
"359",9605,"female",25,"right","Hebrew",3,359,"circle.bmp","Father","Nonmatching","Father","Self","Self","Self","m",888,0.888,1
"360",9605,"female",25,"right","Hebrew",3,360,"square.bmp","Stranger","Nonmatching","Stranger","Father","Father","Close","m",2032,2.032,1
"361",9612,"female",21,"right","Hebrew",1,1,"circle.bmp","Stranger","Nonmatching","Stranger","Self","Self","Self","z",1701,1.701,1
"362",9612,"female",21,"right","Hebrew",1,2,"triangle.bmp","Father","Matching","Father","Father","Father","Close","m",1509,1.509,1
"363",9612,"female",21,"right","Hebrew",1,3,"triangle.bmp","Self","Nonmatching","Self","Father","Father","Close","z",1067,1.067,1
"364",9612,"female",21,"right","Hebrew",1,4,"square.bmp","Self","Nonmatching","Self","Stranger","Stranger","Stranger","z",1172,1.172,1
"365",9612,"female",21,"right","Hebrew",1,5,"triangle.bmp","Stranger","Nonmatching","Stranger","Father","Father","Close","z",976,0.976,1
"366",9612,"female",21,"right","Hebrew",1,6,"triangle.bmp","Father","Matching","Father","Father","Father","Close","m",1109,1.109,1
"367",9612,"female",21,"right","Hebrew",1,7,"circle.bmp","Self","Matching","Self","Self","Self","Self","z",836,0.836,0
"368",9612,"female",21,"right","Hebrew",1,8,"triangle.bmp","Stranger","Nonmatching","Stranger","Father","Father","Close","z",1966,1.966,1
"369",9612,"female",21,"right","Hebrew",1,9,"square.bmp","Stranger","Matching","Stranger","Stranger","Stranger","Stranger","m",931,0.931,1
"370",9612,"female",21,"right","Hebrew",1,10,"circle.bmp","Self","Matching","Self","Self","Self","Self","m",1169,1.169,1
"371",9612,"female",21,"right","Hebrew",1,11,"triangle.bmp","Father","Matching","Father","Father","Father","Close","m",764,0.764,1
"372",9612,"female",21,"right","Hebrew",1,12,"triangle.bmp","Self","Nonmatching","Self","Father","Father","Close","z",737,0.737,1
"373",9612,"female",21,"right","Hebrew",1,13,"circle.bmp","Self","Matching","Self","Self","Self","Self","m",647,0.647,1
"374",9612,"female",21,"right","Hebrew",1,14,"square.bmp","Self","Nonmatching","Self","Stranger","Stranger","Stranger","z",872,0.872,1
"375",9612,"female",21,"right","Hebrew",1,15,"triangle.bmp","Father","Matching","Father","Father","Father","Close","m",889,0.889,1
"376",9612,"female",21,"right","Hebrew",1,16,"circle.bmp","Stranger","Nonmatching","Stranger","Self","Self","Self","z",2889,2.889,1
"377",9612,"female",21,"right","Hebrew",1,17,"square.bmp","Father","Nonmatching","Father","Stranger","Stranger","Stranger","z",905,0.905,1
"378",9612,"female",21,"right","Hebrew",1,18,"triangle.bmp","Father","Matching","Father","Father","Father","Close","m",2648,2.648,1
"379",9612,"female",21,"right","Hebrew",1,19,"square.bmp","Stranger","Matching","Stranger","Stranger","Stranger","Stranger","m",746,0.746,1
"380",9612,"female",21,"right","Hebrew",1,20,"square.bmp","Father","Nonmatching","Father","Stranger","Stranger","Stranger","z",1400,1.4,1
"381",9612,"female",21,"right","Hebrew",1,21,"circle.bmp","Father","Nonmatching","Father","Self","Self","Self","m",819,0.819,0
"382",9612,"female",21,"right","Hebrew",1,22,"circle.bmp","Stranger","Nonmatching","Stranger","Self","Self","Self","z",1806,1.806,1
"383",9612,"female",21,"right","Hebrew",1,23,"triangle.bmp","Father","Matching","Father","Father","Father","Close","m",713,0.713,1
"384",9612,"female",21,"right","Hebrew",1,24,"square.bmp","Father","Nonmatching","Father","Stranger","Stranger","Stranger","z",856,0.856,1
"385",9612,"female",21,"right","Hebrew",1,25,"triangle.bmp","Self","Nonmatching","Self","Father","Father","Close","z",1034,1.034,1
"386",9612,"female",21,"right","Hebrew",1,26,"square.bmp","Stranger","Matching","Stranger","Stranger","Stranger","Stranger","m",1348,1.348,1
"387",9612,"female",21,"right","Hebrew",1,27,"circle.bmp","Self","Matching","Self","Self","Self","Self","m",681,0.681,1
"388",9612,"female",21,"right","Hebrew",1,28,"square.bmp","Father","Nonmatching","Father","Stranger","Stranger","Stranger","z",1562,1.562,1
"389",9612,"female",21,"right","Hebrew",1,29,"circle.bmp","Self","Matching","Self","Self","Self","Self","m",1175,1.175,1
"390",9612,"female",21,"right","Hebrew",1,30,"square.bmp","Self","Nonmatching","Self","Stranger","Stranger","Stranger","z",1155,1.155,1
"391",9612,"female",21,"right","Hebrew",1,31,"circle.bmp","Self","Matching","Self","Self","Self","Self","m",681,0.681,1
"392",9612,"female",21,"right","Hebrew",1,32,"circle.bmp","Self","Matching","Self","Self","Self","Self","m",1113,1.113,1
"393",9612,"female",21,"right","Hebrew",1,33,"square.bmp","Stranger","Matching","Stranger","Stranger","Stranger","Stranger","m",840,0.84,1
"394",9612,"female",21,"right","Hebrew",1,34,"triangle.bmp","Stranger","Nonmatching","Stranger","Father","Father","Close","z",2650,2.65,1
"395",9612,"female",21,"right","Hebrew",1,35,"square.bmp","Stranger","Matching","Stranger","Stranger","Stranger","Stranger","m",884,0.884,1
"396",9612,"female",21,"right","Hebrew",1,36,"triangle.bmp","Stranger","Nonmatching","Stranger","Father","Father","Close","z",1379,1.379,1
"397",9612,"female",21,"right","Hebrew",1,37,"circle.bmp","Self","Matching","Self","Self","Self","Self","m",615,0.615,1
"398",9612,"female",21,"right","Hebrew",1,38,"triangle.bmp","Self","Nonmatching","Self","Father","Father","Close","z",1938,1.938,1
"399",9612,"female",21,"right","Hebrew",1,39,"circle.bmp","Self","Matching","Self","Self","Self","Self","m",559,0.559,1
"400",9612,"female",21,"right","Hebrew",1,40,"circle.bmp","Stranger","Nonmatching","Stranger","Self","Self","Self","z",1141,1.141,1
"401",9612,"female",21,"right","Hebrew",1,41,"triangle.bmp","Father","Matching","Father","Father","Father","Close","m",626,0.626,1
"402",9612,"female",21,"right","Hebrew",1,42,"triangle.bmp","Father","Matching","Father","Father","Father","Close","m",588,0.588,1
"403",9612,"female",21,"right","Hebrew",1,43,"triangle.bmp","Stranger","Nonmatching","Stranger","Father","Father","Close","m",464,0.464,0
"404",9612,"female",21,"right","Hebrew",1,44,"circle.bmp","Father","Nonmatching","Father","Self","Self","Self","z",1225,1.225,1
"405",9612,"female",21,"right","Hebrew",1,45,"triangle.bmp","Father","Matching","Father","Father","Father","Close","m",755,0.755,1
"406",9612,"female",21,"right","Hebrew",1,46,"triangle.bmp","Father","Matching","Father","Father","Father","Close","m",593,0.593,1
"407",9612,"female",21,"right","Hebrew",1,47,"circle.bmp","Stranger","Nonmatching","Stranger","Self","Self","Self","z",1260,1.26,1
"408",9612,"female",21,"right","Hebrew",1,48,"square.bmp","Stranger","Matching","Stranger","Stranger","Stranger","Stranger","m",837,0.837,1
"409",9612,"female",21,"right","Hebrew",1,49,"triangle.bmp","Father","Matching","Father","Father","Father","Close","m",583,0.583,1
"410",9612,"female",21,"right","Hebrew",1,50,"square.bmp","Self","Nonmatching","Self","Stranger","Stranger","Stranger","z",915,0.915,1
"411",9612,"female",21,"right","Hebrew",1,51,"square.bmp","Stranger","Matching","Stranger","Stranger","Stranger","Stranger","m",914,0.914,1
"412",9612,"female",21,"right","Hebrew",1,52,"circle.bmp","Self","Matching","Self","Self","Self","Self","m",905,0.905,1
"413",9612,"female",21,"right","Hebrew",1,53,"triangle.bmp","Father","Matching","Father","Father","Father","Close","m",825,0.825,1
"414",9612,"female",21,"right","Hebrew",1,54,"circle.bmp","Stranger","Nonmatching","Stranger","Self","Self","Self","z",931,0.931,1
"415",9612,"female",21,"right","Hebrew",1,55,"square.bmp","Stranger","Matching","Stranger","Stranger","Stranger","Stranger","m",873,0.873,1
"416",9612,"female",21,"right","Hebrew",1,56,"triangle.bmp","Stranger","Nonmatching","Stranger","Father","Father","Close","z",898,0.898,1
"417",9612,"female",21,"right","Hebrew",1,57,"triangle.bmp","Stranger","Nonmatching","Stranger","Father","Father","Close","z",721,0.721,1
"418",9612,"female",21,"right","Hebrew",1,58,"circle.bmp","Self","Matching","Self","Self","Self","Self","m",584,0.584,1
"419",9612,"female",21,"right","Hebrew",1,59,"square.bmp","Stranger","Matching","Stranger","Stranger","Stranger","Stranger","m",852,0.852,1
"420",9612,"female",21,"right","Hebrew",1,60,"triangle.bmp","Self","Nonmatching","Self","Father","Father","Close","z",1126,1.126,1
"421",9612,"female",21,"right","Hebrew",1,61,"circle.bmp","Stranger","Nonmatching","Stranger","Self","Self","Self","z",884,0.884,1
"422",9612,"female",21,"right","Hebrew",1,62,"circle.bmp","Self","Matching","Self","Self","Self","Self","m",740,0.74,1
"423",9612,"female",21,"right","Hebrew",1,63,"square.bmp","Father","Nonmatching","Father","Stranger","Stranger","Stranger","z",1865,1.865,1
"424",9612,"female",21,"right","Hebrew",1,64,"square.bmp","Stranger","Matching","Stranger","Stranger","Stranger","Stranger","m",866,0.866,1
"425",9612,"female",21,"right","Hebrew",1,65,"square.bmp","Stranger","Matching","Stranger","Stranger","Stranger","Stranger","m",611,0.611,1
"426",9612,"female",21,"right","Hebrew",1,66,"triangle.bmp","Stranger","Nonmatching","Stranger","Father","Father","Close","z",742,0.742,1
"427",9612,"female",21,"right","Hebrew",1,67,"triangle.bmp","Self","Nonmatching","Self","Father","Father","Close","z",795,0.795,1
"428",9612,"female",21,"right","Hebrew",1,68,"square.bmp","Self","Nonmatching","Self","Stranger","Stranger","Stranger","z",807,0.807,1
"429",9612,"female",21,"right","Hebrew",1,69,"circle.bmp","Self","Matching","Self","Self","Self","Self","m",658,0.658,1
"430",9612,"female",21,"right","Hebrew",1,70,"triangle.bmp","Self","Nonmatching","Self","Father","Father","Close","z",963,0.963,1
"431",9612,"female",21,"right","Hebrew",1,71,"square.bmp","Stranger","Matching","Stranger","Stranger","Stranger","Stranger","m",984,0.984,1
"432",9612,"female",21,"right","Hebrew",1,72,"square.bmp","Self","Nonmatching","Self","Stranger","Stranger","Stranger","z",748,0.748,1
"433",9612,"female",21,"right","Hebrew",1,73,"square.bmp","Stranger","Matching","Stranger","Stranger","Stranger","Stranger","m",914,0.914,1
"434",9612,"female",21,"right","Hebrew",1,74,"triangle.bmp","Self","Nonmatching","Self","Father","Father","Close","z",905,0.905,1
"435",9612,"female",21,"right","Hebrew",1,75,"square.bmp","Stranger","Matching","Stranger","Stranger","Stranger","Stranger","m",648,0.648,1
"436",9612,"female",21,"right","Hebrew",1,76,"circle.bmp","Father","Nonmatching","Father","Self","Self","Self","m",594,0.594,0
"437",9612,"female",21,"right","Hebrew",1,77,"circle.bmp","Stranger","Nonmatching","Stranger","Self","Self","Self","z",1085,1.085,1
"438",9612,"female",21,"right","Hebrew",1,78,"square.bmp","Self","Nonmatching","Self","Stranger","Stranger","Stranger","z",854,0.854,1
"439",9612,"female",21,"right","Hebrew",1,79,"triangle.bmp","Father","Matching","Father","Father","Father","Close","m",759,0.759,1
"440",9612,"female",21,"right","Hebrew",1,80,"triangle.bmp","Self","Nonmatching","Self","Father","Father","Close","z",1300,1.3,1
"441",9612,"female",21,"right","Hebrew",1,81,"circle.bmp","Father","Nonmatching","Father","Self","Self","Self","z",1411,1.411,1
"442",9612,"female",21,"right","Hebrew",1,82,"circle.bmp","Father","Nonmatching","Father","Self","Self","Self","z",1159,1.159,1
"443",9612,"female",21,"right","Hebrew",1,83,"square.bmp","Stranger","Matching","Stranger","Stranger","Stranger","Stranger","m",948,0.948,1
"444",9612,"female",21,"right","Hebrew",1,84,"circle.bmp","Self","Matching","Self","Self","Self","Self","m",793,0.793,1
"445",9612,"female",21,"right","Hebrew",1,85,"triangle.bmp","Stranger","Nonmatching","Stranger","Father","Father","Close","z",869,0.869,1
"446",9612,"female",21,"right","Hebrew",1,86,"circle.bmp","Self","Matching","Self","Self","Self","Self","m",726,0.726,1
"447",9612,"female",21,"right","Hebrew",1,87,"square.bmp","Stranger","Matching","Stranger","Stranger","Stranger","Stranger","z",1012,1.012,0
"448",9612,"female",21,"right","Hebrew",1,88,"square.bmp","Stranger","Matching","Stranger","Stranger","Stranger","Stranger","m",767,0.767,1
"449",9612,"female",21,"right","Hebrew",1,89,"triangle.bmp","Father","Matching","Father","Father","Father","Close","m",643,0.643,1
"450",9612,"female",21,"right","Hebrew",1,90,"triangle.bmp","Father","Matching","Father","Father","Father","Close","m",1637,1.637,1
"451",9612,"female",21,"right","Hebrew",1,91,"circle.bmp","Father","Nonmatching","Father","Self","Self","Self","z",1015,1.015,1
"452",9612,"female",21,"right","Hebrew",1,92,"circle.bmp","Stranger","Nonmatching","Stranger","Self","Self","Self","z",2114,2.114,1
"453",9612,"female",21,"right","Hebrew",1,93,"triangle.bmp","Self","Nonmatching","Self","Father","Father","Close","z",905,0.905,1
"454",9612,"female",21,"right","Hebrew",1,94,"circle.bmp","Father","Nonmatching","Father","Self","Self","Self","z",1768,1.768,1
"455",9612,"female",21,"right","Hebrew",1,95,"circle.bmp","Self","Matching","Self","Self","Self","Self","m",1029,1.029,1
"456",9612,"female",21,"right","Hebrew",1,96,"circle.bmp","Father","Nonmatching","Father","Self","Self","Self","z",1383,1.383,1
"457",9612,"female",21,"right","Hebrew",1,97,"square.bmp","Self","Nonmatching","Self","Stranger","Stranger","Stranger","z",787,0.787,1
"458",9612,"female",21,"right","Hebrew",1,98,"triangle.bmp","Father","Matching","Father","Father","Father","Close","m",647,0.647,1
"459",9612,"female",21,"right","Hebrew",1,99,"square.bmp","Father","Nonmatching","Father","Stranger","Stranger","Stranger","z",761,0.761,1
"460",9612,"female",21,"right","Hebrew",1,100,"circle.bmp","Self","Matching","Self","Self","Self","Self","m",1046,1.046,1
"461",9612,"female",21,"right","Hebrew",1,101,"triangle.bmp","Father","Matching","Father","Father","Father","Close","m",1096,1.096,1
"462",9612,"female",21,"right","Hebrew",1,102,"triangle.bmp","Father","Matching","Father","Father","Father","Close","m",655,0.655,1
"463",9612,"female",21,"right","Hebrew",1,103,"square.bmp","Stranger","Matching","Stranger","Stranger","Stranger","Stranger","m",745,0.745,1
"464",9612,"female",21,"right","Hebrew",1,104,"square.bmp","Father","Nonmatching","Father","Stranger","Stranger","Stranger","m",631,0.631,0
"465",9612,"female",21,"right","Hebrew",1,105,"triangle.bmp","Stranger","Nonmatching","Stranger","Father","Father","Close","z",1137,1.137,1
"466",9612,"female",21,"right","Hebrew",1,106,"circle.bmp","Father","Nonmatching","Father","Self","Self","Self","z",1703,1.703,1
"467",9612,"female",21,"right","Hebrew",1,107,"square.bmp","Father","Nonmatching","Father","Stranger","Stranger","Stranger","z",998,0.998,1
"468",9612,"female",21,"right","Hebrew",1,108,"circle.bmp","Self","Matching","Self","Self","Self","Self","m",706,0.706,1
"469",9612,"female",21,"right","Hebrew",1,109,"circle.bmp","Self","Matching","Self","Self","Self","Self","m",921,0.921,1
"470",9612,"female",21,"right","Hebrew",1,110,"square.bmp","Father","Nonmatching","Father","Stranger","Stranger","Stranger","z",680,0.68,1
"471",9612,"female",21,"right","Hebrew",1,111,"circle.bmp","Father","Nonmatching","Father","Self","Self","Self","z",777,0.777,1
"472",9612,"female",21,"right","Hebrew",1,112,"square.bmp","Father","Nonmatching","Father","Stranger","Stranger","Stranger","z",885,0.885,1
"473",9612,"female",21,"right","Hebrew",1,113,"circle.bmp","Self","Matching","Self","Self","Self","Self","m",741,0.741,1
"474",9612,"female",21,"right","Hebrew",1,114,"triangle.bmp","Father","Matching","Father","Father","Father","Close","m",1122,1.122,1
"475",9612,"female",21,"right","Hebrew",1,115,"square.bmp","Self","Nonmatching","Self","Stranger","Stranger","Stranger","z",800,0.8,1
"476",9612,"female",21,"right","Hebrew",1,116,"square.bmp","Self","Nonmatching","Self","Stranger","Stranger","Stranger","z",708,0.708,1
"477",9612,"female",21,"right","Hebrew",1,117,"square.bmp","Stranger","Matching","Stranger","Stranger","Stranger","Stranger","m",611,0.611,1
"478",9612,"female",21,"right","Hebrew",1,118,"circle.bmp","Stranger","Nonmatching","Stranger","Self","Self","Self","z",670,0.67,1
"479",9612,"female",21,"right","Hebrew",1,119,"triangle.bmp","Father","Matching","Father","Father","Father","Close","m",663,0.663,1
"480",9612,"female",21,"right","Hebrew",1,120,"square.bmp","Stranger","Matching","Stranger","Stranger","Stranger","Stranger","z",735,0.735,0
"481",9612,"female",21,"right","Hebrew",2,121,"circle.bmp","Father","Nonmatching","Father","Self","Self","Self","z",1063,1.063,1
"482",9612,"female",21,"right","Hebrew",2,122,"square.bmp","Stranger","Matching","Stranger","Stranger","Stranger","Stranger","m",816,0.816,1
"483",9612,"female",21,"right","Hebrew",2,123,"triangle.bmp","Father","Matching","Father","Father","Father","Close","m",1251,1.251,1
"484",9612,"female",21,"right","Hebrew",2,124,"circle.bmp","Father","Nonmatching","Father","Self","Self","Self","z",868,0.868,1
"485",9612,"female",21,"right","Hebrew",2,125,"triangle.bmp","Self","Nonmatching","Self","Father","Father","Close","z",901,0.901,1
"486",9612,"female",21,"right","Hebrew",2,126,"circle.bmp","Self","Matching","Self","Self","Self","Self","m",612,0.612,1
"487",9612,"female",21,"right","Hebrew",2,127,"square.bmp","Stranger","Matching","Stranger","Stranger","Stranger","Stranger","m",695,0.695,1
"488",9612,"female",21,"right","Hebrew",2,128,"triangle.bmp","Father","Matching","Father","Father","Father","Close","m",719,0.719,1
"489",9612,"female",21,"right","Hebrew",2,129,"square.bmp","Stranger","Matching","Stranger","Stranger","Stranger","Stranger","m",813,0.813,1
"490",9612,"female",21,"right","Hebrew",2,130,"triangle.bmp","Father","Matching","Father","Father","Father","Close","m",680,0.68,1
"491",9612,"female",21,"right","Hebrew",2,131,"circle.bmp","Self","Matching","Self","Self","Self","Self","m",601,0.601,1
"492",9612,"female",21,"right","Hebrew",2,132,"circle.bmp","Self","Matching","Self","Self","Self","Self","m",836,0.836,1
"493",9612,"female",21,"right","Hebrew",2,133,"square.bmp","Self","Nonmatching","Self","Stranger","Stranger","Stranger","z",711,0.711,1
"494",9612,"female",21,"right","Hebrew",2,134,"triangle.bmp","Self","Nonmatching","Self","Father","Father","Close","z",854,0.854,1
"495",9612,"female",21,"right","Hebrew",2,135,"circle.bmp","Father","Nonmatching","Father","Self","Self","Self","z",1639,1.639,1
"496",9612,"female",21,"right","Hebrew",2,136,"square.bmp","Stranger","Matching","Stranger","Stranger","Stranger","Stranger","m",712,0.712,1
"497",9612,"female",21,"right","Hebrew",2,137,"circle.bmp","Father","Nonmatching","Father","Self","Self","Self","z",823,0.823,1
"498",9612,"female",21,"right","Hebrew",2,138,"triangle.bmp","Father","Matching","Father","Father","Father","Close","m",850,0.85,1
"499",9612,"female",21,"right","Hebrew",2,139,"circle.bmp","Stranger","Nonmatching","Stranger","Self","Self","Self","z",947,0.947,1
"500",9612,"female",21,"right","Hebrew",2,140,"triangle.bmp","Stranger","Nonmatching","Stranger","Father","Father","Close","z",953,0.953,1
"501",9612,"female",21,"right","Hebrew",2,141,"square.bmp","Stranger","Matching","Stranger","Stranger","Stranger","Stranger","m",798,0.798,1
"502",9612,"female",21,"right","Hebrew",2,142,"square.bmp","Self","Nonmatching","Self","Stranger","Stranger","Stranger","z",833,0.833,1
"503",9612,"female",21,"right","Hebrew",2,143,"circle.bmp","Self","Matching","Self","Self","Self","Self","m",548,0.548,1
"504",9612,"female",21,"right","Hebrew",2,144,"square.bmp","Stranger","Matching","Stranger","Stranger","Stranger","Stranger","m",921,0.921,1
"505",9612,"female",21,"right","Hebrew",2,145,"triangle.bmp","Father","Matching","Father","Father","Father","Close","m",472,0.472,1
"506",9612,"female",21,"right","Hebrew",2,146,"triangle.bmp","Father","Matching","Father","Father","Father","Close","m",633,0.633,1
"507",9612,"female",21,"right","Hebrew",2,147,"circle.bmp","Father","Nonmatching","Father","Self","Self","Self","z",755,0.755,1
"508",9612,"female",21,"right","Hebrew",2,148,"triangle.bmp","Stranger","Nonmatching","Stranger","Father","Father","Close","z",1088,1.088,1
"509",9612,"female",21,"right","Hebrew",2,149,"triangle.bmp","Stranger","Nonmatching","Stranger","Father","Father","Close","z",568,0.568,1
"510",9612,"female",21,"right","Hebrew",2,150,"circle.bmp","Self","Matching","Self","Self","Self","Self","m",725,0.725,1
"511",9612,"female",21,"right","Hebrew",2,151,"circle.bmp","Father","Nonmatching","Father","Self","Self","Self","z",996,0.996,1
"512",9612,"female",21,"right","Hebrew",2,152,"square.bmp","Self","Nonmatching","Self","Stranger","Stranger","Stranger","z",807,0.807,1
"513",9612,"female",21,"right","Hebrew",2,153,"square.bmp","Stranger","Matching","Stranger","Stranger","Stranger","Stranger","m",514,0.514,1
"514",9612,"female",21,"right","Hebrew",2,154,"circle.bmp","Self","Matching","Self","Self","Self","Self","m",906,0.906,1
"515",9612,"female",21,"right","Hebrew",2,155,"square.bmp","Stranger","Matching","Stranger","Stranger","Stranger","Stranger","m",953,0.953,1
"516",9612,"female",21,"right","Hebrew",2,156,"circle.bmp","Father","Nonmatching","Father","Self","Self","Self","z",582,0.582,1
"517",9612,"female",21,"right","Hebrew",2,157,"square.bmp","Stranger","Matching","Stranger","Stranger","Stranger","Stranger","m",1027,1.027,1
"518",9612,"female",21,"right","Hebrew",2,158,"triangle.bmp","Father","Matching","Father","Father","Father","Close","m",629,0.629,1
"519",9612,"female",21,"right","Hebrew",2,159,"circle.bmp","Father","Nonmatching","Father","Self","Self","Self","z",1127,1.127,1
"520",9612,"female",21,"right","Hebrew",2,160,"square.bmp","Father","Nonmatching","Father","Stranger","Stranger","Stranger","z",758,0.758,1
"521",9612,"female",21,"right","Hebrew",2,161,"circle.bmp","Stranger","Nonmatching","Stranger","Self","Self","Self","z",1027,1.027,1
"522",9612,"female",21,"right","Hebrew",2,162,"circle.bmp","Self","Matching","Self","Self","Self","Self","m",613,0.613,1
"523",9612,"female",21,"right","Hebrew",2,163,"square.bmp","Self","Nonmatching","Self","Stranger","Stranger","Stranger","z",745,0.745,1
"524",9612,"female",21,"right","Hebrew",2,164,"circle.bmp","Stranger","Nonmatching","Stranger","Self","Self","Self","z",1141,1.141,1
"525",9612,"female",21,"right","Hebrew",2,165,"square.bmp","Father","Nonmatching","Father","Stranger","Stranger","Stranger","z",883,0.883,1
"526",9612,"female",21,"right","Hebrew",2,166,"triangle.bmp","Self","Nonmatching","Self","Father","Father","Close","z",803,0.803,1
"527",9612,"female",21,"right","Hebrew",2,167,"circle.bmp","Self","Matching","Self","Self","Self","Self","m",599,0.599,1
"528",9612,"female",21,"right","Hebrew",2,168,"triangle.bmp","Stranger","Nonmatching","Stranger","Father","Father","Close","z",2178,2.178,1
"529",9612,"female",21,"right","Hebrew",2,169,"square.bmp","Self","Nonmatching","Self","Stranger","Stranger","Stranger","z",1574,1.574,1
"530",9612,"female",21,"right","Hebrew",2,170,"square.bmp","Stranger","Matching","Stranger","Stranger","Stranger","Stranger","m",851,0.851,1
"531",9612,"female",21,"right","Hebrew",2,171,"triangle.bmp","Father","Matching","Father","Father","Father","Close","m",660,0.66,1
"532",9612,"female",21,"right","Hebrew",2,172,"circle.bmp","Self","Matching","Self","Self","Self","Self","m",389,0.389,1
"533",9612,"female",21,"right","Hebrew",2,173,"triangle.bmp","Father","Matching","Father","Father","Father","Close","m",633,0.633,1
"534",9612,"female",21,"right","Hebrew",2,174,"triangle.bmp","Father","Matching","Father","Father","Father","Close","m",644,0.644,1
"535",9612,"female",21,"right","Hebrew",2,175,"triangle.bmp","Father","Matching","Father","Father","Father","Close","m",485,0.485,1
"536",9612,"female",21,"right","Hebrew",2,176,"square.bmp","Father","Nonmatching","Father","Stranger","Stranger","Stranger","z",854,0.854,1
"537",9612,"female",21,"right","Hebrew",2,177,"square.bmp","Stranger","Matching","Stranger","Stranger","Stranger","Stranger","m",695,0.695,1
"538",9612,"female",21,"right","Hebrew",2,178,"square.bmp","Stranger","Matching","Stranger","Stranger","Stranger","Stranger","m",631,0.631,1
"539",9612,"female",21,"right","Hebrew",2,179,"circle.bmp","Self","Matching","Self","Self","Self","Self","m",937,0.937,1
"540",9612,"female",21,"right","Hebrew",2,180,"circle.bmp","Stranger","Nonmatching","Stranger","Self","Self","Self","m",615,0.615,0
"541",9612,"female",21,"right","Hebrew",2,181,"circle.bmp","Stranger","Nonmatching","Stranger","Self","Self","Self","z",1546,1.546,1
"542",9612,"female",21,"right","Hebrew",2,182,"square.bmp","Father","Nonmatching","Father","Stranger","Stranger","Stranger","z",1512,1.512,1
"543",9612,"female",21,"right","Hebrew",2,183,"triangle.bmp","Father","Matching","Father","Father","Father","Close","m",663,0.663,1
"544",9612,"female",21,"right","Hebrew",2,184,"square.bmp","Father","Nonmatching","Father","Stranger","Stranger","Stranger","z",760,0.76,1
"545",9612,"female",21,"right","Hebrew",2,185,"triangle.bmp","Stranger","Nonmatching","Stranger","Father","Father","Close","z",837,0.837,1
"546",9612,"female",21,"right","Hebrew",2,186,"circle.bmp","Stranger","Nonmatching","Stranger","Self","Self","Self","z",823,0.823,1
"547",9612,"female",21,"right","Hebrew",2,187,"triangle.bmp","Self","Nonmatching","Self","Father","Father","Close","z",714,0.714,1
"548",9612,"female",21,"right","Hebrew",2,188,"triangle.bmp","Stranger","Nonmatching","Stranger","Father","Father","Close","z",1705,1.705,1
"549",9612,"female",21,"right","Hebrew",2,189,"circle.bmp","Self","Matching","Self","Self","Self","Self","m",616,0.616,1
"550",9612,"female",21,"right","Hebrew",2,190,"triangle.bmp","Father","Matching","Father","Father","Father","Close","m",899,0.899,1
"551",9612,"female",21,"right","Hebrew",2,191,"circle.bmp","Self","Matching","Self","Self","Self","Self","m",666,0.666,1
"552",9612,"female",21,"right","Hebrew",2,192,"triangle.bmp","Stranger","Nonmatching","Stranger","Father","Father","Close","z",1139,1.139,1
"553",9612,"female",21,"right","Hebrew",2,193,"square.bmp","Father","Nonmatching","Father","Stranger","Stranger","Stranger","z",841,0.841,1
"554",9612,"female",21,"right","Hebrew",2,194,"circle.bmp","Stranger","Nonmatching","Stranger","Self","Self","Self","z",787,0.787,1
"555",9612,"female",21,"right","Hebrew",2,195,"circle.bmp","Self","Matching","Self","Self","Self","Self","m",647,0.647,1
"556",9612,"female",21,"right","Hebrew",2,196,"circle.bmp","Self","Matching","Self","Self","Self","Self","m",512,0.512,1
"557",9612,"female",21,"right","Hebrew",2,197,"triangle.bmp","Self","Nonmatching","Self","Father","Father","Close","z",727,0.727,1
"558",9612,"female",21,"right","Hebrew",2,198,"triangle.bmp","Self","Nonmatching","Self","Father","Father","Close","z",918,0.918,1
"559",9612,"female",21,"right","Hebrew",2,199,"square.bmp","Self","Nonmatching","Self","Stranger","Stranger","Stranger","z",677,0.677,1
"560",9612,"female",21,"right","Hebrew",2,200,"square.bmp","Self","Nonmatching","Self","Stranger","Stranger","Stranger","z",709,0.709,1
"561",9612,"female",21,"right","Hebrew",2,201,"circle.bmp","Self","Matching","Self","Self","Self","Self","m",652,0.652,1
"562",9612,"female",21,"right","Hebrew",2,202,"square.bmp","Father","Nonmatching","Father","Stranger","Stranger","Stranger","z",821,0.821,1
"563",9612,"female",21,"right","Hebrew",2,203,"circle.bmp","Stranger","Nonmatching","Stranger","Self","Self","Self","z",696,0.696,1
"564",9612,"female",21,"right","Hebrew",2,204,"square.bmp","Stranger","Matching","Stranger","Stranger","Stranger","Stranger","m",1176,1.176,1
"565",9612,"female",21,"right","Hebrew",2,205,"triangle.bmp","Stranger","Nonmatching","Stranger","Father","Father","Close","z",1012,1.012,1
"566",9612,"female",21,"right","Hebrew",2,206,"triangle.bmp","Father","Matching","Father","Father","Father","Close","m",727,0.727,1
"567",9612,"female",21,"right","Hebrew",2,207,"triangle.bmp","Stranger","Nonmatching","Stranger","Father","Father","Close","m",598,0.598,0
"568",9612,"female",21,"right","Hebrew",2,208,"square.bmp","Stranger","Matching","Stranger","Stranger","Stranger","Stranger","m",898,0.898,1
"569",9612,"female",21,"right","Hebrew",2,209,"square.bmp","Father","Nonmatching","Father","Stranger","Stranger","Stranger","z",977,0.977,1
"570",9612,"female",21,"right","Hebrew",2,210,"square.bmp","Stranger","Matching","Stranger","Stranger","Stranger","Stranger","m",805,0.805,1
"571",9612,"female",21,"right","Hebrew",2,211,"square.bmp","Father","Nonmatching","Father","Stranger","Stranger","Stranger","z",1241,1.241,1
"572",9612,"female",21,"right","Hebrew",2,212,"circle.bmp","Self","Matching","Self","Self","Self","Self","m",579,0.579,1
"573",9612,"female",21,"right","Hebrew",2,213,"triangle.bmp","Father","Matching","Father","Father","Father","Close","m",535,0.535,1
"574",9612,"female",21,"right","Hebrew",2,214,"square.bmp","Stranger","Matching","Stranger","Stranger","Stranger","Stranger","m",805,0.805,1
"575",9612,"female",21,"right","Hebrew",2,215,"circle.bmp","Self","Matching","Self","Self","Self","Self","m",672,0.672,1
"576",9612,"female",21,"right","Hebrew",2,216,"triangle.bmp","Father","Matching","Father","Father","Father","Close","m",665,0.665,1
"577",9612,"female",21,"right","Hebrew",2,217,"triangle.bmp","Father","Matching","Father","Father","Father","Close","m",666,0.666,1
"578",9612,"female",21,"right","Hebrew",2,218,"triangle.bmp","Father","Matching","Father","Father","Father","Close","m",555,0.555,1
"579",9612,"female",21,"right","Hebrew",2,219,"square.bmp","Father","Nonmatching","Father","Stranger","Stranger","Stranger","z",664,0.664,1
"580",9612,"female",21,"right","Hebrew",2,220,"circle.bmp","Self","Matching","Self","Self","Self","Self","m",681,0.681,1
"581",9612,"female",21,"right","Hebrew",2,221,"circle.bmp","Self","Matching","Self","Self","Self","Self","m",689,0.689,1
"582",9612,"female",21,"right","Hebrew",2,222,"circle.bmp","Father","Nonmatching","Father","Self","Self","Self","z",969,0.969,1
"583",9612,"female",21,"right","Hebrew",2,223,"square.bmp","Self","Nonmatching","Self","Stranger","Stranger","Stranger","z",1814,1.814,1
"584",9612,"female",21,"right","Hebrew",2,224,"circle.bmp","Stranger","Nonmatching","Stranger","Self","Self","Self","z",1689,1.689,1
"585",9612,"female",21,"right","Hebrew",2,225,"triangle.bmp","Stranger","Nonmatching","Stranger","Father","Father","Close","z",1097,1.097,1
"586",9612,"female",21,"right","Hebrew",2,226,"triangle.bmp","Self","Nonmatching","Self","Father","Father","Close","z",1641,1.641,1
"587",9612,"female",21,"right","Hebrew",2,227,"triangle.bmp","Self","Nonmatching","Self","Father","Father","Close","z",1538,1.538,1
"588",9612,"female",21,"right","Hebrew",2,228,"square.bmp","Stranger","Matching","Stranger","Stranger","Stranger","Stranger","m",1800,1.8,1
"589",9612,"female",21,"right","Hebrew",2,229,"square.bmp","Stranger","Matching","Stranger","Stranger","Stranger","Stranger","m",532,0.532,1
"590",9612,"female",21,"right","Hebrew",2,230,"circle.bmp","Self","Matching","Self","Self","Self","Self","m",738,0.738,1
"591",9612,"female",21,"right","Hebrew",2,231,"triangle.bmp","Father","Matching","Father","Father","Father","Close","m",440,0.44,1
"592",9612,"female",21,"right","Hebrew",2,232,"triangle.bmp","Self","Nonmatching","Self","Father","Father","Close","z",626,0.626,1
"593",9612,"female",21,"right","Hebrew",2,233,"square.bmp","Self","Nonmatching","Self","Stranger","Stranger","Stranger","z",820,0.82,1
"594",9612,"female",21,"right","Hebrew",2,234,"square.bmp","Stranger","Matching","Stranger","Stranger","Stranger","Stranger","m",1095,1.095,1
"595",9612,"female",21,"right","Hebrew",2,235,"square.bmp","Self","Nonmatching","Self","Stranger","Stranger","Stranger","z",903,0.903,1
"596",9612,"female",21,"right","Hebrew",2,236,"triangle.bmp","Father","Matching","Father","Father","Father","Close","m",550,0.55,1
"597",9612,"female",21,"right","Hebrew",2,237,"circle.bmp","Father","Nonmatching","Father","Self","Self","Self","z",708,0.708,1
"598",9612,"female",21,"right","Hebrew",2,238,"square.bmp","Stranger","Matching","Stranger","Stranger","Stranger","Stranger","m",995,0.995,1
"599",9612,"female",21,"right","Hebrew",2,239,"triangle.bmp","Self","Nonmatching","Self","Father","Father","Close","z",1262,1.262,1
"600",9612,"female",21,"right","Hebrew",2,240,"circle.bmp","Stranger","Nonmatching","Stranger","Self","Self","Self","z",951,0.951,1
"601",9612,"female",21,"right","Hebrew",3,241,"square.bmp","Stranger","Matching","Stranger","Stranger","Stranger","Stranger","m",1156,1.156,1
"602",9612,"female",21,"right","Hebrew",3,242,"circle.bmp","Self","Matching","Self","Self","Self","Self","m",665,0.665,1
"603",9612,"female",21,"right","Hebrew",3,243,"circle.bmp","Father","Nonmatching","Father","Self","Self","Self","z",898,0.898,1
"604",9612,"female",21,"right","Hebrew",3,244,"triangle.bmp","Father","Matching","Father","Father","Father","Close","m",608,0.608,1
"605",9612,"female",21,"right","Hebrew",3,245,"triangle.bmp","Father","Matching","Father","Father","Father","Close","m",1492,1.492,1
"606",9612,"female",21,"right","Hebrew",3,246,"square.bmp","Father","Nonmatching","Father","Stranger","Stranger","Stranger","z",739,0.739,1
"607",9612,"female",21,"right","Hebrew",3,247,"circle.bmp","Self","Matching","Self","Self","Self","Self","m",665,0.665,1
"608",9612,"female",21,"right","Hebrew",3,248,"square.bmp","Father","Nonmatching","Father","Stranger","Stranger","Stranger","z",978,0.978,1
"609",9612,"female",21,"right","Hebrew",3,249,"square.bmp","Father","Nonmatching","Father","Stranger","Stranger","Stranger","z",759,0.759,1
"610",9612,"female",21,"right","Hebrew",3,250,"square.bmp","Self","Nonmatching","Self","Stranger","Stranger","Stranger","z",683,0.683,1
"611",9612,"female",21,"right","Hebrew",3,251,"circle.bmp","Stranger","Nonmatching","Stranger","Self","Self","Self","z",931,0.931,1
"612",9612,"female",21,"right","Hebrew",3,252,"triangle.bmp","Father","Matching","Father","Father","Father","Close","m",818,0.818,1
"613",9612,"female",21,"right","Hebrew",3,253,"square.bmp","Stranger","Matching","Stranger","Stranger","Stranger","Stranger","m",1220,1.22,1
"614",9612,"female",21,"right","Hebrew",3,254,"triangle.bmp","Stranger","Nonmatching","Stranger","Father","Father","Close","z",935,0.935,1
"615",9612,"female",21,"right","Hebrew",3,255,"circle.bmp","Self","Matching","Self","Self","Self","Self","m",1141,1.141,1
"616",9612,"female",21,"right","Hebrew",3,256,"square.bmp","Self","Nonmatching","Self","Stranger","Stranger","Stranger","z",771,0.771,1
"617",9612,"female",21,"right","Hebrew",3,257,"circle.bmp","Self","Matching","Self","Self","Self","Self","m",632,0.632,1
"618",9612,"female",21,"right","Hebrew",3,258,"circle.bmp","Self","Matching","Self","Self","Self","Self","m",658,0.658,1
"619",9612,"female",21,"right","Hebrew",3,259,"triangle.bmp","Father","Matching","Father","Father","Father","Close","m",707,0.707,1
"620",9612,"female",21,"right","Hebrew",3,260,"square.bmp","Stranger","Matching","Stranger","Stranger","Stranger","Stranger","m",626,0.626,1
"621",9612,"female",21,"right","Hebrew",3,261,"triangle.bmp","Father","Matching","Father","Father","Father","Close","m",956,0.956,1
"622",9612,"female",21,"right","Hebrew",3,262,"square.bmp","Self","Nonmatching","Self","Stranger","Stranger","Stranger","z",721,0.721,1
"623",9612,"female",21,"right","Hebrew",3,263,"circle.bmp","Self","Matching","Self","Self","Self","Self","m",696,0.696,1
"624",9612,"female",21,"right","Hebrew",3,264,"triangle.bmp","Stranger","Nonmatching","Stranger","Father","Father","Close","z",1992,1.992,1
"625",9612,"female",21,"right","Hebrew",3,265,"square.bmp","Stranger","Matching","Stranger","Stranger","Stranger","Stranger","m",900,0.9,1
"626",9612,"female",21,"right","Hebrew",3,266,"circle.bmp","Father","Nonmatching","Father","Self","Self","Self","z",995,0.995,1
"627",9612,"female",21,"right","Hebrew",3,267,"square.bmp","Father","Nonmatching","Father","Stranger","Stranger","Stranger","z",1271,1.271,1
"628",9612,"female",21,"right","Hebrew",3,268,"triangle.bmp","Father","Matching","Father","Father","Father","Close","m",735,0.735,1
"629",9612,"female",21,"right","Hebrew",3,269,"square.bmp","Father","Nonmatching","Father","Stranger","Stranger","Stranger","z",677,0.677,1
"630",9612,"female",21,"right","Hebrew",3,270,"circle.bmp","Father","Nonmatching","Father","Self","Self","Self","z",1884,1.884,1
"631",9612,"female",21,"right","Hebrew",3,271,"triangle.bmp","Stranger","Nonmatching","Stranger","Father","Father","Close","m",612,0.612,0
"632",9612,"female",21,"right","Hebrew",3,272,"circle.bmp","Father","Nonmatching","Father","Self","Self","Self","z",711,0.711,1
"633",9612,"female",21,"right","Hebrew",3,273,"circle.bmp","Father","Nonmatching","Father","Self","Self","Self","z",854,0.854,1
"634",9612,"female",21,"right","Hebrew",3,274,"square.bmp","Stranger","Matching","Stranger","Stranger","Stranger","Stranger","m",943,0.943,1
"635",9612,"female",21,"right","Hebrew",3,275,"triangle.bmp","Self","Nonmatching","Self","Father","Father","Close","z",773,0.773,1
"636",9612,"female",21,"right","Hebrew",3,276,"circle.bmp","Self","Matching","Self","Self","Self","Self","m",1250,1.25,1
"637",9612,"female",21,"right","Hebrew",3,277,"square.bmp","Stranger","Matching","Stranger","Stranger","Stranger","Stranger","m",819,0.819,1
"638",9612,"female",21,"right","Hebrew",3,278,"square.bmp","Stranger","Matching","Stranger","Stranger","Stranger","Stranger","m",950,0.95,1
"639",9612,"female",21,"right","Hebrew",3,279,"triangle.bmp","Stranger","Nonmatching","Stranger","Father","Father","Close","z",819,0.819,1
"640",9612,"female",21,"right","Hebrew",3,280,"circle.bmp","Self","Matching","Self","Self","Self","Self","m",758,0.758,1
"641",9612,"female",21,"right","Hebrew",3,281,"triangle.bmp","Father","Matching","Father","Father","Father","Close","m",1219,1.219,1
"642",9612,"female",21,"right","Hebrew",3,282,"square.bmp","Self","Nonmatching","Self","Stranger","Stranger","Stranger","z",998,0.998,1
"643",9612,"female",21,"right","Hebrew",3,283,"square.bmp","Self","Nonmatching","Self","Stranger","Stranger","Stranger","z",945,0.945,1
"644",9612,"female",21,"right","Hebrew",3,284,"triangle.bmp","Self","Nonmatching","Self","Father","Father","Close","z",887,0.887,1
"645",9612,"female",21,"right","Hebrew",3,285,"circle.bmp","Father","Nonmatching","Father","Self","Self","Self","z",711,0.711,1
"646",9612,"female",21,"right","Hebrew",3,286,"square.bmp","Stranger","Matching","Stranger","Stranger","Stranger","Stranger","m",822,0.822,1
"647",9612,"female",21,"right","Hebrew",3,287,"square.bmp","Stranger","Matching","Stranger","Stranger","Stranger","Stranger","m",713,0.713,1
"648",9612,"female",21,"right","Hebrew",3,288,"square.bmp","Stranger","Matching","Stranger","Stranger","Stranger","Stranger","m",616,0.616,1
"649",9612,"female",21,"right","Hebrew",3,289,"square.bmp","Stranger","Matching","Stranger","Stranger","Stranger","Stranger","m",611,0.611,1
"650",9612,"female",21,"right","Hebrew",3,290,"triangle.bmp","Self","Nonmatching","Self","Father","Father","Close","z",1206,1.206,1
"651",9612,"female",21,"right","Hebrew",3,291,"circle.bmp","Self","Matching","Self","Self","Self","Self","m",761,0.761,1
"652",9612,"female",21,"right","Hebrew",3,292,"square.bmp","Self","Nonmatching","Self","Stranger","Stranger","Stranger","z",615,0.615,1
"653",9612,"female",21,"right","Hebrew",3,293,"circle.bmp","Self","Matching","Self","Self","Self","Self","m",618,0.618,1
"654",9612,"female",21,"right","Hebrew",3,294,"square.bmp","Stranger","Matching","Stranger","Stranger","Stranger","Stranger","m",908,0.908,1
"655",9612,"female",21,"right","Hebrew",3,295,"triangle.bmp","Self","Nonmatching","Self","Father","Father","Close","z",899,0.899,1
"656",9612,"female",21,"right","Hebrew",3,296,"square.bmp","Self","Nonmatching","Self","Stranger","Stranger","Stranger","z",835,0.835,1
"657",9612,"female",21,"right","Hebrew",3,297,"circle.bmp","Father","Nonmatching","Father","Self","Self","Self","z",900,0.9,1
"658",9612,"female",21,"right","Hebrew",3,298,"square.bmp","Stranger","Matching","Stranger","Stranger","Stranger","Stranger","m",883,0.883,1
"659",9612,"female",21,"right","Hebrew",3,299,"triangle.bmp","Father","Matching","Father","Father","Father","Close","m",787,0.787,1
"660",9612,"female",21,"right","Hebrew",3,300,"circle.bmp","Stranger","Nonmatching","Stranger","Self","Self","Self","z",775,0.775,1
"661",9612,"female",21,"right","Hebrew",3,301,"circle.bmp","Stranger","Nonmatching","Stranger","Self","Self","Self","z",900,0.9,1
"662",9612,"female",21,"right","Hebrew",3,302,"square.bmp","Self","Nonmatching","Self","Stranger","Stranger","Stranger","z",595,0.595,1
"663",9612,"female",21,"right","Hebrew",3,303,"triangle.bmp","Father","Matching","Father","Father","Father","Close","m",631,0.631,1
"664",9612,"female",21,"right","Hebrew",3,304,"circle.bmp","Self","Matching","Self","Self","Self","Self","m",753,0.753,1
"665",9612,"female",21,"right","Hebrew",3,305,"square.bmp","Father","Nonmatching","Father","Stranger","Stranger","Stranger","z",759,0.759,1
"666",9612,"female",21,"right","Hebrew",3,306,"triangle.bmp","Father","Matching","Father","Father","Father","Close","m",900,0.9,1
"667",9612,"female",21,"right","Hebrew",3,307,"triangle.bmp","Stranger","Nonmatching","Stranger","Father","Father","Close","z",1123,1.123,1
"668",9612,"female",21,"right","Hebrew",3,308,"triangle.bmp","Self","Nonmatching","Self","Father","Father","Close","z",834,0.834,1
"669",9612,"female",21,"right","Hebrew",3,309,"square.bmp","Stranger","Matching","Stranger","Stranger","Stranger","Stranger","m",1204,1.204,1
"670",9612,"female",21,"right","Hebrew",3,310,"triangle.bmp","Self","Nonmatching","Self","Father","Father","Close","z",1623,1.623,1
"671",9612,"female",21,"right","Hebrew",3,311,"circle.bmp","Stranger","Nonmatching","Stranger","Self","Self","Self","z",1354,1.354,1
"672",9612,"female",21,"right","Hebrew",3,312,"square.bmp","Father","Nonmatching","Father","Stranger","Stranger","Stranger","z",1127,1.127,1
"673",9612,"female",21,"right","Hebrew",3,313,"square.bmp","Stranger","Matching","Stranger","Stranger","Stranger","Stranger","m",758,0.758,1
"674",9612,"female",21,"right","Hebrew",3,314,"triangle.bmp","Father","Matching","Father","Father","Father","Close","m",931,0.931,1
"675",9612,"female",21,"right","Hebrew",3,315,"triangle.bmp","Stranger","Nonmatching","Stranger","Father","Father","Close","z",1753,1.753,1
"676",9612,"female",21,"right","Hebrew",3,316,"circle.bmp","Stranger","Nonmatching","Stranger","Self","Self","Self","z",734,0.734,1
"677",9612,"female",21,"right","Hebrew",3,317,"circle.bmp","Self","Matching","Self","Self","Self","Self","m",532,0.532,1
"678",9612,"female",21,"right","Hebrew",3,318,"triangle.bmp","Father","Matching","Father","Father","Father","Close","m",1042,1.042,1
"679",9612,"female",21,"right","Hebrew",3,319,"triangle.bmp","Father","Matching","Father","Father","Father","Close","m",548,0.548,1
"680",9612,"female",21,"right","Hebrew",3,320,"triangle.bmp","Father","Matching","Father","Father","Father","Close","m",602,0.602,1
"681",9612,"female",21,"right","Hebrew",3,321,"circle.bmp","Self","Matching","Self","Self","Self","Self","m",966,0.966,1
"682",9612,"female",21,"right","Hebrew",3,322,"circle.bmp","Father","Nonmatching","Father","Self","Self","Self","z",866,0.866,1
"683",9612,"female",21,"right","Hebrew",3,323,"circle.bmp","Father","Nonmatching","Father","Self","Self","Self","z",787,0.787,1
"684",9612,"female",21,"right","Hebrew",3,324,"circle.bmp","Self","Matching","Self","Self","Self","Self","m",662,0.662,1
"685",9612,"female",21,"right","Hebrew",3,325,"square.bmp","Father","Nonmatching","Father","Stranger","Stranger","Stranger","z",1063,1.063,1
"686",9612,"female",21,"right","Hebrew",3,326,"circle.bmp","Stranger","Nonmatching","Stranger","Self","Self","Self","z",1192,1.192,1
"687",9612,"female",21,"right","Hebrew",3,327,"circle.bmp","Stranger","Nonmatching","Stranger","Self","Self","Self","z",740,0.74,1
"688",9612,"female",21,"right","Hebrew",3,328,"square.bmp","Self","Nonmatching","Self","Stranger","Stranger","Stranger","z",962,0.962,1
"689",9612,"female",21,"right","Hebrew",3,329,"circle.bmp","Self","Matching","Self","Self","Self","Self","m",839,0.839,1
"690",9612,"female",21,"right","Hebrew",3,330,"triangle.bmp","Father","Matching","Father","Father","Father","Close","m",713,0.713,1
"691",9612,"female",21,"right","Hebrew",3,331,"triangle.bmp","Father","Matching","Father","Father","Father","Close","m",616,0.616,1
"692",9612,"female",21,"right","Hebrew",3,332,"circle.bmp","Stranger","Nonmatching","Stranger","Self","Self","Self","z",979,0.979,1
"693",9612,"female",21,"right","Hebrew",3,333,"circle.bmp","Stranger","Nonmatching","Stranger","Self","Self","Self","z",615,0.615,1
"694",9612,"female",21,"right","Hebrew",3,334,"triangle.bmp","Stranger","Nonmatching","Stranger","Father","Father","Close","z",754,0.754,1
"695",9612,"female",21,"right","Hebrew",3,335,"triangle.bmp","Father","Matching","Father","Father","Father","Close","m",744,0.744,1
"696",9612,"female",21,"right","Hebrew",3,336,"triangle.bmp","Self","Nonmatching","Self","Father","Father","Close","z",845,0.845,1
"697",9612,"female",21,"right","Hebrew",3,337,"circle.bmp","Father","Nonmatching","Father","Self","Self","Self","z",823,0.823,1
"698",9612,"female",21,"right","Hebrew",3,338,"triangle.bmp","Self","Nonmatching","Self","Father","Father","Close","z",762,0.762,1
"699",9612,"female",21,"right","Hebrew",3,339,"square.bmp","Father","Nonmatching","Father","Stranger","Stranger","Stranger","z",1319,1.319,1
"700",9612,"female",21,"right","Hebrew",3,340,"triangle.bmp","Stranger","Nonmatching","Stranger","Father","Father","Close","m",717,0.717,0
"701",9612,"female",21,"right","Hebrew",3,341,"circle.bmp","Self","Matching","Self","Self","Self","Self","m",756,0.756,1
"702",9612,"female",21,"right","Hebrew",3,342,"square.bmp","Stranger","Matching","Stranger","Stranger","Stranger","Stranger","m",1001,1.001,1
"703",9612,"female",21,"right","Hebrew",3,343,"square.bmp","Stranger","Matching","Stranger","Stranger","Stranger","Stranger","m",1028,1.028,1
"704",9612,"female",21,"right","Hebrew",3,344,"triangle.bmp","Father","Matching","Father","Father","Father","Close","m",839,0.839,1
"705",9612,"female",21,"right","Hebrew",3,345,"circle.bmp","Self","Matching","Self","Self","Self","Self","m",440,0.44,1
"706",9612,"female",21,"right","Hebrew",3,346,"triangle.bmp","Father","Matching","Father","Father","Father","Close","m",811,0.811,1
"707",9612,"female",21,"right","Hebrew",3,347,"circle.bmp","Self","Matching","Self","Self","Self","Self","m",710,0.71,1
"708",9612,"female",21,"right","Hebrew",3,348,"square.bmp","Self","Nonmatching","Self","Stranger","Stranger","Stranger","z",773,0.773,1
"709",9612,"female",21,"right","Hebrew",3,349,"circle.bmp","Self","Matching","Self","Self","Self","Self","m",961,0.961,1
"710",9612,"female",21,"right","Hebrew",3,350,"circle.bmp","Self","Matching","Self","Self","Self","Self","m",766,0.766,1
"711",9612,"female",21,"right","Hebrew",3,351,"square.bmp","Father","Nonmatching","Father","Stranger","Stranger","Stranger","z",626,0.626,1
"712",9612,"female",21,"right","Hebrew",3,352,"square.bmp","Stranger","Matching","Stranger","Stranger","Stranger","Stranger","m",868,0.868,1
"713",9612,"female",21,"right","Hebrew",3,353,"triangle.bmp","Stranger","Nonmatching","Stranger","Father","Father","Close","m",677,0.677,0
"714",9612,"female",21,"right","Hebrew",3,354,"circle.bmp","Stranger","Nonmatching","Stranger","Self","Self","Self","z",773,0.773,1
"715",9612,"female",21,"right","Hebrew",3,355,"triangle.bmp","Stranger","Nonmatching","Stranger","Father","Father","Close","z",642,0.642,1
"716",9612,"female",21,"right","Hebrew",3,356,"triangle.bmp","Father","Matching","Father","Father","Father","Close","m",547,0.547,1
"717",9612,"female",21,"right","Hebrew",3,357,"square.bmp","Stranger","Matching","Stranger","Stranger","Stranger","Stranger","m",793,0.793,1
"718",9612,"female",21,"right","Hebrew",3,358,"square.bmp","Stranger","Matching","Stranger","Stranger","Stranger","Stranger","m",661,0.661,1
"719",9612,"female",21,"right","Hebrew",3,359,"triangle.bmp","Self","Nonmatching","Self","Father","Father","Close","z",1126,1.126,1
"720",9612,"female",21,"right","Hebrew",3,360,"triangle.bmp","Self","Nonmatching","Self","Father","Father","Close","z",916,0.916,1
"721",9702,"male",34,"right","Hebrew",1,1,"circle.bmp","Self","Matching","Self","Self","Self","Self","z",1700,1.7,1
"722",9702,"male",34,"right","Hebrew",1,2,"circle.bmp","Self","Matching","Self","Self","Self","Self","z",1577,1.577,1
"723",9702,"male",34,"right","Hebrew",1,3,"circle.bmp","Self","Matching","Self","Self","Self","Self","z",1018,1.018,1
"724",9702,"male",34,"right","Hebrew",1,4,"triangle.bmp","Father","Matching","Father","Father","Father","Close","m",955,0.955,0
"725",9702,"male",34,"right","Hebrew",1,5,"square.bmp","Self","Nonmatching","Self","Stranger","Stranger","Stranger","m",1375,1.375,1
"726",9702,"male",34,"right","Hebrew",1,6,"square.bmp","Father","Nonmatching","Father","Stranger","Stranger","Stranger","m",1306,1.306,1
"727",9702,"male",34,"right","Hebrew",1,7,"circle.bmp","Father","Nonmatching","Father","Self","Self","Self","m",1087,1.087,1
"728",9702,"male",34,"right","Hebrew",1,8,"triangle.bmp","Stranger","Nonmatching","Stranger","Father","Father","Close","m",1797,1.797,1
"729",9702,"male",34,"right","Hebrew",1,9,"circle.bmp","Self","Matching","Self","Self","Self","Self","z",806,0.806,1
"730",9702,"male",34,"right","Hebrew",1,10,"circle.bmp","Stranger","Nonmatching","Stranger","Self","Self","Self","m",952,0.952,1
"731",9702,"male",34,"right","Hebrew",1,11,"triangle.bmp","Father","Matching","Father","Father","Father","Close","z",1083,1.083,1
"732",9702,"male",34,"right","Hebrew",1,12,"circle.bmp","Father","Nonmatching","Father","Self","Self","Self","m",746,0.746,1
"733",9702,"male",34,"right","Hebrew",1,13,"square.bmp","Father","Nonmatching","Father","Stranger","Stranger","Stranger","m",1703,1.703,1
"734",9702,"male",34,"right","Hebrew",1,14,"circle.bmp","Stranger","Nonmatching","Stranger","Self","Self","Self","m",967,0.967,1
"735",9702,"male",34,"right","Hebrew",1,15,"circle.bmp","Stranger","Nonmatching","Stranger","Self","Self","Self","m",924,0.924,1
"736",9702,"male",34,"right","Hebrew",1,16,"circle.bmp","Stranger","Nonmatching","Stranger","Self","Self","Self","m",626,0.626,1
"737",9702,"male",34,"right","Hebrew",1,17,"circle.bmp","Self","Matching","Self","Self","Self","Self","z",805,0.805,1
"738",9702,"male",34,"right","Hebrew",1,18,"triangle.bmp","Father","Matching","Father","Father","Father","Close","z",1128,1.128,1
"739",9702,"male",34,"right","Hebrew",1,19,"square.bmp","Stranger","Matching","Stranger","Stranger","Stranger","Stranger","z",1335,1.335,1
"740",9702,"male",34,"right","Hebrew",1,20,"square.bmp","Self","Nonmatching","Self","Stranger","Stranger","Stranger","m",853,0.853,1
"741",9702,"male",34,"right","Hebrew",1,21,"triangle.bmp","Father","Matching","Father","Father","Father","Close","z",917,0.917,1
"742",9702,"male",34,"right","Hebrew",1,22,"square.bmp","Stranger","Matching","Stranger","Stranger","Stranger","Stranger","z",1444,1.444,1
"743",9702,"male",34,"right","Hebrew",1,23,"triangle.bmp","Father","Matching","Father","Father","Father","Close","z",1238,1.238,1
"744",9702,"male",34,"right","Hebrew",1,24,"square.bmp","Father","Nonmatching","Father","Stranger","Stranger","Stranger","m",696,0.696,1
"745",9702,"male",34,"right","Hebrew",1,25,"triangle.bmp","Stranger","Nonmatching","Stranger","Father","Father","Close","m",983,0.983,1
"746",9702,"male",34,"right","Hebrew",1,26,"triangle.bmp","Self","Nonmatching","Self","Father","Father","Close","m",764,0.764,1
"747",9702,"male",34,"right","Hebrew",1,27,"circle.bmp","Self","Matching","Self","Self","Self","Self","z",697,0.697,1
"748",9702,"male",34,"right","Hebrew",1,28,"square.bmp","Self","Nonmatching","Self","Stranger","Stranger","Stranger","m",697,0.697,1
"749",9702,"male",34,"right","Hebrew",1,29,"square.bmp","Self","Nonmatching","Self","Stranger","Stranger","Stranger","m",713,0.713,1
"750",9702,"male",34,"right","Hebrew",1,30,"triangle.bmp","Father","Matching","Father","Father","Father","Close","z",808,0.808,1
"751",9702,"male",34,"right","Hebrew",1,31,"square.bmp","Father","Nonmatching","Father","Stranger","Stranger","Stranger","m",667,0.667,1
"752",9702,"male",34,"right","Hebrew",1,32,"square.bmp","Self","Nonmatching","Self","Stranger","Stranger","Stranger","m",828,0.828,1
