"","Subject","Age","Gender","Handedness","Block","Trial","Shape","Label","Matching","Origin_Identity","English_Identity","Standarlized_Identity","Response","RT_ms","RT_sec","ACC"
"1",14,25,"male","right",1,1,"Tra.bmp","你","Matching","你","Self","Self",2,914,0.914,1
"2",14,25,"male","right",1,2,"D.bmp","生人","Matching","生人","Stranger","Stranger",1,882,0.882,0
"3",14,25,"male","right",1,3,"D.bmp","生人","Matching","生人","Stranger","Stranger",NA,0,0,0
"4",14,25,"male","right",1,4,"D.bmp","生人","Matching","生人","Stranger","Stranger",2,892,0.892,1
"5",14,25,"male","right",1,5,"Tra.bmp","你","Matching","你","Self","Self",2,685,0.685,1
"6",14,25,"male","right",1,6,"D.bmp","生人","Matching","生人","Stranger","Stranger",2,829,0.829,1
"7",14,25,"male","right",1,7,"D.bmp","你","Nonmatching","生人","Stranger","Stranger",1,950,0.95,1
"8",14,25,"male","right",1,8,"D.bmp","你","Nonmatching","生人","Stranger","Stranger",NA,0,0,0
"9",14,25,"male","right",1,9,"Tra.bmp","你","Matching","你","Self","Self",2,684,0.684,1
"10",14,25,"male","right",1,10,"D.bmp","生人","Matching","生人","Stranger","Stranger",2,892,0.892,1
"11",14,25,"male","right",1,11,"Tra.bmp","你","Matching","你","Self","Self",2,702,0.702,1
"12",14,25,"male","right",1,12,"Tra.bmp","生人","Nonmatching","你","Self","Self",1,863,0.863,1
"13",14,25,"male","right",1,13,"D.bmp","生人","Matching","生人","Stranger","Stranger",2,783,0.783,1
"14",14,25,"male","right",1,14,"Tra.bmp","你","Matching","你","Self","Self",2,671,0.671,1
"15",14,25,"male","right",1,15,"Tra.bmp","生人","Nonmatching","你","Self","Self",1,959,0.959,1
"16",14,25,"male","right",1,16,"Tra.bmp","你","Matching","你","Self","Self",2,583,0.583,1
"17",14,25,"male","right",2,17,"D.bmp","生人","Matching","生人","Stranger","Stranger",2,887,0.887,1
"18",14,25,"male","right",2,18,"D.bmp","生人","Matching","生人","Stranger","Stranger",2,721,0.721,1
"19",14,25,"male","right",2,19,"D.bmp","生人","Matching","生人","Stranger","Stranger",2,706,0.706,1
"20",14,25,"male","right",2,20,"D.bmp","你","Nonmatching","生人","Stranger","Stranger",1,962,0.962,1
"21",14,25,"male","right",2,21,"D.bmp","生人","Matching","生人","Stranger","Stranger",2,794,0.794,1
"22",14,25,"male","right",2,22,"Tra.bmp","你","Matching","你","Self","Self",2,514,0.514,1
"23",14,25,"male","right",2,23,"D.bmp","生人","Matching","生人","Stranger","Stranger",2,858,0.858,1
"24",14,25,"male","right",2,24,"Tra.bmp","你","Matching","你","Self","Self",2,698,0.698,1
"25",14,25,"male","right",2,25,"D.bmp","你","Nonmatching","生人","Stranger","Stranger",1,899,0.899,1
"26",14,25,"male","right",2,26,"D.bmp","生人","Matching","生人","Stranger","Stranger",2,795,0.795,1
"27",14,25,"male","right",2,27,"Tra.bmp","你","Matching","你","Self","Self",2,755,0.755,1
"28",14,25,"male","right",2,28,"Tra.bmp","你","Matching","你","Self","Self",2,570,0.57,1
"29",14,25,"male","right",2,29,"Tra.bmp","生人","Nonmatching","你","Self","Self",1,882,0.882,1
"30",14,25,"male","right",2,30,"Tra.bmp","生人","Nonmatching","你","Self","Self",1,850,0.85,1
"31",14,25,"male","right",2,31,"Tra.bmp","你","Matching","你","Self","Self",2,698,0.698,1
"32",14,25,"male","right",2,32,"Tra.bmp","你","Matching","你","Self","Self",2,962,0.962,1
"33",14,25,"male","right",3,33,"Tra.bmp","你","Matching","你","Self","Self",2,604,0.604,1
"34",14,25,"male","right",3,34,"Tra.bmp","生人","Nonmatching","你","Self","Self",1,749,0.749,1
"35",14,25,"male","right",3,35,"Tra.bmp","你","Matching","你","Self","Self",2,677,0.677,1
"36",14,25,"male","right",3,36,"Tra.bmp","你","Matching","你","Self","Self",2,653,0.653,1
"37",14,25,"male","right",3,37,"D.bmp","生人","Matching","生人","Stranger","Stranger",2,805,0.805,1
"38",14,25,"male","right",3,38,"D.bmp","生人","Matching","生人","Stranger","Stranger",2,1053,1.053,1
"39",14,25,"male","right",3,39,"D.bmp","生人","Matching","生人","Stranger","Stranger",2,517,0.517,1
"40",14,25,"male","right",3,40,"D.bmp","生人","Matching","生人","Stranger","Stranger",2,615,0.615,1
"41",14,25,"male","right",3,41,"D.bmp","你","Nonmatching","生人","Stranger","Stranger",2,592,0.592,0
"42",14,25,"male","right",3,42,"Tra.bmp","生人","Nonmatching","你","Self","Self",1,848,0.848,1
"43",14,25,"male","right",3,43,"D.bmp","生人","Matching","生人","Stranger","Stranger",2,808,0.808,1
"44",14,25,"male","right",3,44,"Tra.bmp","你","Matching","你","Self","Self",2,712,0.712,1
"45",14,25,"male","right",3,45,"Tra.bmp","你","Matching","你","Self","Self",2,496,0.496,1
"46",14,25,"male","right",3,46,"Tra.bmp","你","Matching","你","Self","Self",2,559,0.559,1
"47",14,25,"male","right",3,47,"D.bmp","生人","Matching","生人","Stranger","Stranger",2,832,0.832,1
"48",14,25,"male","right",3,48,"D.bmp","你","Nonmatching","生人","Stranger","Stranger",2,504,0.504,0
"49",14,25,"male","right",4,49,"Tra.bmp","生人","Nonmatching","你","Self","Self",1,842,0.842,1
"50",14,25,"male","right",4,50,"D.bmp","生人","Matching","生人","Stranger","Stranger",2,874,0.874,1
"51",14,25,"male","right",4,51,"Tra.bmp","你","Matching","你","Self","Self",2,594,0.594,1
"52",14,25,"male","right",4,52,"Tra.bmp","生人","Nonmatching","你","Self","Self",1,740,0.74,1
"53",14,25,"male","right",4,53,"D.bmp","生人","Matching","生人","Stranger","Stranger",2,685,0.685,1
"54",14,25,"male","right",4,54,"Tra.bmp","你","Matching","你","Self","Self",2,789,0.789,1
"55",14,25,"male","right",4,55,"D.bmp","你","Nonmatching","生人","Stranger","Stranger",1,661,0.661,1
"56",14,25,"male","right",4,56,"D.bmp","生人","Matching","生人","Stranger","Stranger",2,789,0.789,1
"57",14,25,"male","right",4,57,"D.bmp","你","Nonmatching","生人","Stranger","Stranger",1,773,0.773,1
"58",14,25,"male","right",4,58,"Tra.bmp","你","Matching","你","Self","Self",2,565,0.565,1
"59",14,25,"male","right",4,59,"Tra.bmp","你","Matching","你","Self","Self",2,726,0.726,1
"60",14,25,"male","right",4,60,"D.bmp","生人","Matching","生人","Stranger","Stranger",2,1007,1.007,1
"61",14,25,"male","right",4,61,"D.bmp","生人","Matching","生人","Stranger","Stranger",2,592,0.592,1
"62",14,25,"male","right",4,62,"Tra.bmp","你","Matching","你","Self","Self",2,680,0.68,1
"63",14,25,"male","right",4,63,"Tra.bmp","你","Matching","你","Self","Self",2,577,0.577,1
"64",14,25,"male","right",4,64,"D.bmp","生人","Matching","生人","Stranger","Stranger",2,855,0.855,1
"65",14,25,"male","right",5,65,"D.bmp","生人","Matching","生人","Stranger","Stranger",2,591,0.591,1
"66",14,25,"male","right",5,66,"Tra.bmp","你","Matching","你","Self","Self",2,479,0.479,1
"67",14,25,"male","right",5,67,"D.bmp","生人","Matching","生人","Stranger","Stranger",2,721,0.721,1
"68",14,25,"male","right",5,68,"D.bmp","你","Nonmatching","生人","Stranger","Stranger",1,730,0.73,1
"69",14,25,"male","right",5,69,"Tra.bmp","你","Matching","你","Self","Self",2,546,0.546,1
"70",14,25,"male","right",5,70,"Tra.bmp","你","Matching","你","Self","Self",2,538,0.538,1
"71",14,25,"male","right",5,71,"Tra.bmp","你","Matching","你","Self","Self",2,482,0.482,1
"72",14,25,"male","right",5,72,"D.bmp","生人","Matching","生人","Stranger","Stranger",1,730,0.73,0
"73",14,25,"male","right",5,73,"Tra.bmp","生人","Nonmatching","你","Self","Self",1,946,0.946,1
"74",14,25,"male","right",5,74,"Tra.bmp","生人","Nonmatching","你","Self","Self",1,812,0.812,1
"75",14,25,"male","right",5,75,"D.bmp","你","Nonmatching","生人","Stranger","Stranger",2,655,0.655,0
"76",14,25,"male","right",5,76,"D.bmp","生人","Matching","生人","Stranger","Stranger",2,743,0.743,1
"77",14,25,"male","right",5,77,"Tra.bmp","你","Matching","你","Self","Self",2,607,0.607,1
"78",14,25,"male","right",5,78,"D.bmp","生人","Matching","生人","Stranger","Stranger",2,783,0.783,1
"79",14,25,"male","right",5,79,"Tra.bmp","你","Matching","你","Self","Self",2,639,0.639,1
"80",14,25,"male","right",5,80,"D.bmp","生人","Matching","生人","Stranger","Stranger",2,823,0.823,1
"81",14,25,"male","right",6,81,"D.bmp","生人","Matching","生人","Stranger","Stranger",2,712,0.712,1
"82",14,25,"male","right",6,82,"Tra.bmp","你","Matching","你","Self","Self",2,655,0.655,1
"83",14,25,"male","right",6,83,"D.bmp","生人","Matching","生人","Stranger","Stranger",2,679,0.679,1
"84",14,25,"male","right",6,84,"D.bmp","生人","Matching","生人","Stranger","Stranger",2,615,0.615,1
"85",14,25,"male","right",6,85,"Tra.bmp","你","Matching","你","Self","Self",2,671,0.671,1
"86",14,25,"male","right",6,86,"Tra.bmp","你","Matching","你","Self","Self",2,567,0.567,1
"87",14,25,"male","right",6,87,"D.bmp","你","Nonmatching","生人","Stranger","Stranger",1,775,0.775,1
"88",14,25,"male","right",6,88,"D.bmp","生人","Matching","生人","Stranger","Stranger",2,888,0.888,1
"89",14,25,"male","right",6,89,"D.bmp","生人","Matching","生人","Stranger","Stranger",2,737,0.737,1
"90",14,25,"male","right",6,90,"D.bmp","生人","Matching","生人","Stranger","Stranger",2,570,0.57,1
"91",14,25,"male","right",6,91,"D.bmp","你","Nonmatching","生人","Stranger","Stranger",1,810,0.81,1
"92",14,25,"male","right",6,92,"Tra.bmp","你","Matching","你","Self","Self",2,594,0.594,1
"93",14,25,"male","right",6,93,"Tra.bmp","生人","Nonmatching","你","Self","Self",NA,0,0,0
"94",14,25,"male","right",6,94,"Tra.bmp","你","Matching","你","Self","Self",2,530,0.53,1
"95",14,25,"male","right",6,95,"Tra.bmp","你","Matching","你","Self","Self",2,482,0.482,1
"96",14,25,"male","right",6,96,"Tra.bmp","生人","Nonmatching","你","Self","Self",1,883,0.883,1
"97",15,21,"female","right",1,1,"Tra.bmp","生人","Nonmatching","你","Self","Self",2,753,0.753,1
"98",15,21,"female","right",1,2,"P.bmp","生人","Matching","生人","Stranger","Stranger",1,1089,1.089,1
"99",15,21,"female","right",1,3,"Tra.bmp","你","Matching","你","Self","Self",1,601,0.601,1
"100",15,21,"female","right",1,4,"P.bmp","生人","Matching","生人","Stranger","Stranger",1,779,0.779,1
"101",15,21,"female","right",1,5,"P.bmp","你","Nonmatching","生人","Stranger","Stranger",NA,0,0,0
"102",15,21,"female","right",1,6,"P.bmp","你","Nonmatching","生人","Stranger","Stranger",NA,0,0,0
"103",15,21,"female","right",1,7,"Tra.bmp","你","Matching","你","Self","Self",1,561,0.561,1
"104",15,21,"female","right",1,8,"P.bmp","生人","Matching","生人","Stranger","Stranger",1,563,0.563,1
"105",15,21,"female","right",1,9,"Tra.bmp","生人","Nonmatching","你","Self","Self",2,812,0.812,1
"106",15,21,"female","right",1,10,"Tra.bmp","你","Matching","你","Self","Self",1,732,0.732,1
"107",15,21,"female","right",1,11,"P.bmp","生人","Matching","生人","Stranger","Stranger",1,516,0.516,1
"108",15,21,"female","right",1,12,"Tra.bmp","你","Matching","你","Self","Self",1,476,0.476,1
"109",15,21,"female","right",1,13,"Tra.bmp","你","Matching","你","Self","Self",1,812,0.812,1
"110",15,21,"female","right",1,14,"Tra.bmp","你","Matching","你","Self","Self",1,644,0.644,1
"111",15,21,"female","right",1,15,"P.bmp","生人","Matching","生人","Stranger","Stranger",1,526,0.526,1
"112",15,21,"female","right",1,16,"P.bmp","生人","Matching","生人","Stranger","Stranger",1,591,0.591,1
"113",15,21,"female","right",2,17,"P.bmp","生人","Matching","生人","Stranger","Stranger",1,486,0.486,1
"114",15,21,"female","right",2,18,"Tra.bmp","你","Matching","你","Self","Self",1,766,0.766,1
"115",15,21,"female","right",2,19,"Tra.bmp","你","Matching","你","Self","Self",1,518,0.518,1
"116",15,21,"female","right",2,20,"Tra.bmp","你","Matching","你","Self","Self",2,622,0.622,0
"117",15,21,"female","right",2,21,"P.bmp","生人","Matching","生人","Stranger","Stranger",1,654,0.654,1
"118",15,21,"female","right",2,22,"Tra.bmp","你","Matching","你","Self","Self",1,712,0.712,1
"119",15,21,"female","right",2,23,"Tra.bmp","生人","Nonmatching","你","Self","Self",2,961,0.961,1
"120",15,21,"female","right",2,24,"Tra.bmp","生人","Nonmatching","你","Self","Self",2,793,0.793,1
"121",15,21,"female","right",2,25,"P.bmp","生人","Matching","生人","Stranger","Stranger",1,665,0.665,1
"122",15,21,"female","right",2,26,"P.bmp","生人","Matching","生人","Stranger","Stranger",1,569,0.569,1
"123",15,21,"female","right",2,27,"Tra.bmp","你","Matching","你","Self","Self",1,593,0.593,1
"124",15,21,"female","right",2,28,"P.bmp","生人","Matching","生人","Stranger","Stranger",1,649,0.649,1
"125",15,21,"female","right",2,29,"P.bmp","生人","Matching","生人","Stranger","Stranger",1,714,0.714,1
"126",15,21,"female","right",2,30,"P.bmp","你","Nonmatching","生人","Stranger","Stranger",2,738,0.738,1
"127",15,21,"female","right",2,31,"Tra.bmp","你","Matching","你","Self","Self",1,482,0.482,1
"128",15,21,"female","right",2,32,"P.bmp","你","Nonmatching","生人","Stranger","Stranger",2,714,0.714,1
"129",15,21,"female","right",3,33,"Tra.bmp","你","Matching","你","Self","Self",1,586,0.586,1
"130",15,21,"female","right",3,34,"Tra.bmp","你","Matching","你","Self","Self",1,602,0.602,1
"131",15,21,"female","right",3,35,"P.bmp","生人","Matching","生人","Stranger","Stranger",1,921,0.921,1
"132",15,21,"female","right",3,36,"P.bmp","生人","Matching","生人","Stranger","Stranger",1,649,0.649,1
"133",15,21,"female","right",3,37,"Tra.bmp","你","Matching","你","Self","Self",1,660,0.66,1
"134",15,21,"female","right",3,38,"Tra.bmp","你","Matching","你","Self","Self",1,684,0.684,1
"135",15,21,"female","right",3,39,"Tra.bmp","你","Matching","你","Self","Self",1,508,0.508,1
"136",15,21,"female","right",3,40,"P.bmp","你","Nonmatching","生人","Stranger","Stranger",2,924,0.924,1
"137",15,21,"female","right",3,41,"P.bmp","生人","Matching","生人","Stranger","Stranger",1,604,0.604,1
"138",15,21,"female","right",3,42,"Tra.bmp","你","Matching","你","Self","Self",1,644,0.644,1
"139",15,21,"female","right",3,43,"P.bmp","生人","Matching","生人","Stranger","Stranger",1,724,0.724,1
"140",15,21,"female","right",3,44,"Tra.bmp","生人","Nonmatching","你","Self","Self",2,829,0.829,1
"141",15,21,"female","right",3,45,"P.bmp","生人","Matching","生人","Stranger","Stranger",1,733,0.733,1
"142",15,21,"female","right",3,46,"P.bmp","你","Nonmatching","生人","Stranger","Stranger",2,709,0.709,1
"143",15,21,"female","right",3,47,"Tra.bmp","生人","Nonmatching","你","Self","Self",2,837,0.837,1
"144",15,21,"female","right",3,48,"P.bmp","生人","Matching","生人","Stranger","Stranger",1,781,0.781,1
"145",15,21,"female","right",4,49,"P.bmp","生人","Matching","生人","Stranger","Stranger",1,633,0.633,1
"146",15,21,"female","right",4,50,"P.bmp","生人","Matching","生人","Stranger","Stranger",1,777,0.777,1
"147",15,21,"female","right",4,51,"Tra.bmp","你","Matching","你","Self","Self",1,425,0.425,1
"148",15,21,"female","right",4,52,"P.bmp","生人","Matching","生人","Stranger","Stranger",1,547,0.547,1
"149",15,21,"female","right",4,53,"P.bmp","你","Nonmatching","生人","Stranger","Stranger",2,716,0.716,1
"150",15,21,"female","right",4,54,"Tra.bmp","你","Matching","你","Self","Self",1,588,0.588,1
"151",15,21,"female","right",4,55,"Tra.bmp","你","Matching","你","Self","Self",1,532,0.532,1
"152",15,21,"female","right",4,56,"P.bmp","生人","Matching","生人","Stranger","Stranger",1,492,0.492,1
"153",15,21,"female","right",4,57,"P.bmp","生人","Matching","生人","Stranger","Stranger",1,564,0.564,1
"154",15,21,"female","right",4,58,"Tra.bmp","你","Matching","你","Self","Self",1,732,0.732,1
"155",15,21,"female","right",4,59,"Tra.bmp","生人","Nonmatching","你","Self","Self",2,526,0.526,1
"156",15,21,"female","right",4,60,"P.bmp","你","Nonmatching","生人","Stranger","Stranger",1,647,0.647,0
"157",15,21,"female","right",4,61,"P.bmp","生人","Matching","生人","Stranger","Stranger",1,679,0.679,1
"158",15,21,"female","right",4,62,"Tra.bmp","生人","Nonmatching","你","Self","Self",1,623,0.623,0
"159",15,21,"female","right",4,63,"Tra.bmp","你","Matching","你","Self","Self",1,959,0.959,1
"160",15,21,"female","right",4,64,"Tra.bmp","你","Matching","你","Self","Self",1,655,0.655,1
"161",15,21,"female","right",5,65,"Tra.bmp","生人","Nonmatching","你","Self","Self",2,783,0.783,1
"162",15,21,"female","right",5,66,"Tra.bmp","你","Matching","你","Self","Self",1,489,0.489,1
"163",15,21,"female","right",5,67,"Tra.bmp","你","Matching","你","Self","Self",1,539,0.539,1
"164",15,21,"female","right",5,68,"P.bmp","生人","Matching","生人","Stranger","Stranger",1,675,0.675,1
"165",15,21,"female","right",5,69,"Tra.bmp","你","Matching","你","Self","Self",1,547,0.547,1
"166",15,21,"female","right",5,70,"Tra.bmp","你","Matching","你","Self","Self",1,755,0.755,1
"167",15,21,"female","right",5,71,"P.bmp","生人","Matching","生人","Stranger","Stranger",1,483,0.483,1
"168",15,21,"female","right",5,72,"P.bmp","生人","Matching","生人","Stranger","Stranger",1,763,0.763,1
"169",15,21,"female","right",5,73,"Tra.bmp","你","Matching","你","Self","Self",1,572,0.572,1
"170",15,21,"female","right",5,74,"Tra.bmp","你","Matching","你","Self","Self",1,589,0.589,1
"171",15,21,"female","right",5,75,"Tra.bmp","生人","Nonmatching","你","Self","Self",1,542,0.542,0
"172",15,21,"female","right",5,76,"P.bmp","生人","Matching","生人","Stranger","Stranger",1,750,0.75,1
"173",15,21,"female","right",5,77,"P.bmp","生人","Matching","生人","Stranger","Stranger",1,574,0.574,1
"174",15,21,"female","right",5,78,"P.bmp","你","Nonmatching","生人","Stranger","Stranger",2,1086,1.086,1
"175",15,21,"female","right",5,79,"P.bmp","你","Nonmatching","生人","Stranger","Stranger",2,670,0.67,1
"176",15,21,"female","right",5,80,"P.bmp","生人","Matching","生人","Stranger","Stranger",1,678,0.678,1
"177",15,21,"female","right",6,81,"Tra.bmp","你","Matching","你","Self","Self",1,513,0.513,1
"178",15,21,"female","right",6,82,"P.bmp","生人","Matching","生人","Stranger","Stranger",1,641,0.641,1
"179",15,21,"female","right",6,83,"P.bmp","你","Nonmatching","生人","Stranger","Stranger",2,793,0.793,1
"180",15,21,"female","right",6,84,"Tra.bmp","你","Matching","你","Self","Self",1,465,0.465,1
"181",15,21,"female","right",6,85,"Tra.bmp","生人","Nonmatching","你","Self","Self",1,512,0.512,0
"182",15,21,"female","right",6,86,"P.bmp","生人","Matching","生人","Stranger","Stranger",1,720,0.72,1
"183",15,21,"female","right",6,87,"P.bmp","生人","Matching","生人","Stranger","Stranger",1,761,0.761,1
"184",15,21,"female","right",6,88,"P.bmp","生人","Matching","生人","Stranger","Stranger",1,530,0.53,1
"185",15,21,"female","right",6,89,"Tra.bmp","你","Matching","你","Self","Self",1,805,0.805,1
"186",15,21,"female","right",6,90,"P.bmp","生人","Matching","生人","Stranger","Stranger",1,541,0.541,1
"187",15,21,"female","right",6,91,"P.bmp","你","Nonmatching","生人","Stranger","Stranger",2,621,0.621,1
"188",15,21,"female","right",6,92,"Tra.bmp","你","Matching","你","Self","Self",1,525,0.525,1
"189",15,21,"female","right",6,93,"Tra.bmp","你","Matching","你","Self","Self",1,981,0.981,1
"190",15,21,"female","right",6,94,"P.bmp","生人","Matching","生人","Stranger","Stranger",1,437,0.437,1
"191",15,21,"female","right",6,95,"Tra.bmp","你","Matching","你","Self","Self",1,526,0.526,1
"192",15,21,"female","right",6,96,"Tra.bmp","生人","Nonmatching","你","Self","Self",2,582,0.582,1
"193",16,24,"male","left",1,1,"P.bmp","生人","Matching","生人","Stranger","Stranger",NA,0,0,0
"194",16,24,"male","left",1,2,"S.bmp","你","Matching","你","Self","Self",2,16,0.016,1
"195",16,24,"male","left",1,3,"P.bmp","生人","Matching","生人","Stranger","Stranger",NA,0,0,0
"196",16,24,"male","left",1,4,"S.bmp","你","Matching","你","Self","Self",2,668,0.668,1
"197",16,24,"male","left",1,5,"S.bmp","你","Matching","你","Self","Self",2,462,0.462,1
"198",16,24,"male","left",1,6,"S.bmp","你","Matching","你","Self","Self",2,464,0.464,1
"199",16,24,"male","left",1,7,"P.bmp","生人","Matching","生人","Stranger","Stranger",1,922,0.922,0
"200",16,24,"male","left",1,8,"P.bmp","你","Nonmatching","生人","Stranger","Stranger",1,916,0.916,1
"201",16,24,"male","left",1,9,"S.bmp","生人","Nonmatching","你","Self","Self",1,830,0.83,1
"202",16,24,"male","left",1,10,"P.bmp","生人","Matching","生人","Stranger","Stranger",2,1000,1,1
"203",16,24,"male","left",1,11,"P.bmp","你","Nonmatching","生人","Stranger","Stranger",1,779,0.779,1
"204",16,24,"male","left",1,12,"P.bmp","生人","Matching","生人","Stranger","Stranger",2,1011,1.011,1
"205",16,24,"male","left",1,13,"S.bmp","你","Matching","你","Self","Self",2,581,0.581,1
"206",16,24,"male","left",1,14,"S.bmp","生人","Nonmatching","你","Self","Self",1,767,0.767,1
"207",16,24,"male","left",1,15,"S.bmp","你","Matching","你","Self","Self",2,657,0.657,1
"208",16,24,"male","left",1,16,"P.bmp","生人","Matching","生人","Stranger","Stranger",2,843,0.843,1
"209",16,24,"male","left",2,17,"P.bmp","生人","Matching","生人","Stranger","Stranger",2,997,0.997,1
"210",16,24,"male","left",2,18,"P.bmp","生人","Matching","生人","Stranger","Stranger",2,767,0.767,1
"211",16,24,"male","left",2,19,"P.bmp","你","Nonmatching","生人","Stranger","Stranger",1,609,0.609,1
"212",16,24,"male","left",2,20,"P.bmp","生人","Matching","生人","Stranger","Stranger",2,819,0.819,1
"213",16,24,"male","left",2,21,"S.bmp","你","Matching","你","Self","Self",2,525,0.525,1
"214",16,24,"male","left",2,22,"S.bmp","生人","Nonmatching","你","Self","Self",1,584,0.584,1
"215",16,24,"male","left",2,23,"S.bmp","你","Matching","你","Self","Self",2,650,0.65,1
"216",16,24,"male","left",2,24,"S.bmp","你","Matching","你","Self","Self",2,380,0.38,1
"217",16,24,"male","left",2,25,"S.bmp","你","Matching","你","Self","Self",2,366,0.366,1
"218",16,24,"male","left",2,26,"P.bmp","生人","Matching","生人","Stranger","Stranger",2,1096,1.096,1
"219",16,24,"male","left",2,27,"S.bmp","你","Matching","你","Self","Self",2,386,0.386,1
"220",16,24,"male","left",2,28,"P.bmp","生人","Matching","生人","Stranger","Stranger",2,700,0.7,1
"221",16,24,"male","left",2,29,"P.bmp","你","Nonmatching","生人","Stranger","Stranger",1,630,0.63,1
"222",16,24,"male","left",2,30,"S.bmp","你","Matching","你","Self","Self",2,376,0.376,1
"223",16,24,"male","left",2,31,"S.bmp","生人","Nonmatching","你","Self","Self",1,770,0.77,1
"224",16,24,"male","left",2,32,"P.bmp","生人","Matching","生人","Stranger","Stranger",2,1068,1.068,1
"225",16,24,"male","left",3,33,"S.bmp","你","Matching","你","Self","Self",2,478,0.478,1
"226",16,24,"male","left",3,34,"P.bmp","生人","Matching","生人","Stranger","Stranger",2,920,0.92,1
"227",16,24,"male","left",3,35,"P.bmp","生人","Matching","生人","Stranger","Stranger",2,810,0.81,1
"228",16,24,"male","left",3,36,"S.bmp","生人","Nonmatching","你","Self","Self",1,652,0.652,1
"229",16,24,"male","left",3,37,"S.bmp","你","Matching","你","Self","Self",2,374,0.374,1
"230",16,24,"male","left",3,38,"P.bmp","生人","Matching","生人","Stranger","Stranger",2,760,0.76,1
"231",16,24,"male","left",3,39,"S.bmp","你","Matching","你","Self","Self",2,474,0.474,1
"232",16,24,"male","left",3,40,"S.bmp","你","Matching","你","Self","Self",2,380,0.38,1
"233",16,24,"male","left",3,41,"P.bmp","生人","Matching","生人","Stranger","Stranger",2,534,0.534,1
"234",16,24,"male","left",3,42,"S.bmp","你","Matching","你","Self","Self",2,352,0.352,1
"235",16,24,"male","left",3,43,"P.bmp","你","Nonmatching","生人","Stranger","Stranger",1,674,0.674,1
"236",16,24,"male","left",3,44,"S.bmp","生人","Nonmatching","你","Self","Self",2,420,0.42,0
"237",16,24,"male","left",3,45,"P.bmp","你","Nonmatching","生人","Stranger","Stranger",NA,0,0,0
"238",16,24,"male","left",3,46,"P.bmp","生人","Matching","生人","Stranger","Stranger",NA,0,0,0
"239",16,24,"male","left",3,47,"P.bmp","生人","Matching","生人","Stranger","Stranger",NA,0,0,0
"240",16,24,"male","left",3,48,"S.bmp","你","Matching","你","Self","Self",2,939,0.939,1
"241",16,24,"male","left",4,49,"P.bmp","生人","Matching","生人","Stranger","Stranger",2,908,0.908,1
"242",16,24,"male","left",4,50,"S.bmp","生人","Nonmatching","你","Self","Self",1,630,0.63,1
"243",16,24,"male","left",4,51,"S.bmp","你","Matching","你","Self","Self",2,448,0.448,1
"244",16,24,"male","left",4,52,"P.bmp","生人","Matching","生人","Stranger","Stranger",2,714,0.714,1
"245",16,24,"male","left",4,53,"P.bmp","你","Nonmatching","生人","Stranger","Stranger",1,820,0.82,1
"246",16,24,"male","left",4,54,"P.bmp","生人","Matching","生人","Stranger","Stranger",2,910,0.91,1
"247",16,24,"male","left",4,55,"P.bmp","生人","Matching","生人","Stranger","Stranger",2,593,0.593,1
"248",16,24,"male","left",4,56,"S.bmp","你","Matching","你","Self","Self",2,650,0.65,1
"249",16,24,"male","left",4,57,"S.bmp","你","Matching","你","Self","Self",2,348,0.348,1
"250",16,24,"male","left",4,58,"P.bmp","生人","Matching","生人","Stranger","Stranger",2,558,0.558,1
"251",16,24,"male","left",4,59,"S.bmp","你","Matching","你","Self","Self",2,464,0.464,1
"252",16,24,"male","left",4,60,"S.bmp","你","Matching","你","Self","Self",2,594,0.594,1
"253",16,24,"male","left",4,61,"S.bmp","你","Matching","你","Self","Self",2,556,0.556,1
"254",16,24,"male","left",4,62,"P.bmp","你","Nonmatching","生人","Stranger","Stranger",1,758,0.758,1
"255",16,24,"male","left",4,63,"S.bmp","生人","Nonmatching","你","Self","Self",1,1048,1.048,1
"256",16,24,"male","left",4,64,"P.bmp","生人","Matching","生人","Stranger","Stranger",2,882,0.882,1
"257",16,24,"male","left",5,65,"P.bmp","生人","Matching","生人","Stranger","Stranger",2,996,0.996,1
"258",16,24,"male","left",5,66,"S.bmp","你","Matching","你","Self","Self",2,558,0.558,1
"259",16,24,"male","left",5,67,"S.bmp","你","Matching","你","Self","Self",2,416,0.416,1
"260",16,24,"male","left",5,68,"P.bmp","生人","Matching","生人","Stranger","Stranger",2,554,0.554,1
"261",16,24,"male","left",5,69,"P.bmp","生人","Matching","生人","Stranger","Stranger",2,748,0.748,1
"262",16,24,"male","left",5,70,"S.bmp","生人","Nonmatching","你","Self","Self",1,670,0.67,1
"263",16,24,"male","left",5,71,"P.bmp","生人","Matching","生人","Stranger","Stranger",2,832,0.832,1
"264",16,24,"male","left",5,72,"P.bmp","生人","Matching","生人","Stranger","Stranger",2,746,0.746,1
"265",16,24,"male","left",5,73,"S.bmp","你","Matching","你","Self","Self",2,525,0.525,1
"266",16,24,"male","left",5,74,"S.bmp","生人","Nonmatching","你","Self","Self",1,919,0.919,1
"267",16,24,"male","left",5,75,"P.bmp","生人","Matching","生人","Stranger","Stranger",2,545,0.545,1
"268",16,24,"male","left",5,76,"S.bmp","你","Matching","你","Self","Self",2,499,0.499,1
"269",16,24,"male","left",5,77,"S.bmp","你","Matching","你","Self","Self",2,365,0.365,1
"270",16,24,"male","left",5,78,"S.bmp","你","Matching","你","Self","Self",2,455,0.455,1
"271",16,24,"male","left",5,79,"P.bmp","你","Nonmatching","生人","Stranger","Stranger",1,689,0.689,1
"272",16,24,"male","left",5,80,"P.bmp","你","Nonmatching","生人","Stranger","Stranger",1,810,0.81,1
"273",16,24,"male","left",6,81,"S.bmp","你","Matching","你","Self","Self",2,508,0.508,1
"274",16,24,"male","left",6,82,"S.bmp","你","Matching","你","Self","Self",2,510,0.51,1
"275",16,24,"male","left",6,83,"P.bmp","你","Nonmatching","生人","Stranger","Stranger",1,968,0.968,1
"276",16,24,"male","left",6,84,"S.bmp","你","Matching","你","Self","Self",2,810,0.81,1
"277",16,24,"male","left",6,85,"S.bmp","你","Matching","你","Self","Self",2,524,0.524,1
"278",16,24,"male","left",6,86,"P.bmp","生人","Matching","生人","Stranger","Stranger",2,918,0.918,1
"279",16,24,"male","left",6,87,"S.bmp","生人","Nonmatching","你","Self","Self",1,720,0.72,1
"280",16,24,"male","left",6,88,"S.bmp","你","Matching","你","Self","Self",2,498,0.498,1
"281",16,24,"male","left",6,89,"P.bmp","你","Nonmatching","生人","Stranger","Stranger",2,372,0.372,0
"282",16,24,"male","left",6,90,"S.bmp","你","Matching","你","Self","Self",2,590,0.59,1
"283",16,24,"male","left",6,91,"S.bmp","生人","Nonmatching","你","Self","Self",1,888,0.888,1
"284",16,24,"male","left",6,92,"P.bmp","生人","Matching","生人","Stranger","Stranger",2,762,0.762,1
"285",16,24,"male","left",6,93,"P.bmp","生人","Matching","生人","Stranger","Stranger",NA,0,0,0
"286",16,24,"male","left",6,94,"P.bmp","生人","Matching","生人","Stranger","Stranger",2,926,0.926,1
"287",16,24,"male","left",6,95,"P.bmp","生人","Matching","生人","Stranger","Stranger",NA,0,0,0
"288",16,24,"male","left",6,96,"P.bmp","生人","Matching","生人","Stranger","Stranger",2,666,0.666,1
"289",17,19,"male","right",1,1,"T.bmp","生人","Matching","生人","Stranger","Stranger",1,735,0.735,1
"290",17,19,"male","right",1,2,"S.bmp","你","Matching","你","Self","Self",1,447,0.447,1
"291",17,19,"male","right",1,3,"S.bmp","生人","Nonmatching","你","Self","Self",2,703,0.703,1
"292",17,19,"male","right",1,4,"S.bmp","生人","Nonmatching","你","Self","Self",2,935,0.935,1
"293",17,19,"male","right",1,5,"T.bmp","生人","Matching","生人","Stranger","Stranger",1,560,0.56,1
"294",17,19,"male","right",1,6,"S.bmp","你","Matching","你","Self","Self",1,482,0.482,1
"295",17,19,"male","right",1,7,"T.bmp","生人","Matching","生人","Stranger","Stranger",1,1050,1.05,1
"296",17,19,"male","right",1,8,"S.bmp","你","Matching","你","Self","Self",1,546,0.546,1
"297",17,19,"male","right",1,9,"T.bmp","生人","Matching","生人","Stranger","Stranger",1,562,0.562,1
"298",17,19,"male","right",1,10,"S.bmp","你","Matching","你","Self","Self",1,634,0.634,1
"299",17,19,"male","right",1,11,"S.bmp","你","Matching","你","Self","Self",1,578,0.578,1
"300",17,19,"male","right",1,12,"T.bmp","你","Nonmatching","生人","Stranger","Stranger",1,570,0.57,0
"301",17,19,"male","right",1,13,"T.bmp","你","Nonmatching","生人","Stranger","Stranger",1,596,0.596,0
"302",17,19,"male","right",1,14,"S.bmp","你","Matching","你","Self","Self",1,413,0.413,1
"303",17,19,"male","right",1,15,"T.bmp","生人","Matching","生人","Stranger","Stranger",1,741,0.741,1
"304",17,19,"male","right",1,16,"T.bmp","生人","Matching","生人","Stranger","Stranger",1,637,0.637,1
"305",17,19,"male","right",2,17,"T.bmp","生人","Matching","生人","Stranger","Stranger",1,477,0.477,1
"306",17,19,"male","right",2,18,"S.bmp","你","Matching","你","Self","Self",1,525,0.525,1
"307",17,19,"male","right",2,19,"S.bmp","你","Matching","你","Self","Self",1,549,0.549,1
"308",17,19,"male","right",2,20,"T.bmp","生人","Matching","生人","Stranger","Stranger",1,837,0.837,1
"309",17,19,"male","right",2,21,"S.bmp","生人","Nonmatching","你","Self","Self",2,823,0.823,1
"310",17,19,"male","right",2,22,"S.bmp","你","Matching","你","Self","Self",1,567,0.567,1
"311",17,19,"male","right",2,23,"T.bmp","生人","Matching","生人","Stranger","Stranger",1,481,0.481,1
"312",17,19,"male","right",2,24,"S.bmp","生人","Nonmatching","你","Self","Self",1,511,0.511,0
"313",17,19,"male","right",2,25,"S.bmp","你","Matching","你","Self","Self",1,583,0.583,1
"314",17,19,"male","right",2,26,"T.bmp","你","Nonmatching","生人","Stranger","Stranger",1,671,0.671,0
"315",17,19,"male","right",2,27,"S.bmp","你","Matching","你","Self","Self",1,591,0.591,1
"316",17,19,"male","right",2,28,"T.bmp","你","Nonmatching","生人","Stranger","Stranger",2,791,0.791,1
"317",17,19,"male","right",2,29,"S.bmp","你","Matching","你","Self","Self",1,641,0.641,1
"318",17,19,"male","right",2,30,"T.bmp","生人","Matching","生人","Stranger","Stranger",1,618,0.618,1
"319",17,19,"male","right",2,31,"T.bmp","生人","Matching","生人","Stranger","Stranger",1,786,0.786,1
"320",17,19,"male","right",2,32,"T.bmp","生人","Matching","生人","Stranger","Stranger",1,626,0.626,1
"321",17,19,"male","right",3,33,"T.bmp","生人","Matching","生人","Stranger","Stranger",1,450,0.45,1
"322",17,19,"male","right",3,34,"T.bmp","生人","Matching","生人","Stranger","Stranger",1,530,0.53,1
"323",17,19,"male","right",3,35,"S.bmp","你","Matching","你","Self","Self",1,890,0.89,1
"324",17,19,"male","right",3,36,"S.bmp","你","Matching","你","Self","Self",1,394,0.394,1
"325",17,19,"male","right",3,37,"S.bmp","生人","Nonmatching","你","Self","Self",1,420,0.42,0
"326",17,19,"male","right",3,38,"T.bmp","你","Nonmatching","生人","Stranger","Stranger",1,421,0.421,0
"327",17,19,"male","right",3,39,"S.bmp","你","Matching","你","Self","Self",1,421,0.421,1
"328",17,19,"male","right",3,40,"T.bmp","生人","Matching","生人","Stranger","Stranger",1,573,0.573,1
"329",17,19,"male","right",3,41,"T.bmp","生人","Matching","生人","Stranger","Stranger",1,549,0.549,1
"330",17,19,"male","right",3,42,"T.bmp","你","Nonmatching","生人","Stranger","Stranger",1,621,0.621,0
"331",17,19,"male","right",3,43,"S.bmp","你","Matching","你","Self","Self",1,557,0.557,1
"332",17,19,"male","right",3,44,"S.bmp","生人","Nonmatching","你","Self","Self",2,982,0.982,1
"333",17,19,"male","right",3,45,"T.bmp","生人","Matching","生人","Stranger","Stranger",1,512,0.512,1
"334",17,19,"male","right",3,46,"S.bmp","你","Matching","你","Self","Self",1,567,0.567,1
"335",17,19,"male","right",3,47,"T.bmp","生人","Matching","生人","Stranger","Stranger",1,743,0.743,1
"336",17,19,"male","right",3,48,"S.bmp","你","Matching","你","Self","Self",1,559,0.559,1
"337",17,19,"male","right",4,49,"S.bmp","生人","Nonmatching","你","Self","Self",NA,0,0,0
"338",17,19,"male","right",4,50,"S.bmp","你","Matching","你","Self","Self",1,634,0.634,1
"339",17,19,"male","right",4,51,"T.bmp","生人","Matching","生人","Stranger","Stranger",1,579,0.579,1
"340",17,19,"male","right",4,52,"S.bmp","你","Matching","你","Self","Self",1,500,0.5,1
"341",17,19,"male","right",4,53,"T.bmp","生人","Matching","生人","Stranger","Stranger",1,540,0.54,1
"342",17,19,"male","right",4,54,"T.bmp","生人","Matching","生人","Stranger","Stranger",1,540,0.54,1
"343",17,19,"male","right",4,55,"S.bmp","你","Matching","你","Self","Self",1,372,0.372,1
"344",17,19,"male","right",4,56,"T.bmp","生人","Matching","生人","Stranger","Stranger",1,556,0.556,1
"345",17,19,"male","right",4,57,"T.bmp","你","Nonmatching","生人","Stranger","Stranger",1,548,0.548,0
"346",17,19,"male","right",4,58,"T.bmp","生人","Matching","生人","Stranger","Stranger",1,605,0.605,1
"347",17,19,"male","right",4,59,"T.bmp","生人","Matching","生人","Stranger","Stranger",1,469,0.469,1
"348",17,19,"male","right",4,60,"S.bmp","你","Matching","你","Self","Self",1,565,0.565,1
"349",17,19,"male","right",4,61,"T.bmp","你","Nonmatching","生人","Stranger","Stranger",1,621,0.621,0
"350",17,19,"male","right",4,62,"S.bmp","你","Matching","你","Self","Self",1,501,0.501,1
"351",17,19,"male","right",4,63,"S.bmp","你","Matching","你","Self","Self",1,525,0.525,1
"352",17,19,"male","right",4,64,"S.bmp","生人","Nonmatching","你","Self","Self",1,565,0.565,0
"353",17,19,"male","right",5,65,"S.bmp","你","Matching","你","Self","Self",1,1013,1.013,1
"354",17,19,"male","right",5,66,"S.bmp","你","Matching","你","Self","Self",1,526,0.526,1
"355",17,19,"male","right",5,67,"T.bmp","生人","Matching","生人","Stranger","Stranger",1,551,0.551,1
"356",17,19,"male","right",5,68,"T.bmp","生人","Matching","生人","Stranger","Stranger",1,943,0.943,1
"357",17,19,"male","right",5,69,"S.bmp","生人","Nonmatching","你","Self","Self",2,855,0.855,1
"358",17,19,"male","right",5,70,"T.bmp","你","Nonmatching","生人","Stranger","Stranger",1,559,0.559,0
"359",17,19,"male","right",5,71,"T.bmp","生人","Matching","生人","Stranger","Stranger",1,623,0.623,1
"360",17,19,"male","right",5,72,"S.bmp","生人","Nonmatching","你","Self","Self",2,999,0.999,1
"361",17,19,"male","right",5,73,"S.bmp","你","Matching","你","Self","Self",1,807,0.807,1
"362",17,19,"male","right",5,74,"S.bmp","你","Matching","你","Self","Self",1,497,0.497,1
"363",17,19,"male","right",5,75,"S.bmp","你","Matching","你","Self","Self",1,394,0.394,1
"364",17,19,"male","right",5,76,"T.bmp","生人","Matching","生人","Stranger","Stranger",1,650,0.65,1
"365",17,19,"male","right",5,77,"T.bmp","生人","Matching","生人","Stranger","Stranger",1,434,0.434,1
"366",17,19,"male","right",5,78,"T.bmp","生人","Matching","生人","Stranger","Stranger",1,602,0.602,1
"367",17,19,"male","right",5,79,"T.bmp","你","Nonmatching","生人","Stranger","Stranger",1,530,0.53,0
"368",17,19,"male","right",5,80,"S.bmp","你","Matching","你","Self","Self",1,450,0.45,1
"369",17,19,"male","right",6,81,"T.bmp","你","Nonmatching","生人","Stranger","Stranger",2,634,0.634,1
"370",17,19,"male","right",6,82,"S.bmp","你","Matching","你","Self","Self",1,532,0.532,1
"371",17,19,"male","right",6,83,"S.bmp","你","Matching","你","Self","Self",1,581,0.581,1
"372",17,19,"male","right",6,84,"S.bmp","生人","Nonmatching","你","Self","Self",2,621,0.621,1
"373",17,19,"male","right",6,85,"S.bmp","你","Matching","你","Self","Self",1,429,0.429,1
"374",17,19,"male","right",6,86,"S.bmp","生人","Nonmatching","你","Self","Self",2,773,0.773,1
"375",17,19,"male","right",6,87,"S.bmp","你","Matching","你","Self","Self",1,613,0.613,1
"376",17,19,"male","right",6,88,"S.bmp","你","Matching","你","Self","Self",1,781,0.781,1
"377",17,19,"male","right",6,89,"T.bmp","生人","Matching","生人","Stranger","Stranger",1,541,0.541,1
"378",17,19,"male","right",6,90,"S.bmp","你","Matching","你","Self","Self",1,573,0.573,1
"379",17,19,"male","right",6,91,"T.bmp","生人","Matching","生人","Stranger","Stranger",1,677,0.677,1
"380",17,19,"male","right",6,92,"T.bmp","生人","Matching","生人","Stranger","Stranger",1,549,0.549,1
"381",17,19,"male","right",6,93,"T.bmp","生人","Matching","生人","Stranger","Stranger",1,797,0.797,1
"382",17,19,"male","right",6,94,"T.bmp","生人","Matching","生人","Stranger","Stranger",1,445,0.445,1
"383",17,19,"male","right",6,95,"T.bmp","你","Nonmatching","生人","Stranger","Stranger",2,629,0.629,1
"384",17,19,"male","right",6,96,"T.bmp","生人","Matching","生人","Stranger","Stranger",1,517,0.517,1
"385",18,27,"male","right",1,1,"T.bmp","生人","Matching","生人","Stranger","Stranger",NA,0,0,0
"386",18,27,"male","right",1,2,"T.bmp","生人","Matching","生人","Stranger","Stranger",NA,0,0,0
"387",18,27,"male","right",1,3,"T.bmp","你","Nonmatching","生人","Stranger","Stranger",1,1008,1.008,1
"388",18,27,"male","right",1,4,"T.bmp","生人","Matching","生人","Stranger","Stranger",1,970,0.97,0
"389",18,27,"male","right",1,5,"C.bmp","你","Matching","你","Self","Self",2,684,0.684,1
"390",18,27,"male","right",1,6,"C.bmp","生人","Nonmatching","你","Self","Self",1,870,0.87,1
"391",18,27,"male","right",1,7,"C.bmp","你","Matching","你","Self","Self",2,624,0.624,1
"392",18,27,"male","right",1,8,"C.bmp","生人","Nonmatching","你","Self","Self",1,802,0.802,1
"393",18,27,"male","right",1,9,"C.bmp","你","Matching","你","Self","Self",2,628,0.628,1
"394",18,27,"male","right",1,10,"T.bmp","你","Nonmatching","生人","Stranger","Stranger",NA,0,0,0
"395",18,27,"male","right",1,11,"T.bmp","生人","Matching","生人","Stranger","Stranger",NA,0,0,0
"396",18,27,"male","right",1,12,"C.bmp","你","Matching","你","Self","Self",2,731,0.731,1
"397",18,27,"male","right",1,13,"C.bmp","你","Matching","你","Self","Self",2,661,0.661,1
"398",18,27,"male","right",1,14,"T.bmp","生人","Matching","生人","Stranger","Stranger",2,719,0.719,1
"399",18,27,"male","right",1,15,"T.bmp","生人","Matching","生人","Stranger","Stranger",2,888,0.888,1
"400",18,27,"male","right",1,16,"C.bmp","你","Matching","你","Self","Self",2,651,0.651,1
"401",18,27,"male","right",2,17,"C.bmp","生人","Nonmatching","你","Self","Self",NA,0,0,0
"402",18,27,"male","right",2,18,"C.bmp","你","Matching","你","Self","Self",2,718,0.718,1
"403",18,27,"male","right",2,19,"T.bmp","你","Nonmatching","生人","Stranger","Stranger",1,832,0.832,1
"404",18,27,"male","right",2,20,"C.bmp","你","Matching","你","Self","Self",2,626,0.626,1
"405",18,27,"male","right",2,21,"C.bmp","你","Matching","你","Self","Self",2,596,0.596,1
"406",18,27,"male","right",2,22,"T.bmp","生人","Matching","生人","Stranger","Stranger",2,998,0.998,1
"407",18,27,"male","right",2,23,"C.bmp","你","Matching","你","Self","Self",2,632,0.632,1
"408",18,27,"male","right",2,24,"T.bmp","生人","Matching","生人","Stranger","Stranger",2,643,0.643,1
"409",18,27,"male","right",2,25,"T.bmp","你","Nonmatching","生人","Stranger","Stranger",1,981,0.981,1
"410",18,27,"male","right",2,26,"T.bmp","生人","Matching","生人","Stranger","Stranger",2,903,0.903,1
"411",18,27,"male","right",2,27,"T.bmp","生人","Matching","生人","Stranger","Stranger",2,705,0.705,1
"412",18,27,"male","right",2,28,"C.bmp","生人","Nonmatching","你","Self","Self",1,995,0.995,1
"413",18,27,"male","right",2,29,"T.bmp","生人","Matching","生人","Stranger","Stranger",2,820,0.82,1
"414",18,27,"male","right",2,30,"C.bmp","你","Matching","你","Self","Self",2,422,0.422,1
"415",18,27,"male","right",2,31,"T.bmp","生人","Matching","生人","Stranger","Stranger",2,648,0.648,1
"416",18,27,"male","right",2,32,"C.bmp","你","Matching","你","Self","Self",2,554,0.554,1
"417",18,27,"male","right",3,33,"C.bmp","你","Matching","你","Self","Self",2,636,0.636,1
"418",18,27,"male","right",3,34,"T.bmp","生人","Matching","生人","Stranger","Stranger",2,590,0.59,1
"419",18,27,"male","right",3,35,"T.bmp","生人","Matching","生人","Stranger","Stranger",2,480,0.48,1
"420",18,27,"male","right",3,36,"C.bmp","你","Matching","你","Self","Self",2,499,0.499,1
"421",18,27,"male","right",3,37,"T.bmp","你","Nonmatching","生人","Stranger","Stranger",2,613,0.613,0
"422",18,27,"male","right",3,38,"T.bmp","生人","Matching","生人","Stranger","Stranger",2,807,0.807,1
"423",18,27,"male","right",3,39,"T.bmp","生人","Matching","生人","Stranger","Stranger",2,737,0.737,1
"424",18,27,"male","right",3,40,"C.bmp","你","Matching","你","Self","Self",2,507,0.507,1
"425",18,27,"male","right",3,41,"C.bmp","生人","Nonmatching","你","Self","Self",1,813,0.813,1
"426",18,27,"male","right",3,42,"C.bmp","你","Matching","你","Self","Self",2,583,0.583,1
"427",18,27,"male","right",3,43,"T.bmp","生人","Matching","生人","Stranger","Stranger",2,1009,1.009,1
"428",18,27,"male","right",3,44,"C.bmp","生人","Nonmatching","你","Self","Self",1,770,0.77,1
"429",18,27,"male","right",3,45,"T.bmp","你","Nonmatching","生人","Stranger","Stranger",2,508,0.508,0
"430",18,27,"male","right",3,46,"C.bmp","你","Matching","你","Self","Self",2,574,0.574,1
"431",18,27,"male","right",3,47,"T.bmp","生人","Matching","生人","Stranger","Stranger",2,720,0.72,1
"432",18,27,"male","right",3,48,"C.bmp","你","Matching","你","Self","Self",2,594,0.594,1
"433",18,27,"male","right",4,49,"T.bmp","你","Nonmatching","生人","Stranger","Stranger",1,941,0.941,1
"434",18,27,"male","right",4,50,"T.bmp","生人","Matching","生人","Stranger","Stranger",2,711,0.711,1
"435",18,27,"male","right",4,51,"C.bmp","你","Matching","你","Self","Self",2,497,0.497,1
"436",18,27,"male","right",4,52,"T.bmp","生人","Matching","生人","Stranger","Stranger",2,739,0.739,1
"437",18,27,"male","right",4,53,"T.bmp","生人","Matching","生人","Stranger","Stranger",2,573,0.573,1
"438",18,27,"male","right",4,54,"T.bmp","你","Nonmatching","生人","Stranger","Stranger",1,799,0.799,1
"439",18,27,"male","right",4,55,"C.bmp","你","Matching","你","Self","Self",2,457,0.457,1
"440",18,27,"male","right",4,56,"C.bmp","生人","Nonmatching","你","Self","Self",NA,0,0,0
"441",18,27,"male","right",4,57,"T.bmp","生人","Matching","生人","Stranger","Stranger",2,804,0.804,1
"442",18,27,"male","right",4,58,"T.bmp","生人","Matching","生人","Stranger","Stranger",2,774,0.774,1
"443",18,27,"male","right",4,59,"C.bmp","你","Matching","你","Self","Self",2,600,0.6,1
"444",18,27,"male","right",4,60,"C.bmp","你","Matching","你","Self","Self",2,579,0.579,1
"445",18,27,"male","right",4,61,"T.bmp","生人","Matching","生人","Stranger","Stranger",2,541,0.541,1
"446",18,27,"male","right",4,62,"C.bmp","你","Matching","你","Self","Self",2,479,0.479,1
"447",18,27,"male","right",4,63,"C.bmp","生人","Nonmatching","你","Self","Self",1,809,0.809,1
"448",18,27,"male","right",4,64,"C.bmp","你","Matching","你","Self","Self",2,515,0.515,1
"449",18,27,"male","right",5,65,"T.bmp","生人","Matching","生人","Stranger","Stranger",2,557,0.557,1
"450",18,27,"male","right",5,66,"C.bmp","你","Matching","你","Self","Self",2,583,0.583,1
"451",18,27,"male","right",5,67,"T.bmp","生人","Matching","生人","Stranger","Stranger",2,825,0.825,1
"452",18,27,"male","right",5,68,"C.bmp","你","Matching","你","Self","Self",2,643,0.643,1
"453",18,27,"male","right",5,69,"T.bmp","生人","Matching","生人","Stranger","Stranger",2,733,0.733,1
"454",18,27,"male","right",5,70,"T.bmp","你","Nonmatching","生人","Stranger","Stranger",2,799,0.799,0
"455",18,27,"male","right",5,71,"T.bmp","你","Nonmatching","生人","Stranger","Stranger",NA,0,0,0
"456",18,27,"male","right",5,72,"T.bmp","生人","Matching","生人","Stranger","Stranger",2,867,0.867,1
"457",18,27,"male","right",5,73,"T.bmp","生人","Matching","生人","Stranger","Stranger",2,749,0.749,1
"458",18,27,"male","right",5,74,"C.bmp","你","Matching","你","Self","Self",2,463,0.463,1
"459",18,27,"male","right",5,75,"C.bmp","你","Matching","你","Self","Self",2,513,0.513,1
"460",18,27,"male","right",5,76,"T.bmp","生人","Matching","生人","Stranger","Stranger",2,659,0.659,1
"461",18,27,"male","right",5,77,"C.bmp","你","Matching","你","Self","Self",2,517,0.517,1
"462",18,27,"male","right",5,78,"C.bmp","生人","Nonmatching","你","Self","Self",2,639,0.639,0
"463",18,27,"male","right",5,79,"C.bmp","生人","Nonmatching","你","Self","Self",NA,0,0,0
"464",18,27,"male","right",5,80,"C.bmp","你","Matching","你","Self","Self",2,539,0.539,1
"465",18,27,"male","right",6,81,"T.bmp","生人","Matching","生人","Stranger","Stranger",2,541,0.541,1
"466",18,27,"male","right",6,82,"T.bmp","你","Nonmatching","生人","Stranger","Stranger",1,791,0.791,1
"467",18,27,"male","right",6,83,"C.bmp","生人","Nonmatching","你","Self","Self",2,473,0.473,0
"468",18,27,"male","right",6,84,"T.bmp","你","Nonmatching","生人","Stranger","Stranger",1,875,0.875,1
"469",18,27,"male","right",6,85,"T.bmp","生人","Matching","生人","Stranger","Stranger",2,702,0.702,1
"470",18,27,"male","right",6,86,"T.bmp","生人","Matching","生人","Stranger","Stranger",2,631,0.631,1
"471",18,27,"male","right",6,87,"T.bmp","生人","Matching","生人","Stranger","Stranger",NA,0,0,0
"472",18,27,"male","right",6,88,"C.bmp","你","Matching","你","Self","Self",2,515,0.515,1
"473",18,27,"male","right",6,89,"C.bmp","你","Matching","你","Self","Self",2,397,0.397,1
"474",18,27,"male","right",6,90,"T.bmp","生人","Matching","生人","Stranger","Stranger",2,623,0.623,1
"475",18,27,"male","right",6,91,"C.bmp","你","Matching","你","Self","Self",2,641,0.641,1
"476",18,27,"male","right",6,92,"T.bmp","生人","Matching","生人","Stranger","Stranger",2,547,0.547,1
"477",18,27,"male","right",6,93,"C.bmp","你","Matching","你","Self","Self",2,485,0.485,1
"478",18,27,"male","right",6,94,"C.bmp","生人","Nonmatching","你","Self","Self",2,383,0.383,0
"479",18,27,"male","right",6,95,"C.bmp","你","Matching","你","Self","Self",2,521,0.521,1
"480",18,27,"male","right",6,96,"C.bmp","你","Matching","你","Self","Self",2,587,0.587,1
"481",19,25,"male","right",1,1,"D.bmp","你","Nonmatching","生人","Stranger","Stranger",2,775,0.775,1
"482",19,25,"male","right",1,2,"D.bmp","生人","Matching","生人","Stranger","Stranger",1,839,0.839,1
"483",19,25,"male","right",1,3,"C.bmp","你","Matching","你","Self","Self",1,559,0.559,1
"484",19,25,"male","right",1,4,"C.bmp","你","Matching","你","Self","Self",1,504,0.504,1
"485",19,25,"male","right",1,5,"C.bmp","你","Matching","你","Self","Self",1,832,0.832,1
"486",19,25,"male","right",1,6,"D.bmp","生人","Matching","生人","Stranger","Stranger",1,800,0.8,1
"487",19,25,"male","right",1,7,"C.bmp","你","Matching","你","Self","Self",1,704,0.704,1
"488",19,25,"male","right",1,8,"C.bmp","你","Matching","你","Self","Self",1,544,0.544,1
"489",19,25,"male","right",1,9,"D.bmp","生人","Matching","生人","Stranger","Stranger",1,712,0.712,1
"490",19,25,"male","right",1,10,"D.bmp","生人","Matching","生人","Stranger","Stranger",1,864,0.864,1
"491",19,25,"male","right",1,11,"D.bmp","你","Nonmatching","生人","Stranger","Stranger",2,681,0.681,1
"492",19,25,"male","right",1,12,"D.bmp","生人","Matching","生人","Stranger","Stranger",1,746,0.746,1
"493",19,25,"male","right",1,13,"C.bmp","你","Matching","你","Self","Self",1,571,0.571,1
"494",19,25,"male","right",1,14,"C.bmp","生人","Nonmatching","你","Self","Self",2,642,0.642,1
"495",19,25,"male","right",1,15,"C.bmp","生人","Nonmatching","你","Self","Self",1,802,0.802,0
"496",19,25,"male","right",1,16,"D.bmp","生人","Matching","生人","Stranger","Stranger",NA,0,0,0
"497",19,25,"male","right",2,17,"D.bmp","生人","Matching","生人","Stranger","Stranger",NA,0,0,0
"498",19,25,"male","right",2,18,"C.bmp","你","Matching","你","Self","Self",1,802,0.802,1
"499",19,25,"male","right",2,19,"C.bmp","你","Matching","你","Self","Self",1,460,0.46,1
"500",19,25,"male","right",2,20,"D.bmp","生人","Matching","生人","Stranger","Stranger",1,725,0.725,1
"501",19,25,"male","right",2,21,"C.bmp","生人","Nonmatching","你","Self","Self",2,933,0.933,1
"502",19,25,"male","right",2,22,"D.bmp","你","Nonmatching","生人","Stranger","Stranger",2,717,0.717,1
"503",19,25,"male","right",2,23,"C.bmp","生人","Nonmatching","你","Self","Self",1,485,0.485,0
"504",19,25,"male","right",2,24,"C.bmp","你","Matching","你","Self","Self",1,549,0.549,1
"505",19,25,"male","right",2,25,"C.bmp","你","Matching","你","Self","Self",1,557,0.557,1
"506",19,25,"male","right",2,26,"C.bmp","你","Matching","你","Self","Self",1,485,0.485,1
"507",19,25,"male","right",2,27,"C.bmp","你","Matching","你","Self","Self",1,456,0.456,1
"508",19,25,"male","right",2,28,"D.bmp","生人","Matching","生人","Stranger","Stranger",1,864,0.864,1
"509",19,25,"male","right",2,29,"D.bmp","你","Nonmatching","生人","Stranger","Stranger",2,592,0.592,1
"510",19,25,"male","right",2,30,"D.bmp","生人","Matching","生人","Stranger","Stranger",1,712,0.712,1
"511",19,25,"male","right",2,31,"D.bmp","生人","Matching","生人","Stranger","Stranger",1,929,0.929,1
"512",19,25,"male","right",2,32,"D.bmp","生人","Matching","生人","Stranger","Stranger",1,680,0.68,1
"513",19,25,"male","right",3,33,"C.bmp","你","Matching","你","Self","Self",1,552,0.552,1
"514",19,25,"male","right",3,34,"D.bmp","生人","Matching","生人","Stranger","Stranger",1,800,0.8,1
"515",19,25,"male","right",3,35,"D.bmp","生人","Matching","生人","Stranger","Stranger",1,714,0.714,1
"516",19,25,"male","right",3,36,"C.bmp","生人","Nonmatching","你","Self","Self",1,507,0.507,0
"517",19,25,"male","right",3,37,"D.bmp","你","Nonmatching","生人","Stranger","Stranger",1,570,0.57,0
"518",19,25,"male","right",3,38,"D.bmp","生人","Matching","生人","Stranger","Stranger",1,746,0.746,1
"519",19,25,"male","right",3,39,"C.bmp","你","Matching","你","Self","Self",1,532,0.532,1
"520",19,25,"male","right",3,40,"C.bmp","你","Matching","你","Self","Self",1,450,0.45,1
"521",19,25,"male","right",3,41,"C.bmp","你","Matching","你","Self","Self",1,490,0.49,1
"522",19,25,"male","right",3,42,"C.bmp","生人","Nonmatching","你","Self","Self",2,650,0.65,1
"523",19,25,"male","right",3,43,"C.bmp","你","Matching","你","Self","Self",1,868,0.868,1
"524",19,25,"male","right",3,44,"D.bmp","生人","Matching","生人","Stranger","Stranger",1,765,0.765,1
"525",19,25,"male","right",3,45,"D.bmp","生人","Matching","生人","Stranger","Stranger",1,565,0.565,1
"526",19,25,"male","right",3,46,"D.bmp","你","Nonmatching","生人","Stranger","Stranger",2,733,0.733,1
"527",19,25,"male","right",3,47,"C.bmp","你","Matching","你","Self","Self",1,605,0.605,1
"528",19,25,"male","right",3,48,"D.bmp","生人","Matching","生人","Stranger","Stranger",1,749,0.749,1
"529",19,25,"male","right",4,49,"C.bmp","生人","Nonmatching","你","Self","Self",1,568,0.568,0
"530",19,25,"male","right",4,50,"D.bmp","你","Nonmatching","生人","Stranger","Stranger",NA,0,0,0
"531",19,25,"male","right",4,51,"D.bmp","你","Nonmatching","生人","Stranger","Stranger",2,968,0.968,1
"532",19,25,"male","right",4,52,"C.bmp","你","Matching","你","Self","Self",1,608,0.608,1
"533",19,25,"male","right",4,53,"C.bmp","你","Matching","你","Self","Self",1,496,0.496,1
"534",19,25,"male","right",4,54,"C.bmp","生人","Nonmatching","你","Self","Self",2,680,0.68,1
"535",19,25,"male","right",4,55,"D.bmp","生人","Matching","生人","Stranger","Stranger",1,768,0.768,1
"536",19,25,"male","right",4,56,"D.bmp","生人","Matching","生人","Stranger","Stranger",1,961,0.961,1
"537",19,25,"male","right",4,57,"C.bmp","你","Matching","你","Self","Self",1,546,0.546,1
"538",19,25,"male","right",4,58,"D.bmp","生人","Matching","生人","Stranger","Stranger",2,675,0.675,0
"539",19,25,"male","right",4,59,"C.bmp","你","Matching","你","Self","Self",1,530,0.53,1
"540",19,25,"male","right",4,60,"D.bmp","生人","Matching","生人","Stranger","Stranger",1,930,0.93,1
"541",19,25,"male","right",4,61,"C.bmp","你","Matching","你","Self","Self",1,706,0.706,1
"542",19,25,"male","right",4,62,"D.bmp","生人","Matching","生人","Stranger","Stranger",1,642,0.642,1
"543",19,25,"male","right",4,63,"C.bmp","你","Matching","你","Self","Self",1,538,0.538,1
"544",19,25,"male","right",4,64,"D.bmp","生人","Matching","生人","Stranger","Stranger",1,876,0.876,1
"545",19,25,"male","right",5,65,"D.bmp","你","Nonmatching","生人","Stranger","Stranger",2,909,0.909,1
"546",19,25,"male","right",5,66,"C.bmp","你","Matching","你","Self","Self",1,541,0.541,1
"547",19,25,"male","right",5,67,"D.bmp","你","Nonmatching","生人","Stranger","Stranger",2,957,0.957,1
"548",19,25,"male","right",5,68,"C.bmp","生人","Nonmatching","你","Self","Self",2,813,0.813,1
"549",19,25,"male","right",5,69,"C.bmp","你","Matching","你","Self","Self",1,581,0.581,1
"550",19,25,"male","right",5,70,"D.bmp","生人","Matching","生人","Stranger","Stranger",2,765,0.765,0
"551",19,25,"male","right",5,71,"D.bmp","生人","Matching","生人","Stranger","Stranger",1,845,0.845,1
"552",19,25,"male","right",5,72,"C.bmp","你","Matching","你","Self","Self",1,504,0.504,1
"553",19,25,"male","right",5,73,"C.bmp","你","Matching","你","Self","Self",1,504,0.504,1
"554",19,25,"male","right",5,74,"D.bmp","生人","Matching","生人","Stranger","Stranger",1,952,0.952,1
"555",19,25,"male","right",5,75,"C.bmp","你","Matching","你","Self","Self",1,488,0.488,1
"556",19,25,"male","right",5,76,"D.bmp","生人","Matching","生人","Stranger","Stranger",2,760,0.76,0
"557",19,25,"male","right",5,77,"D.bmp","生人","Matching","生人","Stranger","Stranger",1,584,0.584,1
"558",19,25,"male","right",5,78,"C.bmp","你","Matching","你","Self","Self",1,416,0.416,1
"559",19,25,"male","right",5,79,"D.bmp","生人","Matching","生人","Stranger","Stranger",1,872,0.872,1
"560",19,25,"male","right",5,80,"C.bmp","生人","Nonmatching","你","Self","Self",2,738,0.738,1
"561",19,25,"male","right",6,81,"C.bmp","生人","Nonmatching","你","Self","Self",2,730,0.73,1
"562",19,25,"male","right",6,82,"C.bmp","生人","Nonmatching","你","Self","Self",2,554,0.554,1
"563",19,25,"male","right",6,83,"C.bmp","你","Matching","你","Self","Self",1,562,0.562,1
"564",19,25,"male","right",6,84,"D.bmp","生人","Matching","生人","Stranger","Stranger",1,1034,1.034,1
"565",19,25,"male","right",6,85,"D.bmp","你","Nonmatching","生人","Stranger","Stranger",2,738,0.738,1
"566",19,25,"male","right",6,86,"C.bmp","你","Matching","你","Self","Self",1,586,0.586,1
"567",19,25,"male","right",6,87,"C.bmp","你","Matching","你","Self","Self",1,394,0.394,1
"568",19,25,"male","right",6,88,"D.bmp","生人","Matching","生人","Stranger","Stranger",2,565,0.565,0
"569",19,25,"male","right",6,89,"D.bmp","生人","Matching","生人","Stranger","Stranger",1,693,0.693,1
"570",19,25,"male","right",6,90,"C.bmp","你","Matching","你","Self","Self",1,581,0.581,1
"571",19,25,"male","right",6,91,"D.bmp","生人","Matching","生人","Stranger","Stranger",1,725,0.725,1
"572",19,25,"male","right",6,92,"D.bmp","生人","Matching","生人","Stranger","Stranger",1,477,0.477,1
"573",19,25,"male","right",6,93,"D.bmp","生人","Matching","生人","Stranger","Stranger",1,694,0.694,1
"574",19,25,"male","right",6,94,"C.bmp","你","Matching","你","Self","Self",1,454,0.454,1
"575",19,25,"male","right",6,95,"C.bmp","你","Matching","你","Self","Self",1,502,0.502,1
"576",19,25,"male","right",6,96,"D.bmp","你","Nonmatching","生人","Stranger","Stranger",2,582,0.582,1
"577",20,25,"female","right",1,1,"Tra.bmp","生人","Nonmatching","你","Self","Self",1,758,0.758,1
"578",20,25,"female","right",1,2,"D.bmp","你","Nonmatching","生人","Stranger","Stranger",1,942,0.942,1
"579",20,25,"female","right",1,3,"D.bmp","生人","Matching","生人","Stranger","Stranger",2,528,0.528,1
"580",20,25,"female","right",1,4,"Tra.bmp","你","Matching","你","Self","Self",1,777,0.777,0
"581",20,25,"female","right",1,5,"D.bmp","生人","Matching","生人","Stranger","Stranger",2,657,0.657,1
"582",20,25,"female","right",1,6,"D.bmp","你","Nonmatching","生人","Stranger","Stranger",1,625,0.625,1
"583",20,25,"female","right",1,7,"Tra.bmp","你","Matching","你","Self","Self",2,553,0.553,1
"584",20,25,"female","right",1,8,"Tra.bmp","你","Matching","你","Self","Self",2,601,0.601,1
"585",20,25,"female","right",1,9,"D.bmp","生人","Matching","生人","Stranger","Stranger",2,560,0.56,1
"586",20,25,"female","right",1,10,"Tra.bmp","你","Matching","你","Self","Self",2,801,0.801,1
"587",20,25,"female","right",1,11,"Tra.bmp","你","Matching","你","Self","Self",2,603,0.603,1
"588",20,25,"female","right",1,12,"D.bmp","生人","Matching","生人","Stranger","Stranger",2,595,0.595,1
"589",20,25,"female","right",1,13,"Tra.bmp","生人","Nonmatching","你","Self","Self",1,771,0.771,1
"590",20,25,"female","right",1,14,"D.bmp","生人","Matching","生人","Stranger","Stranger",2,603,0.603,1
"591",20,25,"female","right",1,15,"Tra.bmp","你","Matching","你","Self","Self",2,595,0.595,1
"592",20,25,"female","right",1,16,"D.bmp","生人","Matching","生人","Stranger","Stranger",2,595,0.595,1
"593",20,25,"female","right",2,17,"Tra.bmp","你","Matching","你","Self","Self",2,531,0.531,1
"594",20,25,"female","right",2,18,"D.bmp","你","Nonmatching","生人","Stranger","Stranger",NA,0,0,0
"595",20,25,"female","right",2,19,"D.bmp","生人","Matching","生人","Stranger","Stranger",2,636,0.636,1
"596",20,25,"female","right",2,20,"D.bmp","生人","Matching","生人","Stranger","Stranger",2,676,0.676,1
"597",20,25,"female","right",2,21,"Tra.bmp","你","Matching","你","Self","Self",2,684,0.684,1
"598",20,25,"female","right",2,22,"D.bmp","生人","Matching","生人","Stranger","Stranger",2,540,0.54,1
"599",20,25,"female","right",2,23,"D.bmp","生人","Matching","生人","Stranger","Stranger",2,556,0.556,1
"600",20,25,"female","right",2,24,"Tra.bmp","你","Matching","你","Self","Self",2,564,0.564,1
"601",20,25,"female","right",2,25,"D.bmp","生人","Matching","生人","Stranger","Stranger",2,524,0.524,1
"602",20,25,"female","right",2,26,"Tra.bmp","生人","Nonmatching","你","Self","Self",2,494,0.494,0
"603",20,25,"female","right",2,27,"D.bmp","生人","Matching","生人","Stranger","Stranger",2,663,0.663,1
"604",20,25,"female","right",2,28,"D.bmp","你","Nonmatching","生人","Stranger","Stranger",2,559,0.559,0
"605",20,25,"female","right",2,29,"Tra.bmp","你","Matching","你","Self","Self",2,519,0.519,1
"606",20,25,"female","right",2,30,"Tra.bmp","你","Matching","你","Self","Self",2,639,0.639,1
"607",20,25,"female","right",2,31,"Tra.bmp","你","Matching","你","Self","Self",2,751,0.751,1
"608",20,25,"female","right",2,32,"Tra.bmp","生人","Nonmatching","你","Self","Self",1,830,0.83,1
"609",20,25,"female","right",3,33,"D.bmp","你","Nonmatching","生人","Stranger","Stranger",2,558,0.558,0
"610",20,25,"female","right",3,34,"Tra.bmp","你","Matching","你","Self","Self",2,576,0.576,1
"611",20,25,"female","right",3,35,"Tra.bmp","你","Matching","你","Self","Self",2,587,0.587,1
"612",20,25,"female","right",3,36,"D.bmp","生人","Matching","生人","Stranger","Stranger",2,643,0.643,1
"613",20,25,"female","right",3,37,"D.bmp","生人","Matching","生人","Stranger","Stranger",2,627,0.627,1
"614",20,25,"female","right",3,38,"Tra.bmp","生人","Nonmatching","你","Self","Self",1,691,0.691,1
"615",20,25,"female","right",3,39,"Tra.bmp","生人","Nonmatching","你","Self","Self",1,579,0.579,1
"616",20,25,"female","right",3,40,"Tra.bmp","你","Matching","你","Self","Self",2,747,0.747,1
"617",20,25,"female","right",3,41,"D.bmp","你","Nonmatching","生人","Stranger","Stranger",1,843,0.843,1
"618",20,25,"female","right",3,42,"D.bmp","生人","Matching","生人","Stranger","Stranger",2,597,0.597,1
"619",20,25,"female","right",3,43,"Tra.bmp","你","Matching","你","Self","Self",1,534,0.534,0
"620",20,25,"female","right",3,44,"D.bmp","生人","Matching","生人","Stranger","Stranger",2,726,0.726,1
"621",20,25,"female","right",3,45,"D.bmp","生人","Matching","生人","Stranger","Stranger",1,758,0.758,0
"622",20,25,"female","right",3,46,"Tra.bmp","你","Matching","你","Self","Self",2,590,0.59,1
"623",20,25,"female","right",3,47,"D.bmp","生人","Matching","生人","Stranger","Stranger",2,622,0.622,1
"624",20,25,"female","right",3,48,"Tra.bmp","你","Matching","你","Self","Self",2,566,0.566,1
"625",20,25,"female","right",4,49,"D.bmp","生人","Matching","生人","Stranger","Stranger",2,635,0.635,1
"626",20,25,"female","right",4,50,"Tra.bmp","你","Matching","你","Self","Self",2,587,0.587,1
"627",20,25,"female","right",4,51,"D.bmp","你","Nonmatching","生人","Stranger","Stranger",2,651,0.651,0
"628",20,25,"female","right",4,52,"Tra.bmp","你","Matching","你","Self","Self",2,499,0.499,1
"629",20,25,"female","right",4,53,"D.bmp","生人","Matching","生人","Stranger","Stranger",2,554,0.554,1
"630",20,25,"female","right",4,54,"Tra.bmp","你","Matching","你","Self","Self",2,586,0.586,1
"631",20,25,"female","right",4,55,"Tra.bmp","你","Matching","你","Self","Self",2,659,0.659,1
"632",20,25,"female","right",4,56,"D.bmp","生人","Matching","生人","Stranger","Stranger",2,539,0.539,1
"633",20,25,"female","right",4,57,"Tra.bmp","生人","Nonmatching","你","Self","Self",1,627,0.627,1
"634",20,25,"female","right",4,58,"D.bmp","生人","Matching","生人","Stranger","Stranger",2,683,0.683,1
"635",20,25,"female","right",4,59,"D.bmp","你","Nonmatching","生人","Stranger","Stranger",1,699,0.699,1
"636",20,25,"female","right",4,60,"Tra.bmp","你","Matching","你","Self","Self",2,739,0.739,1
"637",20,25,"female","right",4,61,"D.bmp","生人","Matching","生人","Stranger","Stranger",2,659,0.659,1
"638",20,25,"female","right",4,62,"Tra.bmp","生人","Nonmatching","你","Self","Self",2,691,0.691,0
"639",20,25,"female","right",4,63,"D.bmp","生人","Matching","生人","Stranger","Stranger",2,655,0.655,1
"640",20,25,"female","right",4,64,"Tra.bmp","你","Matching","你","Self","Self",2,782,0.782,1
"641",20,25,"female","right",5,65,"Tra.bmp","生人","Nonmatching","你","Self","Self",1,670,0.67,1
"642",20,25,"female","right",5,66,"D.bmp","生人","Matching","生人","Stranger","Stranger",2,918,0.918,1
"643",20,25,"female","right",5,67,"Tra.bmp","你","Matching","你","Self","Self",2,542,0.542,1
"644",20,25,"female","right",5,68,"D.bmp","生人","Matching","生人","Stranger","Stranger",2,1062,1.062,1
"645",20,25,"female","right",5,69,"Tra.bmp","你","Matching","你","Self","Self",2,670,0.67,1
"646",20,25,"female","right",5,70,"D.bmp","生人","Matching","生人","Stranger","Stranger",2,662,0.662,1
"647",20,25,"female","right",5,71,"Tra.bmp","你","Matching","你","Self","Self",2,560,0.56,1
"648",20,25,"female","right",5,72,"D.bmp","生人","Matching","生人","Stranger","Stranger",2,602,0.602,1
"649",20,25,"female","right",5,73,"D.bmp","你","Nonmatching","生人","Stranger","Stranger",1,803,0.803,1
"650",20,25,"female","right",5,74,"Tra.bmp","你","Matching","你","Self","Self",2,522,0.522,1
"651",20,25,"female","right",5,75,"Tra.bmp","你","Matching","你","Self","Self",2,579,0.579,1
"652",20,25,"female","right",5,76,"D.bmp","生人","Matching","生人","Stranger","Stranger",2,522,0.522,1
"653",20,25,"female","right",5,77,"Tra.bmp","生人","Nonmatching","你","Self","Self",2,482,0.482,0
"654",20,25,"female","right",5,78,"Tra.bmp","你","Matching","你","Self","Self",2,594,0.594,1
"655",20,25,"female","right",5,79,"D.bmp","生人","Matching","生人","Stranger","Stranger",2,564,0.564,1
"656",20,25,"female","right",5,80,"D.bmp","你","Nonmatching","生人","Stranger","Stranger",1,765,0.765,1
"657",20,25,"female","right",6,81,"Tra.bmp","生人","Nonmatching","你","Self","Self",2,557,0.557,0
"658",20,25,"female","right",6,82,"Tra.bmp","你","Matching","你","Self","Self",2,533,0.533,1
"659",20,25,"female","right",6,83,"Tra.bmp","生人","Nonmatching","你","Self","Self",2,669,0.669,0
"660",20,25,"female","right",6,84,"Tra.bmp","你","Matching","你","Self","Self",2,581,0.581,1
"661",20,25,"female","right",6,85,"D.bmp","生人","Matching","生人","Stranger","Stranger",2,741,0.741,1
"662",20,25,"female","right",6,86,"D.bmp","生人","Matching","生人","Stranger","Stranger",2,645,0.645,1
"663",20,25,"female","right",6,87,"Tra.bmp","你","Matching","你","Self","Self",2,630,0.63,1
"664",20,25,"female","right",6,88,"Tra.bmp","你","Matching","你","Self","Self",2,990,0.99,1
"665",20,25,"female","right",6,89,"D.bmp","生人","Matching","生人","Stranger","Stranger",2,694,0.694,1
"666",20,25,"female","right",6,90,"D.bmp","生人","Matching","生人","Stranger","Stranger",2,830,0.83,1
"667",20,25,"female","right",6,91,"D.bmp","你","Nonmatching","生人","Stranger","Stranger",1,598,0.598,1
"668",20,25,"female","right",6,92,"Tra.bmp","你","Matching","你","Self","Self",2,646,0.646,1
"669",20,25,"female","right",6,93,"D.bmp","生人","Matching","生人","Stranger","Stranger",2,734,0.734,1
"670",20,25,"female","right",6,94,"D.bmp","你","Nonmatching","生人","Stranger","Stranger",1,807,0.807,1
"671",20,25,"female","right",6,95,"D.bmp","生人","Matching","生人","Stranger","Stranger",2,607,0.607,1
"672",20,25,"female","right",6,96,"Tra.bmp","你","Matching","你","Self","Self",2,775,0.775,1
"673",21,26,"male","right",1,1,"P.bmp","生人","Matching","生人","Stranger","Stranger",NA,0,0,0
"674",21,26,"male","right",1,2,"Tra.bmp","你","Matching","你","Self","Self",2,854,0.854,0
"675",21,26,"male","right",1,3,"Tra.bmp","你","Matching","你","Self","Self",NA,0,0,0
"676",21,26,"male","right",1,4,"P.bmp","生人","Matching","生人","Stranger","Stranger",1,894,0.894,1
"677",21,26,"male","right",1,5,"Tra.bmp","你","Matching","你","Self","Self",NA,0,0,0
"678",21,26,"male","right",1,6,"P.bmp","你","Nonmatching","生人","Stranger","Stranger",1,521,0.521,0
"679",21,26,"male","right",1,7,"P.bmp","生人","Matching","生人","Stranger","Stranger",NA,0,0,0
"680",21,26,"male","right",1,8,"P.bmp","你","Nonmatching","生人","Stranger","Stranger",2,873,0.873,1
"681",21,26,"male","right",1,9,"Tra.bmp","生人","Nonmatching","你","Self","Self",NA,0,0,0
"682",21,26,"male","right",1,10,"Tra.bmp","你","Matching","你","Self","Self",2,913,0.913,0
"683",21,26,"male","right",1,11,"Tra.bmp","生人","Nonmatching","你","Self","Self",NA,0,0,0
"684",21,26,"male","right",1,12,"P.bmp","生人","Matching","生人","Stranger","Stranger",1,794,0.794,1
"685",21,26,"male","right",1,13,"Tra.bmp","你","Matching","你","Self","Self",NA,0,0,0
"686",21,26,"male","right",1,14,"P.bmp","生人","Matching","生人","Stranger","Stranger",1,739,0.739,1
"687",21,26,"male","right",1,15,"P.bmp","生人","Matching","生人","Stranger","Stranger",NA,0,0,0
"688",21,26,"male","right",1,16,"Tra.bmp","你","Matching","你","Self","Self",1,907,0.907,1
"689",21,26,"male","right",2,17,"Tra.bmp","你","Matching","你","Self","Self",NA,0,0,0
"690",21,26,"male","right",2,18,"P.bmp","你","Nonmatching","生人","Stranger","Stranger",1,731,0.731,0
"691",21,26,"male","right",2,19,"P.bmp","生人","Matching","生人","Stranger","Stranger",NA,0,0,0
"692",21,26,"male","right",2,20,"Tra.bmp","你","Matching","你","Self","Self",1,651,0.651,1
"693",21,26,"male","right",2,21,"P.bmp","生人","Matching","生人","Stranger","Stranger",NA,0,0,0
"694",21,26,"male","right",2,22,"Tra.bmp","生人","Nonmatching","你","Self","Self",2,796,0.796,1
"695",21,26,"male","right",2,23,"P.bmp","生人","Matching","生人","Stranger","Stranger",NA,0,0,0
"696",21,26,"male","right",2,24,"Tra.bmp","你","Matching","你","Self","Self",2,756,0.756,0
"697",21,26,"male","right",2,25,"Tra.bmp","生人","Nonmatching","你","Self","Self",NA,0,0,0
"698",21,26,"male","right",2,26,"P.bmp","生人","Matching","生人","Stranger","Stranger",NA,0,0,0
"699",21,26,"male","right",2,27,"Tra.bmp","你","Matching","你","Self","Self",NA,0,0,0
"700",21,26,"male","right",2,28,"P.bmp","你","Nonmatching","生人","Stranger","Stranger",2,846,0.846,1
"701",21,26,"male","right",2,29,"P.bmp","生人","Matching","生人","Stranger","Stranger",NA,0,0,0
"702",21,26,"male","right",2,30,"P.bmp","生人","Matching","生人","Stranger","Stranger",2,807,0.807,0
"703",21,26,"male","right",2,31,"Tra.bmp","你","Matching","你","Self","Self",NA,0,0,0
"704",21,26,"male","right",2,32,"Tra.bmp","你","Matching","你","Self","Self",1,711,0.711,1
"705",21,26,"male","right",3,33,"Tra.bmp","你","Matching","你","Self","Self",NA,0,0,0
"706",21,26,"male","right",3,34,"Tra.bmp","生人","Nonmatching","你","Self","Self",1,766,0.766,0
"707",21,26,"male","right",3,35,"Tra.bmp","你","Matching","你","Self","Self",NA,0,0,0
"708",21,26,"male","right",3,36,"P.bmp","生人","Matching","生人","Stranger","Stranger",1,915,0.915,1
"709",21,26,"male","right",3,37,"P.bmp","生人","Matching","生人","Stranger","Stranger",NA,0,0,0
"710",21,26,"male","right",3,38,"P.bmp","你","Nonmatching","生人","Stranger","Stranger",2,635,0.635,1
"711",21,26,"male","right",3,39,"Tra.bmp","你","Matching","你","Self","Self",NA,0,0,0
"712",21,26,"male","right",3,40,"P.bmp","生人","Matching","生人","Stranger","Stranger",1,875,0.875,1
"713",21,26,"male","right",3,41,"Tra.bmp","你","Matching","你","Self","Self",NA,0,0,0
"714",21,26,"male","right",3,42,"P.bmp","生人","Matching","生人","Stranger","Stranger",2,868,0.868,0
"715",21,26,"male","right",3,43,"P.bmp","生人","Matching","生人","Stranger","Stranger",NA,0,0,0
"716",21,26,"male","right",3,44,"P.bmp","生人","Matching","生人","Stranger","Stranger",2,686,0.686,0
"717",21,26,"male","right",3,45,"P.bmp","你","Nonmatching","生人","Stranger","Stranger",NA,0,0,0
"718",21,26,"male","right",3,46,"Tra.bmp","生人","Nonmatching","你","Self","Self",1,510,0.51,0
"719",21,26,"male","right",3,47,"Tra.bmp","你","Matching","你","Self","Self",NA,0,0,0
"720",21,26,"male","right",3,48,"Tra.bmp","你","Matching","你","Self","Self",1,526,0.526,1
"721",21,26,"male","right",4,49,"Tra.bmp","你","Matching","你","Self","Self",NA,0,0,0
"722",21,26,"male","right",4,50,"Tra.bmp","你","Matching","你","Self","Self",1,601,0.601,1
"723",21,26,"male","right",4,51,"Tra.bmp","你","Matching","你","Self","Self",NA,0,0,0
"724",21,26,"male","right",4,52,"P.bmp","你","Nonmatching","生人","Stranger","Stranger",2,672,0.672,1
"725",21,26,"male","right",4,53,"Tra.bmp","你","Matching","你","Self","Self",NA,0,0,0
"726",21,26,"male","right",4,54,"P.bmp","生人","Matching","生人","Stranger","Stranger",1,738,0.738,1
"727",21,26,"male","right",4,55,"P.bmp","生人","Matching","生人","Stranger","Stranger",NA,0,0,0
"728",21,26,"male","right",4,56,"P.bmp","生人","Matching","生人","Stranger","Stranger",2,795,0.795,0
"729",21,26,"male","right",4,57,"Tra.bmp","你","Matching","你","Self","Self",NA,0,0,0
"730",21,26,"male","right",4,58,"P.bmp","生人","Matching","生人","Stranger","Stranger",2,643,0.643,0
"731",21,26,"male","right",4,59,"P.bmp","你","Nonmatching","生人","Stranger","Stranger",NA,0,0,0
"732",21,26,"male","right",4,60,"Tra.bmp","生人","Nonmatching","你","Self","Self",1,963,0.963,0
"733",21,26,"male","right",4,61,"P.bmp","生人","Matching","生人","Stranger","Stranger",NA,0,0,0
"734",21,26,"male","right",4,62,"Tra.bmp","生人","Nonmatching","你","Self","Self",1,885,0.885,0
"735",21,26,"male","right",4,63,"Tra.bmp","你","Matching","你","Self","Self",NA,0,0,0
"736",21,26,"male","right",4,64,"P.bmp","生人","Matching","生人","Stranger","Stranger",2,598,0.598,0
"737",21,26,"male","right",5,65,"Tra.bmp","你","Matching","你","Self","Self",NA,0,0,0
"738",21,26,"male","right",5,66,"Tra.bmp","生人","Nonmatching","你","Self","Self",1,710,0.71,0
"739",21,26,"male","right",5,67,"P.bmp","生人","Matching","生人","Stranger","Stranger",NA,0,0,0
"740",21,26,"male","right",5,68,"P.bmp","生人","Matching","生人","Stranger","Stranger",1,782,0.782,1
"741",21,26,"male","right",5,69,"Tra.bmp","你","Matching","你","Self","Self",NA,0,0,0
"742",21,26,"male","right",5,70,"Tra.bmp","你","Matching","你","Self","Self",1,505,0.505,1
"743",21,26,"male","right",5,71,"P.bmp","你","Nonmatching","生人","Stranger","Stranger",NA,0,0,0
"744",21,26,"male","right",5,72,"P.bmp","你","Nonmatching","生人","Stranger","Stranger",1,768,0.768,0
"745",21,26,"male","right",5,73,"Tra.bmp","你","Matching","你","Self","Self",NA,0,0,0
"746",21,26,"male","right",5,74,"Tra.bmp","生人","Nonmatching","你","Self","Self",1,776,0.776,0
"747",21,26,"male","right",5,75,"P.bmp","生人","Matching","生人","Stranger","Stranger",NA,0,0,0
"748",21,26,"male","right",5,76,"P.bmp","生人","Matching","生人","Stranger","Stranger",1,945,0.945,1
"749",21,26,"male","right",5,77,"Tra.bmp","你","Matching","你","Self","Self",NA,0,0,0
"750",21,26,"male","right",5,78,"P.bmp","生人","Matching","生人","Stranger","Stranger",2,561,0.561,0
"751",21,26,"male","right",5,79,"Tra.bmp","你","Matching","你","Self","Self",NA,0,0,0
"752",21,26,"male","right",5,80,"P.bmp","生人","Matching","生人","Stranger","Stranger",1,705,0.705,1
"753",21,26,"male","right",6,81,"Tra.bmp","你","Matching","你","Self","Self",NA,0,0,0
"754",21,26,"male","right",6,82,"Tra.bmp","你","Matching","你","Self","Self",2,961,0.961,0
"755",21,26,"male","right",6,83,"P.bmp","生人","Matching","生人","Stranger","Stranger",NA,0,0,0
"756",21,26,"male","right",6,84,"P.bmp","生人","Matching","生人","Stranger","Stranger",1,763,0.763,1
"757",21,26,"male","right",6,85,"Tra.bmp","生人","Nonmatching","你","Self","Self",NA,0,0,0
"758",21,26,"male","right",6,86,"Tra.bmp","你","Matching","你","Self","Self",NA,0,0,0
"759",21,26,"male","right",6,87,"Tra.bmp","你","Matching","你","Self","Self",NA,0,0,0
"760",21,26,"male","right",6,88,"Tra.bmp","生人","Nonmatching","你","Self","Self",2,1076,1.076,1
"761",21,26,"male","right",6,89,"P.bmp","生人","Matching","生人","Stranger","Stranger",NA,0,0,0
"762",21,26,"male","right",6,90,"P.bmp","生人","Matching","生人","Stranger","Stranger",1,684,0.684,1
"763",21,26,"male","right",6,91,"P.bmp","你","Nonmatching","生人","Stranger","Stranger",NA,0,0,0
"764",21,26,"male","right",6,92,"P.bmp","你","Nonmatching","生人","Stranger","Stranger",2,781,0.781,1
"765",21,26,"male","right",6,93,"Tra.bmp","你","Matching","你","Self","Self",NA,0,0,0
"766",21,26,"male","right",6,94,"P.bmp","生人","Matching","生人","Stranger","Stranger",1,1062,1.062,1
"767",21,26,"male","right",6,95,"Tra.bmp","你","Matching","你","Self","Self",NA,0,0,0
"768",21,26,"male","right",6,96,"P.bmp","生人","Matching","生人","Stranger","Stranger",1,934,0.934,1
"769",22,23,"male","right",1,1,"S.bmp","你","Matching","你","Self","Self",2,613,0.613,1
"770",22,23,"male","right",1,2,"P.bmp","生人","Matching","生人","Stranger","Stranger",1,647,0.647,0
"771",22,23,"male","right",1,3,"P.bmp","生人","Matching","生人","Stranger","Stranger",2,833,0.833,1
"772",22,23,"male","right",1,4,"S.bmp","生人","Nonmatching","你","Self","Self",1,739,0.739,1
"773",22,23,"male","right",1,5,"S.bmp","你","Matching","你","Self","Self",2,661,0.661,1
"774",22,23,"male","right",1,6,"S.bmp","你","Matching","你","Self","Self",2,639,0.639,1
"775",22,23,"male","right",1,7,"P.bmp","你","Nonmatching","生人","Stranger","Stranger",1,761,0.761,1
"776",22,23,"male","right",1,8,"S.bmp","你","Matching","你","Self","Self",2,523,0.523,1
"777",22,23,"male","right",1,9,"P.bmp","生人","Matching","生人","Stranger","Stranger",1,830,0.83,0
"778",22,23,"male","right",1,10,"P.bmp","生人","Matching","生人","Stranger","Stranger",1,816,0.816,0
"779",22,23,"male","right",1,11,"P.bmp","你","Nonmatching","生人","Stranger","Stranger",NA,0,0,0
"780",22,23,"male","right",1,12,"P.bmp","生人","Matching","生人","Stranger","Stranger",1,980,0.98,0
"781",22,23,"male","right",1,13,"S.bmp","你","Matching","你","Self","Self",2,934,0.934,1
"782",22,23,"male","right",1,14,"S.bmp","生人","Nonmatching","你","Self","Self",1,888,0.888,1
"783",22,23,"male","right",1,15,"P.bmp","生人","Matching","生人","Stranger","Stranger",NA,0,0,0
"784",22,23,"male","right",1,16,"S.bmp","你","Matching","你","Self","Self",2,883,0.883,1
"785",22,23,"male","right",2,17,"S.bmp","你","Matching","你","Self","Self",2,653,0.653,1
"786",22,23,"male","right",2,18,"P.bmp","生人","Matching","生人","Stranger","Stranger",1,615,0.615,0
"787",22,23,"male","right",2,19,"P.bmp","生人","Matching","生人","Stranger","Stranger",2,577,0.577,1
"788",22,23,"male","right",2,20,"S.bmp","你","Matching","你","Self","Self",2,587,0.587,1
"789",22,23,"male","right",2,21,"P.bmp","你","Nonmatching","生人","Stranger","Stranger",1,693,0.693,1
"790",22,23,"male","right",2,22,"P.bmp","生人","Matching","生人","Stranger","Stranger",2,679,0.679,1
"791",22,23,"male","right",2,23,"S.bmp","你","Matching","你","Self","Self",2,585,0.585,1
"792",22,23,"male","right",2,24,"P.bmp","生人","Matching","生人","Stranger","Stranger",2,467,0.467,1
"793",22,23,"male","right",2,25,"S.bmp","你","Matching","你","Self","Self",2,774,0.774,1
"794",22,23,"male","right",2,26,"S.bmp","你","Matching","你","Self","Self",2,624,0.624,1
"795",22,23,"male","right",2,27,"S.bmp","生人","Nonmatching","你","Self","Self",2,450,0.45,0
"796",22,23,"male","right",2,28,"S.bmp","生人","Nonmatching","你","Self","Self",NA,0,0,0
"797",22,23,"male","right",2,29,"P.bmp","生人","Matching","生人","Stranger","Stranger",2,990,0.99,1
"798",22,23,"male","right",2,30,"S.bmp","你","Matching","你","Self","Self",2,560,0.56,1
"799",22,23,"male","right",2,31,"P.bmp","生人","Matching","生人","Stranger","Stranger",2,650,0.65,1
"800",22,23,"male","right",2,32,"P.bmp","你","Nonmatching","生人","Stranger","Stranger",1,652,0.652,1
"801",22,23,"male","right",3,33,"P.bmp","生人","Matching","生人","Stranger","Stranger",2,726,0.726,1
"802",22,23,"male","right",3,34,"P.bmp","生人","Matching","生人","Stranger","Stranger",2,552,0.552,1
"803",22,23,"male","right",3,35,"S.bmp","你","Matching","你","Self","Self",2,649,0.649,1
"804",22,23,"male","right",3,36,"S.bmp","你","Matching","你","Self","Self",2,603,0.603,1
"805",22,23,"male","right",3,37,"P.bmp","生人","Matching","生人","Stranger","Stranger",2,621,0.621,1
"806",22,23,"male","right",3,38,"P.bmp","生人","Matching","生人","Stranger","Stranger",2,519,0.519,1
"807",22,23,"male","right",3,39,"P.bmp","你","Nonmatching","生人","Stranger","Stranger",1,657,0.657,1
"808",22,23,"male","right",3,40,"S.bmp","生人","Nonmatching","你","Self","Self",1,763,0.763,1
"809",22,23,"male","right",3,41,"S.bmp","你","Matching","你","Self","Self",2,638,0.638,1
"810",22,23,"male","right",3,42,"S.bmp","你","Matching","你","Self","Self",2,688,0.688,1
"811",22,23,"male","right",3,43,"S.bmp","你","Matching","你","Self","Self",2,554,0.554,1
"812",22,23,"male","right",3,44,"P.bmp","生人","Matching","生人","Stranger","Stranger",2,564,0.564,1
"813",22,23,"male","right",3,45,"S.bmp","生人","Nonmatching","你","Self","Self",1,638,0.638,1
"814",22,23,"male","right",3,46,"P.bmp","生人","Matching","生人","Stranger","Stranger",1,720,0.72,0
"815",22,23,"male","right",3,47,"S.bmp","你","Matching","你","Self","Self",2,554,0.554,1
"816",22,23,"male","right",3,48,"P.bmp","你","Nonmatching","生人","Stranger","Stranger",1,668,0.668,1
"817",22,23,"male","right",4,49,"P.bmp","生人","Matching","生人","Stranger","Stranger",2,714,0.714,1
"818",22,23,"male","right",4,50,"P.bmp","生人","Matching","生人","Stranger","Stranger",2,651,0.651,1
"819",22,23,"male","right",4,51,"S.bmp","你","Matching","你","Self","Self",2,453,0.453,1
"820",22,23,"male","right",4,52,"S.bmp","生人","Nonmatching","你","Self","Self",2,447,0.447,0
"821",22,23,"male","right",4,53,"P.bmp","生人","Matching","生人","Stranger","Stranger",2,586,0.586,1
"822",22,23,"male","right",4,54,"P.bmp","你","Nonmatching","生人","Stranger","Stranger",1,604,0.604,1
"823",22,23,"male","right",4,55,"P.bmp","生人","Matching","生人","Stranger","Stranger",2,638,0.638,1
"824",22,23,"male","right",4,56,"P.bmp","生人","Matching","生人","Stranger","Stranger",2,584,0.584,1
"825",22,23,"male","right",4,57,"P.bmp","你","Nonmatching","生人","Stranger","Stranger",1,666,0.666,1
"826",22,23,"male","right",4,58,"S.bmp","你","Matching","你","Self","Self",2,556,0.556,1
"827",22,23,"male","right",4,59,"S.bmp","你","Matching","你","Self","Self",2,446,0.446,1
"828",22,23,"male","right",4,60,"S.bmp","你","Matching","你","Self","Self",2,424,0.424,1
"829",22,23,"male","right",4,61,"S.bmp","你","Matching","你","Self","Self",2,474,0.474,1
"830",22,23,"male","right",4,62,"S.bmp","生人","Nonmatching","你","Self","Self",2,404,0.404,0
"831",22,23,"male","right",4,63,"S.bmp","你","Matching","你","Self","Self",2,494,0.494,1
"832",22,23,"male","right",4,64,"P.bmp","生人","Matching","生人","Stranger","Stranger",2,712,0.712,1
"833",22,23,"male","right",5,65,"S.bmp","生人","Nonmatching","你","Self","Self",1,690,0.69,1
"834",22,23,"male","right",5,66,"P.bmp","你","Nonmatching","生人","Stranger","Stranger",1,924,0.924,1
"835",22,23,"male","right",5,67,"P.bmp","生人","Matching","生人","Stranger","Stranger",2,686,0.686,1
"836",22,23,"male","right",5,68,"P.bmp","生人","Matching","生人","Stranger","Stranger",2,663,0.663,1
"837",22,23,"male","right",5,69,"P.bmp","生人","Matching","生人","Stranger","Stranger",2,578,0.578,1
"838",22,23,"male","right",5,70,"S.bmp","你","Matching","你","Self","Self",1,684,0.684,0
"839",22,23,"male","right",5,71,"S.bmp","你","Matching","你","Self","Self",2,526,0.526,1
"840",22,23,"male","right",5,72,"P.bmp","生人","Matching","生人","Stranger","Stranger",2,688,0.688,1
"841",22,23,"male","right",5,73,"S.bmp","你","Matching","你","Self","Self",2,578,0.578,1
"842",22,23,"male","right",5,74,"S.bmp","你","Matching","你","Self","Self",2,564,0.564,1
"843",22,23,"male","right",5,75,"P.bmp","生人","Matching","生人","Stranger","Stranger",2,542,0.542,1
"844",22,23,"male","right",5,76,"S.bmp","你","Matching","你","Self","Self",2,520,0.52,1
"845",22,23,"male","right",5,77,"S.bmp","你","Matching","你","Self","Self",2,618,0.618,1
"846",22,23,"male","right",5,78,"P.bmp","生人","Matching","生人","Stranger","Stranger",2,596,0.596,1
"847",22,23,"male","right",5,79,"P.bmp","你","Nonmatching","生人","Stranger","Stranger",1,726,0.726,1
"848",22,23,"male","right",5,80,"S.bmp","生人","Nonmatching","你","Self","Self",2,768,0.768,0
"849",22,23,"male","right",6,81,"P.bmp","生人","Matching","生人","Stranger","Stranger",2,698,0.698,1
"850",22,23,"male","right",6,82,"P.bmp","生人","Matching","生人","Stranger","Stranger",2,716,0.716,1
"851",22,23,"male","right",6,83,"S.bmp","你","Matching","你","Self","Self",2,526,0.526,1
"852",22,23,"male","right",6,84,"P.bmp","生人","Matching","生人","Stranger","Stranger",2,552,0.552,1
"853",22,23,"male","right",6,85,"P.bmp","你","Nonmatching","生人","Stranger","Stranger",1,771,0.771,1
"854",22,23,"male","right",6,86,"S.bmp","生人","Nonmatching","你","Self","Self",1,733,0.733,1
"855",22,23,"male","right",6,87,"S.bmp","你","Matching","你","Self","Self",2,606,0.606,1
"856",22,23,"male","right",6,88,"P.bmp","生人","Matching","生人","Stranger","Stranger",2,416,0.416,1
"857",22,23,"male","right",6,89,"S.bmp","生人","Nonmatching","你","Self","Self",2,754,0.754,0
"858",22,23,"male","right",6,90,"S.bmp","你","Matching","你","Self","Self",2,484,0.484,1
"859",22,23,"male","right",6,91,"S.bmp","你","Matching","你","Self","Self",2,518,0.518,1
"860",22,23,"male","right",6,92,"P.bmp","你","Nonmatching","生人","Stranger","Stranger",1,1080,1.08,1
"861",22,23,"male","right",6,93,"S.bmp","你","Matching","你","Self","Self",2,610,0.61,1
"862",22,23,"male","right",6,94,"P.bmp","生人","Matching","生人","Stranger","Stranger",2,700,0.7,1
"863",22,23,"male","right",6,95,"S.bmp","你","Matching","你","Self","Self",2,558,0.558,1
"864",22,23,"male","right",6,96,"P.bmp","生人","Matching","生人","Stranger","Stranger",2,696,0.696,1
"865",23,25,"female","right",1,1,"S.bmp","你","Matching","你","Self","Self",1,686,0.686,1
"866",23,25,"female","right",1,2,"T.bmp","生人","Matching","生人","Stranger","Stranger",1,712,0.712,1
"867",23,25,"female","right",1,3,"S.bmp","你","Matching","你","Self","Self",1,513,0.513,1
"868",23,25,"female","right",1,4,"S.bmp","生人","Nonmatching","你","Self","Self",1,569,0.569,0
"869",23,25,"female","right",1,5,"S.bmp","你","Matching","你","Self","Self",1,569,0.569,1
"870",23,25,"female","right",1,6,"S.bmp","生人","Nonmatching","你","Self","Self",2,529,0.529,1
"871",23,25,"female","right",1,7,"S.bmp","你","Matching","你","Self","Self",1,497,0.497,1
"872",23,25,"female","right",1,8,"T.bmp","生人","Matching","生人","Stranger","Stranger",1,673,0.673,1
"873",23,25,"female","right",1,9,"S.bmp","你","Matching","你","Self","Self",1,507,0.507,1
"874",23,25,"female","right",1,10,"T.bmp","生人","Matching","生人","Stranger","Stranger",1,452,0.452,1
"875",23,25,"female","right",1,11,"T.bmp","你","Nonmatching","生人","Stranger","Stranger",2,675,0.675,1
"876",23,25,"female","right",1,12,"T.bmp","你","Nonmatching","生人","Stranger","Stranger",2,963,0.963,1
"877",23,25,"female","right",1,13,"T.bmp","生人","Matching","生人","Stranger","Stranger",1,827,0.827,1
"878",23,25,"female","right",1,14,"T.bmp","生人","Matching","生人","Stranger","Stranger",1,563,0.563,1
"879",23,25,"female","right",1,15,"S.bmp","你","Matching","你","Self","Self",1,555,0.555,1
"880",23,25,"female","right",1,16,"T.bmp","生人","Matching","生人","Stranger","Stranger",1,795,0.795,1
"881",23,25,"female","right",2,17,"T.bmp","生人","Matching","生人","Stranger","Stranger",1,477,0.477,1
"882",23,25,"female","right",2,18,"S.bmp","你","Matching","你","Self","Self",1,526,0.526,1
"883",23,25,"female","right",2,19,"S.bmp","生人","Nonmatching","你","Self","Self",1,430,0.43,0
"884",23,25,"female","right",2,20,"T.bmp","你","Nonmatching","生人","Stranger","Stranger",1,526,0.526,0
"885",23,25,"female","right",2,21,"S.bmp","你","Matching","你","Self","Self",1,494,0.494,1
"886",23,25,"female","right",2,22,"S.bmp","你","Matching","你","Self","Self",1,430,0.43,1
"887",23,25,"female","right",2,23,"S.bmp","你","Matching","你","Self","Self",1,606,0.606,1
"888",23,25,"female","right",2,24,"T.bmp","生人","Matching","生人","Stranger","Stranger",1,679,0.679,1
"889",23,25,"female","right",2,25,"T.bmp","你","Nonmatching","生人","Stranger","Stranger",2,833,0.833,1
"890",23,25,"female","right",2,26,"T.bmp","生人","Matching","生人","Stranger","Stranger",1,585,0.585,1
"891",23,25,"female","right",2,27,"T.bmp","生人","Matching","生人","Stranger","Stranger",1,513,0.513,1
"892",23,25,"female","right",2,28,"S.bmp","你","Matching","你","Self","Self",1,793,0.793,1
"893",23,25,"female","right",2,29,"T.bmp","生人","Matching","生人","Stranger","Stranger",1,761,0.761,1
"894",23,25,"female","right",2,30,"S.bmp","你","Matching","你","Self","Self",1,465,0.465,1
"895",23,25,"female","right",2,31,"T.bmp","生人","Matching","生人","Stranger","Stranger",1,481,0.481,1
"896",23,25,"female","right",2,32,"S.bmp","生人","Nonmatching","你","Self","Self",2,770,0.77,1
"897",23,25,"female","right",3,33,"T.bmp","生人","Matching","生人","Stranger","Stranger",1,595,0.595,1
"898",23,25,"female","right",3,34,"S.bmp","你","Matching","你","Self","Self",1,483,0.483,1
"899",23,25,"female","right",3,35,"T.bmp","生人","Matching","生人","Stranger","Stranger",1,699,0.699,1
"900",23,25,"female","right",3,36,"S.bmp","你","Matching","你","Self","Self",1,563,0.563,1
"901",23,25,"female","right",3,37,"S.bmp","你","Matching","你","Self","Self",1,403,0.403,1
"902",23,25,"female","right",3,38,"S.bmp","你","Matching","你","Self","Self",1,371,0.371,1
"903",23,25,"female","right",3,39,"T.bmp","生人","Matching","生人","Stranger","Stranger",1,460,0.46,1
"904",23,25,"female","right",3,40,"S.bmp","你","Matching","你","Self","Self",1,500,0.5,1
"905",23,25,"female","right",3,41,"S.bmp","生人","Nonmatching","你","Self","Self",2,636,0.636,1
"906",23,25,"female","right",3,42,"T.bmp","你","Nonmatching","生人","Stranger","Stranger",2,860,0.86,1
"907",23,25,"female","right",3,43,"T.bmp","你","Nonmatching","生人","Stranger","Stranger",2,1077,1.077,1
"908",23,25,"female","right",3,44,"T.bmp","生人","Matching","生人","Stranger","Stranger",1,612,0.612,1
"909",23,25,"female","right",3,45,"S.bmp","生人","Nonmatching","你","Self","Self",2,620,0.62,1
"910",23,25,"female","right",3,46,"T.bmp","生人","Matching","生人","Stranger","Stranger",1,796,0.796,1
"911",23,25,"female","right",3,47,"T.bmp","生人","Matching","生人","Stranger","Stranger",1,710,0.71,1
"912",23,25,"female","right",3,48,"S.bmp","你","Matching","你","Self","Self",1,615,0.615,1
"913",23,25,"female","right",4,49,"T.bmp","生人","Matching","生人","Stranger","Stranger",1,752,0.752,1
"914",23,25,"female","right",4,50,"S.bmp","你","Matching","你","Self","Self",1,536,0.536,1
"915",23,25,"female","right",4,51,"S.bmp","你","Matching","你","Self","Self",1,555,0.555,1
"916",23,25,"female","right",4,52,"S.bmp","生人","Nonmatching","你","Self","Self",2,723,0.723,1
"917",23,25,"female","right",4,53,"S.bmp","你","Matching","你","Self","Self",1,515,0.515,1
"918",23,25,"female","right",4,54,"S.bmp","生人","Nonmatching","你","Self","Self",2,915,0.915,1
"919",23,25,"female","right",4,55,"S.bmp","你","Matching","你","Self","Self",1,555,0.555,1
"920",23,25,"female","right",4,56,"S.bmp","你","Matching","你","Self","Self",1,571,0.571,1
"921",23,25,"female","right",4,57,"S.bmp","你","Matching","你","Self","Self",1,507,0.507,1
"922",23,25,"female","right",4,58,"T.bmp","生人","Matching","生人","Stranger","Stranger",1,581,0.581,1
"923",23,25,"female","right",4,59,"T.bmp","生人","Matching","生人","Stranger","Stranger",1,686,0.686,1
"924",23,25,"female","right",4,60,"T.bmp","生人","Matching","生人","Stranger","Stranger",1,518,0.518,1
"925",23,25,"female","right",4,61,"T.bmp","你","Nonmatching","生人","Stranger","Stranger",1,574,0.574,0
"926",23,25,"female","right",4,62,"T.bmp","生人","Matching","生人","Stranger","Stranger",1,742,0.742,1
"927",23,25,"female","right",4,63,"T.bmp","生人","Matching","生人","Stranger","Stranger",1,566,0.566,1
"928",23,25,"female","right",4,64,"T.bmp","你","Nonmatching","生人","Stranger","Stranger",2,862,0.862,1
"929",23,25,"female","right",5,65,"S.bmp","你","Matching","你","Self","Self",1,414,0.414,1
"930",23,25,"female","right",5,66,"S.bmp","你","Matching","你","Self","Self",1,431,0.431,1
"931",23,25,"female","right",5,67,"S.bmp","你","Matching","你","Self","Self",1,455,0.455,1
"932",23,25,"female","right",5,68,"S.bmp","你","Matching","你","Self","Self",1,471,0.471,1
"933",23,25,"female","right",5,69,"S.bmp","生人","Nonmatching","你","Self","Self",2,607,0.607,1
"934",23,25,"female","right",5,70,"S.bmp","你","Matching","你","Self","Self",1,718,0.718,1
"935",23,25,"female","right",5,71,"T.bmp","你","Nonmatching","生人","Stranger","Stranger",2,830,0.83,1
"936",23,25,"female","right",5,72,"T.bmp","生人","Matching","生人","Stranger","Stranger",1,678,0.678,1
"937",23,25,"female","right",5,73,"T.bmp","生人","Matching","生人","Stranger","Stranger",1,503,0.503,1
"938",23,25,"female","right",5,74,"T.bmp","生人","Matching","生人","Stranger","Stranger",1,463,0.463,1
"939",23,25,"female","right",5,75,"T.bmp","生人","Matching","生人","Stranger","Stranger",1,487,0.487,1
"940",23,25,"female","right",5,76,"T.bmp","你","Nonmatching","生人","Stranger","Stranger",2,791,0.791,1
"941",23,25,"female","right",5,77,"S.bmp","你","Matching","你","Self","Self",1,415,0.415,1
"942",23,25,"female","right",5,78,"S.bmp","生人","Nonmatching","你","Self","Self",2,871,0.871,1
"943",23,25,"female","right",5,79,"T.bmp","生人","Matching","生人","Stranger","Stranger",1,631,0.631,1
"944",23,25,"female","right",5,80,"T.bmp","生人","Matching","生人","Stranger","Stranger",1,535,0.535,1
"945",23,25,"female","right",6,81,"T.bmp","你","Nonmatching","生人","Stranger","Stranger",2,840,0.84,1
"946",23,25,"female","right",6,82,"S.bmp","你","Matching","你","Self","Self",1,432,0.432,1
"947",23,25,"female","right",6,83,"T.bmp","生人","Matching","生人","Stranger","Stranger",1,664,0.664,1
"948",23,25,"female","right",6,84,"S.bmp","你","Matching","你","Self","Self",1,656,0.656,1
"949",23,25,"female","right",6,85,"T.bmp","生人","Matching","生人","Stranger","Stranger",1,696,0.696,1
"950",23,25,"female","right",6,86,"S.bmp","生人","Nonmatching","你","Self","Self",2,664,0.664,1
"951",23,25,"female","right",6,87,"T.bmp","你","Nonmatching","生人","Stranger","Stranger",1,464,0.464,0
"952",23,25,"female","right",6,88,"S.bmp","你","Matching","你","Self","Self",1,537,0.537,1
"953",23,25,"female","right",6,89,"T.bmp","生人","Matching","生人","Stranger","Stranger",1,602,0.602,1
"954",23,25,"female","right",6,90,"T.bmp","生人","Matching","生人","Stranger","Stranger",1,731,0.731,1
"955",23,25,"female","right",6,91,"S.bmp","你","Matching","你","Self","Self",1,530,0.53,1
"956",23,25,"female","right",6,92,"S.bmp","你","Matching","你","Self","Self",1,474,0.474,1
"957",23,25,"female","right",6,93,"T.bmp","生人","Matching","生人","Stranger","Stranger",1,682,0.682,1
"958",23,25,"female","right",6,94,"S.bmp","你","Matching","你","Self","Self",1,490,0.49,1
"959",23,25,"female","right",6,95,"S.bmp","生人","Nonmatching","你","Self","Self",2,818,0.818,1
"960",23,25,"female","right",6,96,"T.bmp","生人","Matching","生人","Stranger","Stranger",1,684,0.684,1
"961",24,25,"male","right",1,1,"T.bmp","生人","Matching","生人","Stranger","Stranger",2,585,0.585,1
"962",24,25,"male","right",1,2,"C.bmp","你","Matching","你","Self","Self",2,537,0.537,1
"963",24,25,"male","right",1,3,"C.bmp","你","Matching","你","Self","Self",2,689,0.689,1
"964",24,25,"male","right",1,4,"T.bmp","生人","Matching","生人","Stranger","Stranger",2,809,0.809,1
"965",24,25,"male","right",1,5,"C.bmp","你","Matching","你","Self","Self",2,745,0.745,1
"966",24,25,"male","right",1,6,"C.bmp","你","Matching","你","Self","Self",2,612,0.612,1
"967",24,25,"male","right",1,7,"C.bmp","你","Matching","你","Self","Self",2,588,0.588,1
"968",24,25,"male","right",1,8,"C.bmp","你","Matching","你","Self","Self",2,548,0.548,1
"969",24,25,"male","right",1,9,"T.bmp","你","Nonmatching","生人","Stranger","Stranger",1,684,0.684,1
"970",24,25,"male","right",1,10,"T.bmp","你","Nonmatching","生人","Stranger","Stranger",1,700,0.7,1
"971",24,25,"male","right",1,11,"T.bmp","生人","Matching","生人","Stranger","Stranger",2,580,0.58,1
"972",24,25,"male","right",1,12,"C.bmp","生人","Nonmatching","你","Self","Self",1,812,0.812,1
"973",24,25,"male","right",1,13,"T.bmp","生人","Matching","生人","Stranger","Stranger",2,893,0.893,1
"974",24,25,"male","right",1,14,"T.bmp","生人","Matching","生人","Stranger","Stranger",2,661,0.661,1
"975",24,25,"male","right",1,15,"C.bmp","生人","Nonmatching","你","Self","Self",1,709,0.709,1
"976",24,25,"male","right",1,16,"T.bmp","生人","Matching","生人","Stranger","Stranger",2,741,0.741,1
"977",24,25,"male","right",2,17,"C.bmp","生人","Nonmatching","你","Self","Self",1,797,0.797,1
"978",24,25,"male","right",2,18,"T.bmp","生人","Matching","生人","Stranger","Stranger",2,860,0.86,1
"979",24,25,"male","right",2,19,"C.bmp","你","Matching","你","Self","Self",2,597,0.597,1
"980",24,25,"male","right",2,20,"C.bmp","你","Matching","你","Self","Self",2,580,0.58,1
"981",24,25,"male","right",2,21,"T.bmp","你","Nonmatching","生人","Stranger","Stranger",1,695,0.695,1
"982",24,25,"male","right",2,22,"T.bmp","你","Nonmatching","生人","Stranger","Stranger",1,663,0.663,1
"983",24,25,"male","right",2,23,"T.bmp","生人","Matching","生人","Stranger","Stranger",2,775,0.775,1
"984",24,25,"male","right",2,24,"C.bmp","你","Matching","你","Self","Self",2,543,0.543,1
"985",24,25,"male","right",2,25,"T.bmp","生人","Matching","生人","Stranger","Stranger",2,807,0.807,1
"986",24,25,"male","right",2,26,"T.bmp","生人","Matching","生人","Stranger","Stranger",2,720,0.72,1
"987",24,25,"male","right",2,27,"C.bmp","你","Matching","你","Self","Self",2,655,0.655,1
"988",24,25,"male","right",2,28,"C.bmp","生人","Nonmatching","你","Self","Self",1,896,0.896,1
"989",24,25,"male","right",2,29,"C.bmp","你","Matching","你","Self","Self",2,608,0.608,1
"990",24,25,"male","right",2,30,"T.bmp","生人","Matching","生人","Stranger","Stranger",2,656,0.656,1
"991",24,25,"male","right",2,31,"C.bmp","你","Matching","你","Self","Self",2,640,0.64,1
"992",24,25,"male","right",2,32,"T.bmp","生人","Matching","生人","Stranger","Stranger",2,680,0.68,1
"993",24,25,"male","right",3,33,"T.bmp","生人","Matching","生人","Stranger","Stranger",2,776,0.776,1
"994",24,25,"male","right",3,34,"T.bmp","生人","Matching","生人","Stranger","Stranger",2,720,0.72,1
"995",24,25,"male","right",3,35,"T.bmp","生人","Matching","生人","Stranger","Stranger",2,592,0.592,1
"996",24,25,"male","right",3,36,"T.bmp","你","Nonmatching","生人","Stranger","Stranger",1,875,0.875,1
"997",24,25,"male","right",3,37,"C.bmp","生人","Nonmatching","你","Self","Self",1,899,0.899,1
"998",24,25,"male","right",3,38,"T.bmp","生人","Matching","生人","Stranger","Stranger",2,707,0.707,1
"999",24,25,"male","right",3,39,"C.bmp","你","Matching","你","Self","Self",2,571,0.571,1
"1000",24,25,"male","right",3,40,"C.bmp","你","Matching","你","Self","Self",2,523,0.523,1
"1001",24,25,"male","right",3,41,"C.bmp","你","Matching","你","Self","Self",2,546,0.546,1
"1002",24,25,"male","right",3,42,"C.bmp","你","Matching","你","Self","Self",2,722,0.722,1
"1003",24,25,"male","right",3,43,"T.bmp","你","Nonmatching","生人","Stranger","Stranger",1,907,0.907,1
"1004",24,25,"male","right",3,44,"C.bmp","你","Matching","你","Self","Self",2,661,0.661,1
"1005",24,25,"male","right",3,45,"C.bmp","你","Matching","你","Self","Self",2,557,0.557,1
"1006",24,25,"male","right",3,46,"T.bmp","生人","Matching","生人","Stranger","Stranger",2,813,0.813,1
"1007",24,25,"male","right",3,47,"C.bmp","生人","Nonmatching","你","Self","Self",1,781,0.781,1
"1008",24,25,"male","right",3,48,"T.bmp","生人","Matching","生人","Stranger","Stranger",2,757,0.757,1
"1009",24,25,"male","right",4,49,"T.bmp","生人","Matching","生人","Stranger","Stranger",2,578,0.578,1
"1010",24,25,"male","right",4,50,"T.bmp","生人","Matching","生人","Stranger","Stranger",2,978,0.978,1
"1011",24,25,"male","right",4,51,"C.bmp","生人","Nonmatching","你","Self","Self",1,962,0.962,1
"1012",24,25,"male","right",4,52,"C.bmp","你","Matching","你","Self","Self",2,642,0.642,1
"1013",24,25,"male","right",4,53,"T.bmp","生人","Matching","生人","Stranger","Stranger",2,802,0.802,1
"1014",24,25,"male","right",4,54,"T.bmp","生人","Matching","生人","Stranger","Stranger",2,586,0.586,1
"1015",24,25,"male","right",4,55,"C.bmp","你","Matching","你","Self","Self",2,597,0.597,1
"1016",24,25,"male","right",4,56,"C.bmp","你","Matching","你","Self","Self",2,700,0.7,1
"1017",24,25,"male","right",4,57,"C.bmp","你","Matching","你","Self","Self",2,493,0.493,1
"1018",24,25,"male","right",4,58,"T.bmp","生人","Matching","生人","Stranger","Stranger",NA,0,0,0
"1019",24,25,"male","right",4,59,"C.bmp","生人","Nonmatching","你","Self","Self",1,988,0.988,1
"1020",24,25,"male","right",4,60,"C.bmp","你","Matching","你","Self","Self",2,620,0.62,1
"1021",24,25,"male","right",4,61,"T.bmp","你","Nonmatching","生人","Stranger","Stranger",1,796,0.796,1
"1022",24,25,"male","right",4,62,"C.bmp","你","Matching","你","Self","Self",2,599,0.599,1
"1023",24,25,"male","right",4,63,"T.bmp","生人","Matching","生人","Stranger","Stranger",2,1021,1.021,1
"1024",24,25,"male","right",4,64,"T.bmp","你","Nonmatching","生人","Stranger","Stranger",1,781,0.781,1
"1025",24,25,"male","right",5,65,"T.bmp","生人","Matching","生人","Stranger","Stranger",2,597,0.597,1
"1026",24,25,"male","right",5,66,"C.bmp","生人","Nonmatching","你","Self","Self",1,733,0.733,1
"1027",24,25,"male","right",5,67,"T.bmp","生人","Matching","生人","Stranger","Stranger",2,1029,1.029,1
"1028",24,25,"male","right",5,68,"T.bmp","生人","Matching","生人","Stranger","Stranger",2,677,0.677,1
"1029",24,25,"male","right",5,69,"C.bmp","你","Matching","你","Self","Self",2,581,0.581,1
"1030",24,25,"male","right",5,70,"C.bmp","你","Matching","你","Self","Self",2,527,0.527,1
"1031",24,25,"male","right",5,71,"T.bmp","生人","Matching","生人","Stranger","Stranger",2,713,0.713,1
"1032",24,25,"male","right",5,72,"C.bmp","你","Matching","你","Self","Self",2,634,0.634,1
"1033",24,25,"male","right",5,73,"T.bmp","生人","Matching","生人","Stranger","Stranger",2,530,0.53,1
"1034",24,25,"male","right",5,74,"T.bmp","你","Nonmatching","生人","Stranger","Stranger",1,1002,1.002,1
"1035",24,25,"male","right",5,75,"C.bmp","你","Matching","你","Self","Self",2,642,0.642,1
"1036",24,25,"male","right",5,76,"C.bmp","生人","Nonmatching","你","Self","Self",1,850,0.85,1
"1037",24,25,"male","right",5,77,"T.bmp","你","Nonmatching","生人","Stranger","Stranger",2,635,0.635,0
"1038",24,25,"male","right",5,78,"C.bmp","你","Matching","你","Self","Self",2,675,0.675,1
"1039",24,25,"male","right",5,79,"C.bmp","你","Matching","你","Self","Self",2,596,0.596,1
"1040",24,25,"male","right",5,80,"T.bmp","生人","Matching","生人","Stranger","Stranger",2,924,0.924,1
"1041",24,25,"male","right",6,81,"T.bmp","生人","Matching","生人","Stranger","Stranger",2,772,0.772,1
"1042",24,25,"male","right",6,82,"C.bmp","你","Matching","你","Self","Self",2,668,0.668,1
"1043",24,25,"male","right",6,83,"C.bmp","你","Matching","你","Self","Self",2,804,0.804,1
"1044",24,25,"male","right",6,84,"C.bmp","你","Matching","你","Self","Self",2,484,0.484,1
"1045",24,25,"male","right",6,85,"T.bmp","你","Nonmatching","生人","Stranger","Stranger",1,582,0.582,1
"1046",24,25,"male","right",6,86,"T.bmp","生人","Matching","生人","Stranger","Stranger",2,697,0.697,1
"1047",24,25,"male","right",6,87,"C.bmp","生人","Nonmatching","你","Self","Self",1,785,0.785,1
"1048",24,25,"male","right",6,88,"T.bmp","生人","Matching","生人","Stranger","Stranger",2,761,0.761,1
"1049",24,25,"male","right",6,89,"C.bmp","生人","Nonmatching","你","Self","Self",1,817,0.817,1
"1050",24,25,"male","right",6,90,"C.bmp","你","Matching","你","Self","Self",2,601,0.601,1
"1051",24,25,"male","right",6,91,"T.bmp","生人","Matching","生人","Stranger","Stranger",2,649,0.649,1
"1052",24,25,"male","right",6,92,"C.bmp","你","Matching","你","Self","Self",2,714,0.714,1
"1053",24,25,"male","right",6,93,"T.bmp","生人","Matching","生人","Stranger","Stranger",2,787,0.787,1
"1054",24,25,"male","right",6,94,"C.bmp","你","Matching","你","Self","Self",2,628,0.628,1
"1055",24,25,"male","right",6,95,"T.bmp","生人","Matching","生人","Stranger","Stranger",2,724,0.724,1
"1056",24,25,"male","right",6,96,"T.bmp","你","Nonmatching","生人","Stranger","Stranger",1,852,0.852,1
"1057",25,23,"female","right",1,1,"C.bmp","你","Matching","你","Self","Self",1,424,0.424,1
"1058",25,23,"female","right",1,2,"C.bmp","你","Matching","你","Self","Self",1,552,0.552,1
"1059",25,23,"female","right",1,3,"C.bmp","生人","Nonmatching","你","Self","Self",2,530,0.53,1
"1060",25,23,"female","right",1,4,"D.bmp","生人","Matching","生人","Stranger","Stranger",2,587,0.587,0
"1061",25,23,"female","right",1,5,"C.bmp","你","Matching","你","Self","Self",1,603,0.603,1
"1062",25,23,"female","right",1,6,"D.bmp","你","Nonmatching","生人","Stranger","Stranger",2,707,0.707,1
"1063",25,23,"female","right",1,7,"C.bmp","生人","Nonmatching","你","Self","Self",2,819,0.819,1
"1064",25,23,"female","right",1,8,"C.bmp","你","Matching","你","Self","Self",1,571,0.571,1
"1065",25,23,"female","right",1,9,"C.bmp","你","Matching","你","Self","Self",1,635,0.635,1
"1066",25,23,"female","right",1,10,"D.bmp","生人","Matching","生人","Stranger","Stranger",2,1051,1.051,0
"1067",25,23,"female","right",1,11,"D.bmp","生人","Matching","生人","Stranger","Stranger",1,771,0.771,1
"1068",25,23,"female","right",1,12,"C.bmp","你","Matching","你","Self","Self",1,461,0.461,1
"1069",25,23,"female","right",1,13,"D.bmp","生人","Matching","生人","Stranger","Stranger",1,494,0.494,1
"1070",25,23,"female","right",1,14,"D.bmp","你","Nonmatching","生人","Stranger","Stranger",1,990,0.99,0
"1071",25,23,"female","right",1,15,"D.bmp","生人","Matching","生人","Stranger","Stranger",1,998,0.998,1
"1072",25,23,"female","right",1,16,"D.bmp","生人","Matching","生人","Stranger","Stranger",1,846,0.846,1
"1073",25,23,"female","right",2,17,"D.bmp","你","Nonmatching","生人","Stranger","Stranger",2,750,0.75,1
