"","Subject","Age","Gender","Handedness","First_Language","Block","Trial","Phase","Shape","Label","Matching","Origin_Identity","English_Identity","Standarlized_Identity","ShapeLoc","Response","RT_ms","RT_sec","ACC"
"1",1,31,"Female","r","h",1,1,"EXPERIMENT","You","You","Matching","You","Individual_Stranger","Stranger","Bottom","n",1083.456871,1.083456871,0
"2",1,31,"Female","r","h",1,2,"EXPERIMENT","Self","Self","Matching","Self","Individual_Self","Self","Top","n",533.541574,0.533541574,0
"3",1,31,"Female","r","h",1,3,"EXPERIMENT","You","You","Matching","You","Individual_Stranger","Stranger","Bottom","n",750.167492,0.750167492,0
"4",1,31,"Female","r","h",1,4,"EXPERIMENT","We","Self","Nonmatching","Self","Individual_Self","Self","Bottom","n",400.207109,0.400207109,1
"5",1,31,"Female","r","h",1,5,"EXPERIMENT","They","They","Matching","They","Group-Stranger","Stranger","Bottom","n",550.195206,0.550195206,0
"6",1,31,"Female","r","h",1,6,"EXPERIMENT","They","You","Nonmatching","You","Individual_Stranger","Stranger","Top","n",450.17827,0.45017827,1
"7",1,31,"Female","r","h",1,7,"EXPERIMENT","They","Self","Nonmatching","Self","Individual_Self","Self","Bottom","n",350.142383,0.350142383,1
"8",1,31,"Female","r","h",1,8,"EXPERIMENT","We","Self","Nonmatching","Self","Individual_Self","Self","Top","n",433.50174,0.43350174,1
"9",1,31,"Female","r","h",1,9,"EXPERIMENT","They","Self","Nonmatching","Self","Individual_Self","Self","Bottom","n",366.851286,0.366851286,1
"10",1,31,"Female","r","h",1,10,"EXPERIMENT","We","They","Nonmatching","They","Group-Stranger","Stranger","Bottom","n",283.511274,0.283511274,1
"11",1,31,"Female","r","h",1,11,"EXPERIMENT","You","You","Matching","You","Individual_Stranger","Stranger","Top","n",400.210663,0.400210663,0
"12",1,31,"Female","r","h",1,12,"EXPERIMENT","Self","You","Nonmatching","You","Individual_Stranger","Stranger","Top","n",300.205964,0.300205964,1
"13",1,31,"Female","r","h",1,13,"EXPERIMENT","We","We","Matching","We","Group-Self","Self","Bottom","n",366.860366,0.366860366,0
"14",1,31,"Female","r","h",1,14,"EXPERIMENT","We","You","Nonmatching","You","Individual_Stranger","Stranger","Bottom","n",466.852826,0.466852826,1
"15",1,31,"Female","r","h",1,15,"EXPERIMENT","They","They","Matching","They","Group-Stranger","Stranger","Bottom","n",483.532909,0.483532909,0
"16",1,31,"Female","r","h",1,16,"EXPERIMENT","Self","We","Nonmatching","We","Group-Self","Self","Bottom","n",516.853595,0.516853595,1
"17",1,31,"Female","r","h",1,17,"EXPERIMENT","We","We","Matching","We","Group-Self","Self","Top","n",400.165261,0.400165261,0
"18",1,31,"Female","r","h",1,18,"EXPERIMENT","You","You","Matching","You","Individual_Stranger","Stranger","Top","n",316.866308,0.316866308,0
"19",1,31,"Female","r","h",1,19,"EXPERIMENT","They","We","Nonmatching","We","Group-Self","Self","Bottom","n",366.865498,0.366865498,1
"20",1,31,"Female","r","h",1,20,"EXPERIMENT","Self","Self","Matching","Self","Individual_Self","Self","Bottom","m",400.164077,0.400164077,1
"21",1,31,"Female","r","h",1,21,"EXPERIMENT","You","Self","Nonmatching","Self","Individual_Self","Self","Top","n",416.862715,0.416862715,1
"22",1,31,"Female","r","h",1,22,"EXPERIMENT","They","They","Matching","They","Group-Stranger","Stranger","Top","n",433.52069,0.43352069,0
"23",1,31,"Female","r","h",1,23,"EXPERIMENT","You","You","Matching","You","Individual_Stranger","Stranger","Bottom","n",516.865834,0.516865834,0
"24",1,31,"Female","r","h",1,24,"EXPERIMENT","They","They","Matching","They","Group-Stranger","Stranger","Bottom","n",350.153042,0.350153042,0
"25",1,31,"Female","r","h",1,25,"EXPERIMENT","They","They","Matching","They","Group-Stranger","Stranger","Top","n",266.858432,0.266858432,0
"26",1,31,"Female","r","h",1,26,"EXPERIMENT","They","They","Matching","They","Group-Stranger","Stranger","Bottom","n",450.208669,0.450208669,0
"27",1,31,"Female","r","h",1,27,"EXPERIMENT","They","Self","Nonmatching","Self","Individual_Self","Self","Top","n",450.171558,0.450171558,1
"28",1,31,"Female","r","h",1,28,"EXPERIMENT","We","They","Nonmatching","They","Group-Stranger","Stranger","Top","n",583.530501,0.583530501,1
"29",1,31,"Female","r","h",1,29,"EXPERIMENT","They","We","Nonmatching","We","Group-Self","Self","Top","m",300.191357,0.300191357,0
"30",1,31,"Female","r","h",1,30,"EXPERIMENT","We","We","Matching","We","Group-Self","Self","Top","n",350.20476,0.35020476,0
"31",1,31,"Female","r","h",1,31,"EXPERIMENT","Self","Self","Matching","Self","Individual_Self","Self","Top","n",266.855273,0.266855273,0
"32",1,31,"Female","r","h",1,32,"EXPERIMENT","Self","We","Nonmatching","We","Group-Self","Self","Top","n",333.541259,0.333541259,1
"33",1,31,"Female","r","h",1,33,"EXPERIMENT","You","You","Matching","You","Individual_Stranger","Stranger","Bottom","n",266.863169,0.266863169,0
"34",1,31,"Female","r","h",1,34,"EXPERIMENT","You","You","Matching","You","Individual_Stranger","Stranger","Top","m",316.863544,0.316863544,1
"35",1,31,"Female","r","h",1,35,"EXPERIMENT","Self","We","Nonmatching","We","Group-Self","Self","Top","n",216.932673,0.216932673,1
"36",1,31,"Female","r","h",1,36,"EXPERIMENT","We","You","Nonmatching","You","Individual_Stranger","Stranger","Bottom","m",350.173966,0.350173966,0
"37",1,31,"Female","r","h",1,37,"EXPERIMENT","You","We","Nonmatching","We","Group-Self","Self","Bottom","n",600.212558,0.600212558,1
"38",1,31,"Female","r","h",1,38,"EXPERIMENT","We","We","Matching","We","Group-Self","Self","Top","n",1083.462004,1.083462004,0
"39",1,31,"Female","r","h",1,39,"EXPERIMENT","We","We","Matching","We","Group-Self","Self","Bottom","n",366.855629,0.366855629,0
"40",1,31,"Female","r","h",1,40,"EXPERIMENT","Self","They","Nonmatching","They","Group-Stranger","Stranger","Bottom","n",300.198463,0.300198463,1
"41",1,31,"Female","r","h",1,41,"EXPERIMENT","Self","Self","Matching","Self","Individual_Self","Self","Top","n",283.532593,0.283532593,0
"42",1,31,"Female","r","h",1,42,"EXPERIMENT","We","We","Matching","We","Group-Self","Self","Bottom","m",466.85401,0.46685401,1
"43",1,31,"Female","r","h",1,43,"EXPERIMENT","We","You","Nonmatching","You","Individual_Stranger","Stranger","Top","n",233.587884,0.233587884,1
"44",1,31,"Female","r","h",1,44,"EXPERIMENT","We","We","Matching","We","Group-Self","Self","Bottom","n",433.509241,0.433509241,0
"45",1,31,"Female","r","h",1,45,"EXPERIMENT","You","They","Nonmatching","They","Group-Stranger","Stranger","Top","n",600.175052,0.600175052,1
"46",1,31,"Female","r","h",1,46,"EXPERIMENT","We","We","Matching","We","Group-Self","Self","Top","n",383.518735,0.383518735,0
"47",1,31,"Female","r","h",1,47,"EXPERIMENT","Self","They","Nonmatching","They","Group-Stranger","Stranger","Bottom","m",333.540864,0.333540864,0
"48",1,31,"Female","r","h",1,48,"EXPERIMENT","They","You","Nonmatching","You","Individual_Stranger","Stranger","Bottom","n",283.506142,0.283506142,1
"49",1,31,"Female","r","h",1,49,"EXPERIMENT","You","They","Nonmatching","They","Group-Stranger","Stranger","Bottom","n",350.18581,0.35018581,1
"50",1,31,"Female","r","h",1,50,"EXPERIMENT","They","They","Matching","They","Group-Stranger","Stranger","Top","n",500.161274,0.500161274,0
"51",1,31,"Female","r","h",1,51,"EXPERIMENT","They","Self","Nonmatching","Self","Individual_Self","Self","Top","n",433.485158,0.433485158,1
"52",1,31,"Female","r","h",1,52,"EXPERIMENT","Self","Self","Matching","Self","Individual_Self","Self","Bottom","m",433.5199,0.4335199,1
"53",1,31,"Female","r","h",1,53,"EXPERIMENT","Self","Self","Matching","Self","Individual_Self","Self","Top","m",550.13954,0.55013954,1
"54",1,31,"Female","r","h",1,54,"EXPERIMENT","Self","Self","Matching","Self","Individual_Self","Self","Top","m",450.178664,0.450178664,1
"55",1,31,"Female","r","h",1,55,"EXPERIMENT","You","You","Matching","You","Individual_Stranger","Stranger","Top","n",533.508806,0.533508806,0
"56",1,31,"Female","r","h",1,56,"EXPERIMENT","Self","Self","Matching","Self","Individual_Self","Self","Bottom","m",450.150634,0.450150634,1
"57",1,31,"Female","r","h",1,57,"EXPERIMENT","You","Self","Nonmatching","Self","Individual_Self","Self","Top","m",400.187764,0.400187764,0
"58",1,31,"Female","r","h",1,58,"EXPERIMENT","They","They","Matching","They","Group-Stranger","Stranger","Top","n",833.511057,0.833511057,0
"59",1,31,"Female","r","h",1,59,"EXPERIMENT","You","Self","Nonmatching","Self","Individual_Self","Self","Bottom","m",433.555827,0.433555827,0
"60",1,31,"Female","r","h",1,60,"EXPERIMENT","You","We","Nonmatching","We","Group-Self","Self","Top","m",366.828783,0.366828783,0
"61",1,31,"Female","r","h",1,61,"EXPERIMENT","You","You","Matching","You","Individual_Stranger","Stranger","Bottom","m",583.509577,0.583509577,1
"62",1,31,"Female","r","h",1,62,"EXPERIMENT","We","We","Matching","We","Group-Self","Self","Top","n",533.509201,0.533509201,0
"63",1,31,"Female","r","h",1,63,"EXPERIMENT","They","They","Matching","They","Group-Stranger","Stranger","Bottom","m",1233.469051,1.233469051,1
"64",1,31,"Female","r","h",1,64,"EXPERIMENT","They","They","Matching","They","Group-Stranger","Stranger","Top","m",550.179414,0.550179414,1
"65",1,31,"Female","r","h",1,65,"EXPERIMENT","They","We","Nonmatching","We","Group-Self","Self","Top","n",583.489047,0.583489047,1
"66",1,31,"Female","r","h",1,66,"EXPERIMENT","We","We","Matching","We","Group-Self","Self","Bottom","None",NA,NA,3
"67",1,31,"Female","r","h",1,67,"EXPERIMENT","Self","Self","Matching","Self","Individual_Self","Self","Bottom","m",850.199825,0.850199825,1
"68",1,31,"Female","r","h",1,68,"EXPERIMENT","You","They","Nonmatching","They","Group-Stranger","Stranger","Bottom","n",700.19041,0.70019041,1
"69",1,31,"Female","r","h",1,69,"EXPERIMENT","Self","Self","Matching","Self","Individual_Self","Self","Top","m",533.52144,0.53352144,1
"70",1,31,"Female","r","h",1,70,"EXPERIMENT","They","You","Nonmatching","You","Individual_Stranger","Stranger","Bottom","m",433.542799,0.433542799,0
"71",1,31,"Female","r","h",1,71,"EXPERIMENT","We","We","Matching","We","Group-Self","Self","Top","m",1066.853378,1.066853378,1
"72",1,31,"Female","r","h",1,72,"EXPERIMENT","Self","Self","Matching","Self","Individual_Self","Self","Bottom","m",550.205866,0.550205866,1
"73",1,31,"Female","r","h",1,73,"EXPERIMENT","Self","Self","Matching","Self","Individual_Self","Self","Bottom","m",516.873335,0.516873335,1
"74",1,31,"Female","r","h",1,74,"EXPERIMENT","They","They","Matching","They","Group-Stranger","Stranger","Bottom","n",983.498364,0.983498364,0
"75",1,31,"Female","r","h",1,75,"EXPERIMENT","You","You","Matching","You","Individual_Stranger","Stranger","Top","n",783.483836,0.783483836,0
"76",1,31,"Female","r","h",1,76,"EXPERIMENT","We","They","Nonmatching","They","Group-Stranger","Stranger","Top","m",466.815715,0.466815715,0
"77",1,31,"Female","r","h",1,77,"EXPERIMENT","Self","They","Nonmatching","They","Group-Stranger","Stranger","Top","n",866.833718,0.866833718,1
"78",1,31,"Female","r","h",1,78,"EXPERIMENT","Self","They","Nonmatching","They","Group-Stranger","Stranger","Top","None",NA,NA,3
"79",1,31,"Female","r","h",1,79,"EXPERIMENT","Self","We","Nonmatching","We","Group-Self","Self","Bottom","n",1116.847042,1.116847042,1
"80",1,31,"Female","r","h",1,80,"EXPERIMENT","We","They","Nonmatching","They","Group-Stranger","Stranger","Bottom","None",NA,NA,3
"81",1,31,"Female","r","h",1,81,"EXPERIMENT","They","We","Nonmatching","We","Group-Self","Self","Bottom","n",1433.446863,1.433446863,1
"82",1,31,"Female","r","h",1,82,"EXPERIMENT","We","We","Matching","We","Group-Self","Self","Bottom","m",1083.466346,1.083466346,1
"83",1,31,"Female","r","h",1,83,"EXPERIMENT","You","You","Matching","You","Individual_Stranger","Stranger","Bottom","n",1116.818617,1.116818617,0
"84",1,31,"Female","r","h",1,84,"EXPERIMENT","We","You","Nonmatching","You","Individual_Stranger","Stranger","Top","n",1700.163564,1.700163564,1
"85",1,31,"Female","r","h",1,85,"EXPERIMENT","They","You","Nonmatching","You","Individual_Stranger","Stranger","Top","n",1566.806595,1.566806595,1
"86",1,31,"Female","r","h",1,86,"EXPERIMENT","You","You","Matching","You","Individual_Stranger","Stranger","Top","n",1216.820156,1.216820156,0
"87",1,31,"Female","r","h",1,87,"EXPERIMENT","We","Self","Nonmatching","Self","Individual_Self","Self","Bottom","n",1200.144811,1.200144811,1
"88",1,31,"Female","r","h",1,88,"EXPERIMENT","Self","You","Nonmatching","You","Individual_Stranger","Stranger","Top","n",1383.547556,1.383547556,1
"89",1,31,"Female","r","h",1,89,"EXPERIMENT","You","Self","Nonmatching","Self","Individual_Self","Self","Bottom","n",916.775268,0.916775268,1
"90",1,31,"Female","r","h",1,90,"EXPERIMENT","You","We","Nonmatching","We","Group-Self","Self","Bottom","n",1450.136421,1.450136421,1
"91",1,31,"Female","r","h",1,91,"EXPERIMENT","You","We","Nonmatching","We","Group-Self","Self","Top","n",916.82975,0.91682975,1
"92",1,31,"Female","r","h",1,92,"EXPERIMENT","They","They","Matching","They","Group-Stranger","Stranger","Top","m",1383.46307,1.38346307,1
"93",1,31,"Female","r","h",1,93,"EXPERIMENT","Self","You","Nonmatching","You","Individual_Stranger","Stranger","Bottom","n",1550.138356,1.550138356,1
"94",1,31,"Female","r","h",1,94,"EXPERIMENT","You","They","Nonmatching","They","Group-Stranger","Stranger","Top","None",NA,NA,3
"95",1,31,"Female","r","h",1,95,"EXPERIMENT","Self","You","Nonmatching","You","Individual_Stranger","Stranger","Bottom","n",1100.236048,1.100236048,1
"96",1,31,"Female","r","h",1,96,"EXPERIMENT","We","Self","Nonmatching","Self","Individual_Self","Self","Top","None",NA,NA,3
"97",1,31,"Female","r","h",2,1,"EXPERIMENT","Self","Self","Matching","Self","Individual_Self","Self","Top","m",750.152095,0.750152095,1
"98",1,31,"Female","r","h",2,2,"EXPERIMENT","We","You","Nonmatching","You","Individual_Stranger","Stranger","Top","n",966.844338,0.966844338,1
"99",1,31,"Female","r","h",2,3,"EXPERIMENT","We","They","Nonmatching","They","Group-Stranger","Stranger","Bottom","n",1250.155845,1.250155845,1
"100",1,31,"Female","r","h",2,4,"EXPERIMENT","You","You","Matching","You","Individual_Stranger","Stranger","Bottom","m",1216.833974,1.216833974,1
"101",1,31,"Female","r","h",2,5,"EXPERIMENT","You","They","Nonmatching","They","Group-Stranger","Stranger","Bottom","n",1333.477302,1.333477302,1
"102",1,31,"Female","r","h",2,6,"EXPERIMENT","Self","They","Nonmatching","They","Group-Stranger","Stranger","Bottom","n",1100.172091,1.100172091,1
"103",1,31,"Female","r","h",2,7,"EXPERIMENT","We","Self","Nonmatching","Self","Individual_Self","Self","Bottom","n",1016.822999,1.016822999,1
"104",1,31,"Female","r","h",2,8,"EXPERIMENT","Self","You","Nonmatching","You","Individual_Stranger","Stranger","Bottom","n",1266.810267,1.266810267,1
"105",1,31,"Female","r","h",2,9,"EXPERIMENT","You","We","Nonmatching","We","Group-Self","Self","Top","n",1216.830421,1.216830421,1
"106",1,31,"Female","r","h",2,10,"EXPERIMENT","They","They","Matching","They","Group-Stranger","Stranger","Top","m",1583.510761,1.583510761,1
"107",1,31,"Female","r","h",2,11,"EXPERIMENT","We","You","Nonmatching","You","Individual_Stranger","Stranger","Top","n",1150.182336,1.150182336,1
"108",1,31,"Female","r","h",2,12,"EXPERIMENT","Self","You","Nonmatching","You","Individual_Stranger","Stranger","Top","n",1366.794436,1.366794436,1
"109",1,31,"Female","r","h",2,13,"EXPERIMENT","We","Self","Nonmatching","Self","Individual_Self","Self","Bottom","n",1016.623628,1.016623628,1
"110",1,31,"Female","r","h",2,14,"EXPERIMENT","We","We","Matching","We","Group-Self","Self","Bottom","n",1533.478407,1.533478407,0
"111",1,31,"Female","r","h",2,15,"EXPERIMENT","We","They","Nonmatching","They","Group-Stranger","Stranger","Top","n",1216.805154,1.216805154,1
"112",1,31,"Female","r","h",2,16,"EXPERIMENT","Self","You","Nonmatching","You","Individual_Stranger","Stranger","Bottom","n",1466.788869,1.466788869,1
"113",1,31,"Female","r","h",2,17,"EXPERIMENT","We","They","Nonmatching","They","Group-Stranger","Stranger","Bottom","n",1650.103574,1.650103574,1
"114",1,31,"Female","r","h",2,18,"EXPERIMENT","You","Self","Nonmatching","Self","Individual_Self","Self","Top","n",1216.844239,1.216844239,1
"115",1,31,"Female","r","h",2,19,"EXPERIMENT","We","We","Matching","We","Group-Self","Self","Bottom","m",1183.476177,1.183476177,1
"116",1,31,"Female","r","h",2,20,"EXPERIMENT","You","You","Matching","You","Individual_Stranger","Stranger","Bottom","m",1616.774202,1.616774202,1
"117",1,31,"Female","r","h",2,21,"EXPERIMENT","We","We","Matching","We","Group-Self","Self","Top","m",1500.194436,1.500194436,1
"118",1,31,"Female","r","h",2,22,"EXPERIMENT","They","We","Nonmatching","We","Group-Self","Self","Top","n",1600.137547,1.600137547,1
"119",1,31,"Female","r","h",2,23,"EXPERIMENT","They","You","Nonmatching","You","Individual_Stranger","Stranger","Bottom","None",NA,NA,3
"120",1,31,"Female","r","h",2,24,"EXPERIMENT","We","You","Nonmatching","You","Individual_Stranger","Stranger","Bottom","n",1166.795304,1.166795304,1
"121",1,31,"Female","r","h",2,25,"EXPERIMENT","Self","They","Nonmatching","They","Group-Stranger","Stranger","Bottom","n",1066.806398,1.066806398,1
"122",1,31,"Female","r","h",2,26,"EXPERIMENT","They","They","Matching","They","Group-Stranger","Stranger","Top","m",1583.514709,1.583514709,1
"123",1,31,"Female","r","h",2,27,"EXPERIMENT","We","Self","Nonmatching","Self","Individual_Self","Self","Top","n",1066.801265,1.066801265,1
"124",1,31,"Female","r","h",2,28,"EXPERIMENT","You","You","Matching","You","Individual_Stranger","Stranger","Top","m",1333.475723,1.333475723,1
"125",1,31,"Female","r","h",2,29,"EXPERIMENT","You","They","Nonmatching","They","Group-Stranger","Stranger","Top","n",1300.123847,1.300123847,1
"126",1,31,"Female","r","h",2,30,"EXPERIMENT","They","Self","Nonmatching","Self","Individual_Self","Self","Top","n",933.498384,0.933498384,1
"127",1,31,"Female","r","h",2,31,"EXPERIMENT","They","They","Matching","They","Group-Stranger","Stranger","Top","None",NA,NA,3
"128",1,31,"Female","r","h",2,32,"EXPERIMENT","Self","Self","Matching","Self","Individual_Self","Self","Bottom","m",983.518893,0.983518893,1
"129",1,31,"Female","r","h",2,33,"EXPERIMENT","Self","Self","Matching","Self","Individual_Self","Self","Bottom","m",650.171874,0.650171874,1
"130",1,31,"Female","r","h",2,34,"EXPERIMENT","You","We","Nonmatching","We","Group-Self","Self","Bottom","n",1350.138435,1.350138435,1
"131",1,31,"Female","r","h",2,35,"EXPERIMENT","Self","Self","Matching","Self","Individual_Self","Self","Bottom","m",666.893016,0.666893016,1
"132",1,31,"Female","r","h",2,36,"EXPERIMENT","They","You","Nonmatching","You","Individual_Stranger","Stranger","Top","n",1533.521045,1.533521045,1
"133",1,31,"Female","r","h",2,37,"EXPERIMENT","Self","Self","Matching","Self","Individual_Self","Self","Top","m",933.536284,0.933536284,1
"134",1,31,"Female","r","h",2,38,"EXPERIMENT","You","You","Matching","You","Individual_Stranger","Stranger","Bottom","m",1266.818557,1.266818557,1
"135",1,31,"Female","r","h",2,39,"EXPERIMENT","They","They","Matching","They","Group-Stranger","Stranger","Bottom","m",1433.488317,1.433488317,1
"136",1,31,"Female","r","h",2,40,"EXPERIMENT","We","We","Matching","We","Group-Self","Self","Top","m",1300.141218,1.300141218,1
"137",1,31,"Female","r","h",2,41,"EXPERIMENT","You","You","Matching","You","Individual_Stranger","Stranger","Bottom","m",1166.834784,1.166834784,1
"138",1,31,"Female","r","h",2,42,"EXPERIMENT","They","They","Matching","They","Group-Stranger","Stranger","Bottom","m",1583.495364,1.583495364,1
"139",1,31,"Female","r","h",2,43,"EXPERIMENT","You","We","Nonmatching","We","Group-Self","Self","Bottom","None",NA,NA,3
"140",1,31,"Female","r","h",2,44,"EXPERIMENT","We","We","Matching","We","Group-Self","Self","Top","m",1283.520354,1.283520354,1
"141",1,31,"Female","r","h",2,45,"EXPERIMENT","You","You","Matching","You","Individual_Stranger","Stranger","Top","m",1400.130519,1.400130519,1
"142",1,31,"Female","r","h",2,46,"EXPERIMENT","Self","Self","Matching","Self","Individual_Self","Self","Bottom","m",583.535633,0.583535633,1
"143",1,31,"Female","r","h",2,47,"EXPERIMENT","You","You","Matching","You","Individual_Stranger","Stranger","Top","m",1316.786164,1.316786164,1
"144",1,31,"Female","r","h",2,48,"EXPERIMENT","We","We","Matching","We","Group-Self","Self","Top","m",1033.472288,1.033472288,1
"145",1,31,"Female","r","h",2,49,"EXPERIMENT","Self","We","Nonmatching","We","Group-Self","Self","Top","n",1250.164531,1.250164531,1
"146",1,31,"Female","r","h",2,50,"EXPERIMENT","They","They","Matching","They","Group-Stranger","Stranger","Bottom","m",1300.018437,1.300018437,1
"147",1,31,"Female","r","h",2,51,"EXPERIMENT","Self","We","Nonmatching","We","Group-Self","Self","Bottom","n",1366.748639,1.366748639,1
"148",1,31,"Female","r","h",2,52,"EXPERIMENT","Self","Self","Matching","Self","Individual_Self","Self","Top","m",916.780006,0.916780006,1
"149",1,31,"Female","r","h",2,53,"EXPERIMENT","We","We","Matching","We","Group-Self","Self","Bottom","m",983.510998,0.983510998,1
"150",1,31,"Female","r","h",2,54,"EXPERIMENT","Self","We","Nonmatching","We","Group-Self","Self","Bottom","n",1083.541357,1.083541357,1
"151",1,31,"Female","r","h",2,55,"EXPERIMENT","They","We","Nonmatching","We","Group-Self","Self","Bottom","None",NA,NA,3
"152",1,31,"Female","r","h",2,56,"EXPERIMENT","Self","Self","Matching","Self","Individual_Self","Self","Bottom","m",616.85553,0.61685553,1
"153",1,31,"Female","r","h",2,57,"EXPERIMENT","You","They","Nonmatching","They","Group-Stranger","Stranger","Top","None",NA,NA,3
"154",1,31,"Female","r","h",2,58,"EXPERIMENT","They","Self","Nonmatching","Self","Individual_Self","Self","Bottom","n",883.503141,0.883503141,1
"155",1,31,"Female","r","h",2,59,"EXPERIMENT","They","They","Matching","They","Group-Stranger","Stranger","Top","m",1083.46911,1.08346911,1
"156",1,31,"Female","r","h",2,60,"EXPERIMENT","You","You","Matching","You","Individual_Stranger","Stranger","Top","m",1133.509754,1.133509754,1
"157",1,31,"Female","r","h",2,61,"EXPERIMENT","You","You","Matching","You","Individual_Stranger","Stranger","Bottom","m",1150.155885,1.150155885,1
"158",1,31,"Female","r","h",2,62,"EXPERIMENT","Self","They","Nonmatching","They","Group-Stranger","Stranger","Top","n",1283.48956,1.28348956,1
"159",1,31,"Female","r","h",2,63,"EXPERIMENT","You","Self","Nonmatching","Self","Individual_Self","Self","Bottom","n",816.840054,0.816840054,1
"160",1,31,"Female","r","h",2,64,"EXPERIMENT","You","They","Nonmatching","They","Group-Stranger","Stranger","Bottom","n",1566.842916,1.566842916,1
"161",1,31,"Female","r","h",2,65,"EXPERIMENT","We","We","Matching","We","Group-Self","Self","Bottom","m",1150.174045,1.150174045,1
"162",1,31,"Female","r","h",2,66,"EXPERIMENT","They","They","Matching","They","Group-Stranger","Stranger","Bottom","m",966.862498,0.966862498,1
"163",1,31,"Female","r","h",2,67,"EXPERIMENT","Self","They","Nonmatching","They","Group-Stranger","Stranger","Top","n",1516.797534,1.516797534,1
"164",1,31,"Female","r","h",2,68,"EXPERIMENT","We","We","Matching","We","Group-Self","Self","Bottom","m",1000.173315,1.000173315,1
"165",1,31,"Female","r","h",2,69,"EXPERIMENT","You","We","Nonmatching","We","Group-Self","Self","Top","n",1550.148226,1.550148226,1
"166",1,31,"Female","r","h",2,70,"EXPERIMENT","We","We","Matching","We","Group-Self","Self","Top","m",650.193193,0.650193193,1
"167",1,31,"Female","r","h",2,71,"EXPERIMENT","They","They","Matching","They","Group-Stranger","Stranger","Top","None",NA,NA,3
"168",1,31,"Female","r","h",2,72,"EXPERIMENT","They","We","Nonmatching","We","Group-Self","Self","Top","m",633.486658,0.633486658,0
"169",1,31,"Female","r","h",2,73,"EXPERIMENT","We","Self","Nonmatching","Self","Individual_Self","Self","Top","m",566.850023,0.566850023,0
"170",1,31,"Female","r","h",2,74,"EXPERIMENT","Self","Self","Matching","Self","Individual_Self","Self","Bottom","m",566.820018,0.566820018,1
"171",1,31,"Female","r","h",2,75,"EXPERIMENT","You","You","Matching","You","Individual_Stranger","Stranger","Bottom","n",700.17975,0.70017975,0
"172",1,31,"Female","r","h",2,76,"EXPERIMENT","Self","You","Nonmatching","You","Individual_Stranger","Stranger","Top","None",NA,NA,3
"173",1,31,"Female","r","h",2,77,"EXPERIMENT","Self","We","Nonmatching","We","Group-Self","Self","Top","None",NA,NA,3
"174",1,31,"Female","r","h",2,78,"EXPERIMENT","They","Self","Nonmatching","Self","Individual_Self","Self","Bottom","n",850.197851,0.850197851,1
"175",1,31,"Female","r","h",2,79,"EXPERIMENT","You","Self","Nonmatching","Self","Individual_Self","Self","Bottom","n",616.856714,0.616856714,1
"176",1,31,"Female","r","h",2,80,"EXPERIMENT","Self","Self","Matching","Self","Individual_Self","Self","Top","m",600.192818,0.600192818,1
"177",1,31,"Female","r","h",2,81,"EXPERIMENT","You","Self","Nonmatching","Self","Individual_Self","Self","Top","m",1016.815103,1.016815103,0
"178",1,31,"Female","r","h",2,82,"EXPERIMENT","They","You","Nonmatching","You","Individual_Stranger","Stranger","Top","n",766.898898,0.766898898,1
"179",1,31,"Female","r","h",2,83,"EXPERIMENT","We","We","Matching","We","Group-Self","Self","Bottom","m",866.803713,0.866803713,1
"180",1,31,"Female","r","h",2,84,"EXPERIMENT","They","Self","Nonmatching","Self","Individual_Self","Self","Top","n",1316.777479,1.316777479,1
"181",1,31,"Female","r","h",2,85,"EXPERIMENT","You","You","Matching","You","Individual_Stranger","Stranger","Top","m",1150.174835,1.150174835,1
"182",1,31,"Female","r","h",2,86,"EXPERIMENT","They","You","Nonmatching","You","Individual_Stranger","Stranger","Bottom","n",1116.87981,1.11687981,1
"183",1,31,"Female","r","h",2,87,"EXPERIMENT","We","We","Matching","We","Group-Self","Self","Top","m",1383.48123,1.38348123,1
"184",1,31,"Female","r","h",2,88,"EXPERIMENT","Self","Self","Matching","Self","Individual_Self","Self","Top","m",600.173868,0.600173868,1
"185",1,31,"Female","r","h",2,89,"EXPERIMENT","Self","Self","Matching","Self","Individual_Self","Self","Top","m",433.54872,0.43354872,1
"186",1,31,"Female","r","h",2,90,"EXPERIMENT","We","You","Nonmatching","You","Individual_Stranger","Stranger","Bottom","n",1366.827598,1.366827598,1
"187",1,31,"Female","r","h",2,91,"EXPERIMENT","They","They","Matching","They","Group-Stranger","Stranger","Bottom","n",1350.148699,1.350148699,0
"188",1,31,"Female","r","h",2,92,"EXPERIMENT","They","They","Matching","They","Group-Stranger","Stranger","Top","n",850.157582,0.850157582,0
"189",1,31,"Female","r","h",2,93,"EXPERIMENT","They","We","Nonmatching","We","Group-Self","Self","Bottom","n",1066.829691,1.066829691,1
"190",1,31,"Female","r","h",2,94,"EXPERIMENT","We","They","Nonmatching","They","Group-Stranger","Stranger","Top","n",1550.089401,1.550089401,1
"191",1,31,"Female","r","h",2,95,"EXPERIMENT","You","You","Matching","You","Individual_Stranger","Stranger","Top","m",1300.123452,1.300123452,1
"192",1,31,"Female","r","h",2,96,"EXPERIMENT","They","They","Matching","They","Group-Stranger","Stranger","Bottom","None",NA,NA,3
"193",1,31,"Female","r","h",3,1,"EXPERIMENT","You","You","Matching","You","Individual_Stranger","Stranger","Top","None",NA,NA,3
"194",1,31,"Female","r","h",3,2,"EXPERIMENT","You","Self","Nonmatching","Self","Individual_Self","Self","Top","n",1183.50934,1.18350934,1
"195",1,31,"Female","r","h",3,3,"EXPERIMENT","They","Self","Nonmatching","Self","Individual_Self","Self","Bottom","n",950.158727,0.950158727,1
"196",1,31,"Female","r","h",3,4,"EXPERIMENT","We","We","Matching","We","Group-Self","Self","Top","m",1466.802687,1.466802687,1
"197",1,31,"Female","r","h",3,5,"EXPERIMENT","We","You","Nonmatching","You","Individual_Stranger","Stranger","Bottom","None",NA,NA,3
"198",1,31,"Female","r","h",3,6,"EXPERIMENT","You","You","Matching","You","Individual_Stranger","Stranger","Top","n",816.886245,0.816886245,0
"199",1,31,"Female","r","h",3,7,"EXPERIMENT","We","We","Matching","We","Group-Self","Self","Top","m",1033.502687,1.033502687,1
"200",1,31,"Female","r","h",3,8,"EXPERIMENT","They","They","Matching","They","Group-Stranger","Stranger","Bottom","m",1316.786954,1.316786954,1
"201",1,31,"Female","r","h",3,9,"EXPERIMENT","They","They","Matching","They","Group-Stranger","Stranger","Bottom","n",1183.527895,1.183527895,0
"202",1,31,"Female","r","h",3,10,"EXPERIMENT","You","You","Matching","You","Individual_Stranger","Stranger","Bottom","n",1000.158313,1.000158313,0
"203",1,31,"Female","r","h",3,11,"EXPERIMENT","You","You","Matching","You","Individual_Stranger","Stranger","Top","m",1550.152963,1.550152963,1
"204",1,31,"Female","r","h",3,12,"EXPERIMENT","We","You","Nonmatching","You","Individual_Stranger","Stranger","Bottom","n",1550.080716,1.550080716,1
"205",1,31,"Female","r","h",3,13,"EXPERIMENT","We","We","Matching","We","Group-Self","Self","Bottom","m",1350.146726,1.350146726,1
"206",1,31,"Female","r","h",3,14,"EXPERIMENT","Self","Self","Matching","Self","Individual_Self","Self","Top","m",783.489758,0.783489758,1
"207",1,31,"Female","r","h",3,15,"EXPERIMENT","Self","Self","Matching","Self","Individual_Self","Self","Bottom","m",616.852371,0.616852371,1
"208",1,31,"Female","r","h",3,16,"EXPERIMENT","They","We","Nonmatching","We","Group-Self","Self","Top","n",1300.142008,1.300142008,1
"209",1,31,"Female","r","h",3,17,"EXPERIMENT","Self","Self","Matching","Self","Individual_Self","Self","Bottom","m",733.48504,0.73348504,1
"210",1,31,"Female","r","h",3,18,"EXPERIMENT","Self","We","Nonmatching","We","Group-Self","Self","Top","n",966.809201,0.966809201,1
"211",1,31,"Female","r","h",3,19,"EXPERIMENT","We","We","Matching","We","Group-Self","Self","Bottom","m",850.149292,0.850149292,1
"212",1,31,"Female","r","h",3,20,"EXPERIMENT","We","Self","Nonmatching","Self","Individual_Self","Self","Bottom","n",1316.770373,1.316770373,1
"213",1,31,"Female","r","h",3,21,"EXPERIMENT","Self","They","Nonmatching","They","Group-Stranger","Stranger","Top","n",1299.954085,1.299954085,1
"214",1,31,"Female","r","h",3,22,"EXPERIMENT","They","Self","Nonmatching","Self","Individual_Self","Self","Top","n",1016.836422,1.016836422,1
"215",1,31,"Female","r","h",3,23,"EXPERIMENT","You","They","Nonmatching","They","Group-Stranger","Stranger","Top","None",NA,NA,3
"216",1,31,"Female","r","h",3,24,"EXPERIMENT","Self","Self","Matching","Self","Individual_Self","Self","Top","m",566.822782,0.566822782,1
"217",1,31,"Female","r","h",3,25,"EXPERIMENT","You","You","Matching","You","Individual_Stranger","Stranger","Bottom","m",1566.780539,1.566780539,1
"218",1,31,"Female","r","h",3,26,"EXPERIMENT","You","We","Nonmatching","We","Group-Self","Self","Bottom","n",1416.893114,1.416893114,1
"219",1,31,"Female","r","h",3,27,"EXPERIMENT","They","We","Nonmatching","We","Group-Self","Self","Bottom","None",NA,NA,3
"220",1,31,"Female","r","h",3,28,"EXPERIMENT","You","You","Matching","You","Individual_Stranger","Stranger","Top","n",1366.802726,1.366802726,0
"221",1,31,"Female","r","h",3,29,"EXPERIMENT","We","We","Matching","We","Group-Self","Self","Top","m",1283.487586,1.283487586,1
"222",1,31,"Female","r","h",3,30,"EXPERIMENT","You","You","Matching","You","Individual_Stranger","Stranger","Bottom","m",1400.113938,1.400113938,1
"223",1,31,"Female","r","h",3,31,"EXPERIMENT","You","You","Matching","You","Individual_Stranger","Stranger","Bottom","m",1516.783322,1.516783322,1
"224",1,31,"Female","r","h",3,32,"EXPERIMENT","Self","They","Nonmatching","They","Group-Stranger","Stranger","Top","n",1650.111865,1.650111865,1
"225",1,31,"Female","r","h",3,33,"EXPERIMENT","They","They","Matching","They","Group-Stranger","Stranger","Bottom","m",1316.791297,1.316791297,1
"226",1,31,"Female","r","h",3,34,"EXPERIMENT","You","We","Nonmatching","We","Group-Self","Self","Top","n",1133.513702,1.133513702,1
"227",1,31,"Female","r","h",3,35,"EXPERIMENT","We","We","Matching","We","Group-Self","Self","Top","m",1166.809517,1.166809517,1
"228",1,31,"Female","r","h",3,36,"EXPERIMENT","We","We","Matching","We","Group-Self","Self","Bottom","m",883.454581,0.883454581,1
"229",1,31,"Female","r","h",3,37,"EXPERIMENT","They","You","Nonmatching","You","Individual_Stranger","Stranger","Top","n",1216.794889,1.216794889,1
"230",1,31,"Female","r","h",3,38,"EXPERIMENT","Self","Self","Matching","Self","Individual_Self","Self","Bottom","m",1166.834389,1.166834389,1
"231",1,31,"Female","r","h",3,39,"EXPERIMENT","You","We","Nonmatching","We","Group-Self","Self","Bottom","n",950.188337,0.950188337,1
"232",1,31,"Female","r","h",3,40,"EXPERIMENT","They","You","Nonmatching","You","Individual_Stranger","Stranger","Bottom","n",1366.83352,1.36683352,1
"233",1,31,"Female","r","h",3,41,"EXPERIMENT","They","We","Nonmatching","We","Group-Self","Self","Top","n",1166.830046,1.166830046,1
"234",1,31,"Female","r","h",3,42,"EXPERIMENT","You","They","Nonmatching","They","Group-Stranger","Stranger","Bottom","n",1216.810681,1.216810681,1
"235",1,31,"Female","r","h",3,43,"EXPERIMENT","You","They","Nonmatching","They","Group-Stranger","Stranger","Bottom","n",816.826236,0.816826236,1
"236",1,31,"Female","r","h",3,44,"EXPERIMENT","You","Self","Nonmatching","Self","Individual_Self","Self","Bottom","n",833.482631,0.833482631,1
"237",1,31,"Female","r","h",3,45,"EXPERIMENT","They","They","Matching","They","Group-Stranger","Stranger","Bottom","m",1433.460286,1.433460286,1
"238",1,31,"Female","r","h",3,46,"EXPERIMENT","You","Self","Nonmatching","Self","Individual_Self","Self","Top","n",1016.838791,1.016838791,1
"239",1,31,"Female","r","h",3,47,"EXPERIMENT","Self","Self","Matching","Self","Individual_Self","Self","Bottom","m",600.15018,0.60015018,1
"240",1,31,"Female","r","h",3,48,"EXPERIMENT","They","Self","Nonmatching","Self","Individual_Self","Self","Top","n",916.816722,0.916816722,1
"241",1,31,"Female","r","h",3,49,"EXPERIMENT","You","You","Matching","You","Individual_Stranger","Stranger","Top","n",1033.49716,1.03349716,0
"242",1,31,"Female","r","h",3,50,"EXPERIMENT","They","Self","Nonmatching","Self","Individual_Self","Self","Bottom","n",966.835652,0.966835652,1
"243",1,31,"Female","r","h",3,51,"EXPERIMENT","They","We","Nonmatching","We","Group-Self","Self","Bottom","n",1100.146429,1.100146429,1
"244",1,31,"Female","r","h",3,52,"EXPERIMENT","Self","Self","Matching","Self","Individual_Self","Self","Bottom","m",600.194002,0.600194002,1
"245",1,31,"Female","r","h",3,53,"EXPERIMENT","They","They","Matching","They","Group-Stranger","Stranger","Top","m",1616.760779,1.616760779,1
"246",1,31,"Female","r","h",3,54,"EXPERIMENT","They","They","Matching","They","Group-Stranger","Stranger","Top","m",1583.472071,1.583472071,1
"247",1,31,"Female","r","h",3,55,"EXPERIMENT","Self","Self","Matching","Self","Individual_Self","Self","Bottom","m",550.169939,0.550169939,1
"248",1,31,"Female","r","h",3,56,"EXPERIMENT","We","They","Nonmatching","They","Group-Stranger","Stranger","Bottom","None",NA,NA,3
"249",1,31,"Female","r","h",3,57,"EXPERIMENT","Self","You","Nonmatching","You","Individual_Stranger","Stranger","Top","n",1100.143666,1.100143666,1
"250",1,31,"Female","r","h",3,58,"EXPERIMENT","We","We","Matching","We","Group-Self","Self","Bottom","m",1333.469011,1.333469011,1
"251",1,31,"Female","r","h",3,59,"EXPERIMENT","Self","We","Nonmatching","We","Group-Self","Self","Bottom","n",866.83885,0.86683885,1
"252",1,31,"Female","r","h",3,60,"EXPERIMENT","Self","You","Nonmatching","You","Individual_Stranger","Stranger","Bottom","n",850.14337,0.85014337,1
"253",1,31,"Female","r","h",3,61,"EXPERIMENT","They","They","Matching","They","Group-Stranger","Stranger","Bottom","n",1233.483658,1.233483658,0
"254",1,31,"Female","r","h",3,62,"EXPERIMENT","Self","Self","Matching","Self","Individual_Self","Self","Top","m",533.570789,0.533570789,1
"255",1,31,"Female","r","h",3,63,"EXPERIMENT","They","They","Matching","They","Group-Stranger","Stranger","Top","n",633.506793,0.633506793,0
"256",1,31,"Female","r","h",3,64,"EXPERIMENT","Self","You","Nonmatching","You","Individual_Stranger","Stranger","Top","n",800.139047,0.800139047,1
"257",1,31,"Female","r","h",3,65,"EXPERIMENT","Self","We","Nonmatching","We","Group-Self","Self","Bottom","n",900.170591,0.900170591,1
"258",1,31,"Female","r","h",3,66,"EXPERIMENT","We","We","Matching","We","Group-Self","Self","Bottom","m",1333.47059,1.33347059,1
"259",1,31,"Female","r","h",3,67,"EXPERIMENT","Self","They","Nonmatching","They","Group-Stranger","Stranger","Bottom","n",850.13429,0.85013429,1
"260",1,31,"Female","r","h",3,68,"EXPERIMENT","You","You","Matching","You","Individual_Stranger","Stranger","Top","n",950.14333,0.95014333,0
"261",1,31,"Female","r","h",3,69,"EXPERIMENT","They","They","Matching","They","Group-Stranger","Stranger","Top","m",1666.797081,1.666797081,1
"262",1,31,"Female","r","h",3,70,"EXPERIMENT","Self","Self","Matching","Self","Individual_Self","Self","Top","m",616.880797,0.616880797,1
"263",1,31,"Female","r","h",3,71,"EXPERIMENT","They","You","Nonmatching","You","Individual_Stranger","Stranger","Top","n",983.507445,0.983507445,1
"264",1,31,"Female","r","h",3,72,"EXPERIMENT","They","You","Nonmatching","You","Individual_Stranger","Stranger","Bottom","n",1033.455312,1.033455312,1
"265",1,31,"Female","r","h",3,73,"EXPERIMENT","You","You","Matching","You","Individual_Stranger","Stranger","Bottom","m",1250.134921,1.250134921,1
"266",1,31,"Female","r","h",3,74,"EXPERIMENT","We","We","Matching","We","Group-Self","Self","Bottom","m",866.827796,0.866827796,1
"267",1,31,"Female","r","h",3,75,"EXPERIMENT","Self","You","Nonmatching","You","Individual_Stranger","Stranger","Bottom","n",1683.45624,1.68345624,1
"268",1,31,"Female","r","h",3,76,"EXPERIMENT","Self","Self","Matching","Self","Individual_Self","Self","Top","m",683.466504,0.683466504,1
"269",1,31,"Female","r","h",3,77,"EXPERIMENT","We","They","Nonmatching","They","Group-Stranger","Stranger","Top","m",833.484211,0.833484211,0
"270",1,31,"Female","r","h",3,78,"EXPERIMENT","They","They","Matching","They","Group-Stranger","Stranger","Top","m",1133.487251,1.133487251,1
"271",1,31,"Female","r","h",3,79,"EXPERIMENT","You","They","Nonmatching","They","Group-Stranger","Stranger","Top","n",1233.446547,1.233446547,1
"272",1,31,"Female","r","h",3,80,"EXPERIMENT","We","Self","Nonmatching","Self","Individual_Self","Self","Bottom","n",983.482967,0.983482967,1
"273",1,31,"Female","r","h",3,81,"EXPERIMENT","We","They","Nonmatching","They","Group-Stranger","Stranger","Bottom","n",1266.837113,1.266837113,1
"274",1,31,"Female","r","h",3,82,"EXPERIMENT","You","Self","Nonmatching","Self","Individual_Self","Self","Bottom","n",849.956237,0.849956237,1
"275",1,31,"Female","r","h",3,83,"EXPERIMENT","We","Self","Nonmatching","Self","Individual_Self","Self","Top","n",866.813188,0.866813188,1
"276",1,31,"Female","r","h",3,84,"EXPERIMENT","Self","They","Nonmatching","They","Group-Stranger","Stranger","Bottom","n",833.503161,0.833503161,1
"277",1,31,"Female","r","h",3,85,"EXPERIMENT","They","They","Matching","They","Group-Stranger","Stranger","Top","m",1066.807582,1.066807582,1
"278",1,31,"Female","r","h",3,86,"EXPERIMENT","We","You","Nonmatching","You","Individual_Stranger","Stranger","Top","n",1416.812971,1.416812971,1
"279",1,31,"Female","r","h",3,87,"EXPERIMENT","You","We","Nonmatching","We","Group-Self","Self","Top","n",1200.118754,1.200118754,1
"280",1,31,"Female","r","h",3,88,"EXPERIMENT","You","You","Matching","You","Individual_Stranger","Stranger","Bottom","m",1400.126966,1.400126966,1
"281",1,31,"Female","r","h",3,89,"EXPERIMENT","We","Self","Nonmatching","Self","Individual_Self","Self","Top","n",900.146508,0.900146508,1
"282",1,31,"Female","r","h",3,90,"EXPERIMENT","They","They","Matching","They","Group-Stranger","Stranger","Bottom","n",1166.818202,1.166818202,0
"283",1,31,"Female","r","h",3,91,"EXPERIMENT","We","We","Matching","We","Group-Self","Self","Top","m",1400.115517,1.400115517,1
"284",1,31,"Female","r","h",3,92,"EXPERIMENT","Self","We","Nonmatching","We","Group-Self","Self","Top","n",833.511451,0.833511451,1
"285",1,31,"Female","r","h",3,93,"EXPERIMENT","We","You","Nonmatching","You","Individual_Stranger","Stranger","Top","n",1033.514926,1.033514926,1
"286",1,31,"Female","r","h",3,94,"EXPERIMENT","Self","Self","Matching","Self","Individual_Self","Self","Top","m",783.509892,0.783509892,1
"287",1,31,"Female","r","h",3,95,"EXPERIMENT","We","They","Nonmatching","They","Group-Stranger","Stranger","Top","m",866.941102,0.866941102,0
"288",1,31,"Female","r","h",3,96,"EXPERIMENT","We","We","Matching","We","Group-Self","Self","Top","n",1433.494239,1.433494239,0
"289",2,21,"Female","r","h",1,1,"EXPERIMENT","Self","Self","Matching","Self","Individual_Self","Self","Bottom","n",783.50397,0.78350397,1
"290",2,21,"Female","r","h",1,2,"EXPERIMENT","We","You","Nonmatching","You","Individual_Stranger","Stranger","Top","m",1433.497397,1.433497397,1
"291",2,21,"Female","r","h",1,3,"EXPERIMENT","We","We","Matching","We","Group-Self","Self","Bottom","m",750.171439,0.750171439,0
"292",2,21,"Female","r","h",1,4,"EXPERIMENT","Self","They","Nonmatching","They","Group-Stranger","Stranger","Top","m",1100.156299,1.100156299,1
"293",2,21,"Female","r","h",1,5,"EXPERIMENT","You","They","Nonmatching","They","Group-Stranger","Stranger","Top","m",1383.470176,1.383470176,1
"294",2,21,"Female","r","h",1,6,"EXPERIMENT","They","They","Matching","They","Group-Stranger","Stranger","Top","n",1433.516347,1.433516347,1
"295",2,21,"Female","r","h",1,7,"EXPERIMENT","You","You","Matching","You","Individual_Stranger","Stranger","Bottom","m",1116.797693,1.116797693,0
"296",2,21,"Female","r","h",1,8,"EXPERIMENT","Self","They","Nonmatching","They","Group-Stranger","Stranger","Bottom","m",833.471183,0.833471183,1
"297",2,21,"Female","r","h",1,9,"EXPERIMENT","We","You","Nonmatching","You","Individual_Stranger","Stranger","Bottom","m",1450.156951,1.450156951,1
"298",2,21,"Female","r","h",1,10,"EXPERIMENT","Self","We","Nonmatching","We","Group-Self","Self","Bottom","m",1083.492403,1.083492403,1
"299",2,21,"Female","r","h",1,11,"EXPERIMENT","Self","Self","Matching","Self","Individual_Self","Self","Bottom","n",883.518538,0.883518538,1
"300",2,21,"Female","r","h",1,12,"EXPERIMENT","They","They","Matching","They","Group-Stranger","Stranger","Top","n",1416.895089,1.416895089,1
"301",2,21,"Female","r","h",1,13,"EXPERIMENT","We","We","Matching","We","Group-Self","Self","Top","n",1233.45997,1.23345997,1
"302",2,21,"Female","r","h",1,14,"EXPERIMENT","Self","We","Nonmatching","We","Group-Self","Self","Top","m",1066.845482,1.066845482,1
"303",2,21,"Female","r","h",1,15,"EXPERIMENT","Self","Self","Matching","Self","Individual_Self","Self","Top","n",766.819149,0.766819149,1
"304",2,21,"Female","r","h",1,16,"EXPERIMENT","Self","Self","Matching","Self","Individual_Self","Self","Top","n",800.165893,0.800165893,1
"305",2,21,"Female","r","h",1,17,"EXPERIMENT","Self","They","Nonmatching","They","Group-Stranger","Stranger","Top","m",916.831329,0.916831329,1
"306",2,21,"Female","r","h",1,18,"EXPERIMENT","We","We","Matching","We","Group-Self","Self","Top","n",900.176118,0.900176118,1
"307",2,21,"Female","r","h",1,19,"EXPERIMENT","They","They","Matching","They","Group-Stranger","Stranger","Bottom","n",916.834487,0.916834487,1
"308",2,21,"Female","r","h",1,20,"EXPERIMENT","You","You","Matching","You","Individual_Stranger","Stranger","Bottom","n",583.46378,0.58346378,1
"309",2,21,"Female","r","h",1,21,"EXPERIMENT","They","They","Matching","They","Group-Stranger","Stranger","Bottom","m",783.520552,0.783520552,0
"310",2,21,"Female","r","h",1,22,"EXPERIMENT","We","They","Nonmatching","They","Group-Stranger","Stranger","Top","m",1300.13806,1.30013806,1
"311",2,21,"Female","r","h",1,23,"EXPERIMENT","They","Self","Nonmatching","Self","Individual_Self","Self","Bottom","m",916.818301,0.916818301,1
"312",2,21,"Female","r","h",1,24,"EXPERIMENT","They","You","Nonmatching","You","Individual_Stranger","Stranger","Bottom","None",NA,NA,3
"313",2,21,"Female","r","h",1,25,"EXPERIMENT","Self","We","Nonmatching","We","Group-Self","Self","Bottom","m",1233.448127,1.233448127,1
"314",2,21,"Female","r","h",1,26,"EXPERIMENT","Self","Self","Matching","Self","Individual_Self","Self","Bottom","n",583.472861,0.583472861,1
"315",2,21,"Female","r","h",1,27,"EXPERIMENT","We","We","Matching","We","Group-Self","Self","Top","n",1150.158254,1.150158254,1
"316",2,21,"Female","r","h",1,28,"EXPERIMENT","They","They","Matching","They","Group-Stranger","Stranger","Bottom","n",1216.811076,1.216811076,1
"317",2,21,"Female","r","h",1,29,"EXPERIMENT","We","We","Matching","We","Group-Self","Self","Top","n",1266.824874,1.266824874,1
"318",2,21,"Female","r","h",1,30,"EXPERIMENT","You","We","Nonmatching","We","Group-Self","Self","Bottom","m",900.159931,0.900159931,1
"319",2,21,"Female","r","h",1,31,"EXPERIMENT","Self","Self","Matching","Self","Individual_Self","Self","Top","n",700.186067,0.700186067,1
"320",2,21,"Female","r","h",1,32,"EXPERIMENT","You","You","Matching","You","Individual_Stranger","Stranger","Top","n",1166.839126,1.166839126,1
"321",2,21,"Female","r","h",1,33,"EXPERIMENT","They","We","Nonmatching","We","Group-Self","Self","Top","m",1066.861274,1.066861274,1
"322",2,21,"Female","r","h",1,34,"EXPERIMENT","You","They","Nonmatching","They","Group-Stranger","Stranger","Top","m",883.491297,0.883491297,1
"323",2,21,"Female","r","h",1,35,"EXPERIMENT","You","Self","Nonmatching","Self","Individual_Self","Self","Bottom","m",783.530027,0.783530027,1
"324",2,21,"Female","r","h",1,36,"EXPERIMENT","We","We","Matching","We","Group-Self","Self","Bottom","n",833.50395,0.83350395,1
"325",2,21,"Female","r","h",1,37,"EXPERIMENT","We","Self","Nonmatching","Self","Individual_Self","Self","Bottom","m",750.19947,0.75019947,1
"326",2,21,"Female","r","h",1,38,"EXPERIMENT","We","They","Nonmatching","They","Group-Stranger","Stranger","Bottom","m",1450.071675,1.450071675,1
"327",2,21,"Female","r","h",1,39,"EXPERIMENT","They","They","Matching","They","Group-Stranger","Stranger","Top","n",1350.165676,1.350165676,1
"328",2,21,"Female","r","h",1,40,"EXPERIMENT","They","They","Matching","They","Group-Stranger","Stranger","Top","n",1483.442896,1.483442896,1
"329",2,21,"Female","r","h",1,41,"EXPERIMENT","Self","Self","Matching","Self","Individual_Self","Self","Bottom","n",633.52219,0.63352219,1
"330",2,21,"Female","r","h",1,42,"EXPERIMENT","We","They","Nonmatching","They","Group-Stranger","Stranger","Top","m",1350.191338,1.350191338,1
"331",2,21,"Female","r","h",1,43,"EXPERIMENT","You","You","Matching","You","Individual_Stranger","Stranger","Bottom","n",1116.835593,1.116835593,1
"332",2,21,"Female","r","h",1,44,"EXPERIMENT","You","You","Matching","You","Individual_Stranger","Stranger","Top","n",616.856714,0.616856714,1
"333",2,21,"Female","r","h",1,45,"EXPERIMENT","You","Self","Nonmatching","Self","Individual_Self","Self","Top","m",883.468794,0.883468794,1
"334",2,21,"Female","r","h",1,46,"EXPERIMENT","We","Self","Nonmatching","Self","Individual_Self","Self","Bottom","m",1050.155529,1.050155529,1
"335",2,21,"Female","r","h",1,47,"EXPERIMENT","We","They","Nonmatching","They","Group-Stranger","Stranger","Bottom","n",983.445067,0.983445067,0
"336",2,21,"Female","r","h",1,48,"EXPERIMENT","You","You","Matching","You","Individual_Stranger","Stranger","Bottom","n",633.511531,0.633511531,1
"337",2,21,"Female","r","h",1,49,"EXPERIMENT","They","Self","Nonmatching","Self","Individual_Self","Self","Bottom","m",766.888239,0.766888239,1
"338",2,21,"Female","r","h",1,50,"EXPERIMENT","They","They","Matching","They","Group-Stranger","Stranger","Top","m",1200.143232,1.200143232,0
"339",2,21,"Female","r","h",1,51,"EXPERIMENT","Self","You","Nonmatching","You","Individual_Stranger","Stranger","Bottom","m",1266.822111,1.266822111,1
"340",2,21,"Female","r","h",1,52,"EXPERIMENT","Self","You","Nonmatching","You","Individual_Stranger","Stranger","Top","m",1116.805983,1.116805983,1
"341",2,21,"Female","r","h",1,53,"EXPERIMENT","You","They","Nonmatching","They","Group-Stranger","Stranger","Bottom","m",1250.144001,1.250144001,1
"342",2,21,"Female","r","h",1,54,"EXPERIMENT","You","We","Nonmatching","We","Group-Self","Self","Bottom","m",900.164669,0.900164669,1
"343",2,21,"Female","r","h",1,55,"EXPERIMENT","We","We","Matching","We","Group-Self","Self","Bottom","n",1416.819288,1.416819288,1
"344",2,21,"Female","r","h",1,56,"EXPERIMENT","They","They","Matching","They","Group-Stranger","Stranger","Bottom","n",1150.14562,1.15014562,1
"345",2,21,"Female","r","h",1,57,"EXPERIMENT","You","Self","Nonmatching","Self","Individual_Self","Self","Bottom","m",766.92456,0.76692456,1
"346",2,21,"Female","r","h",1,58,"EXPERIMENT","You","We","Nonmatching","We","Group-Self","Self","Top","m",1316.817748,1.316817748,1
"347",2,21,"Female","r","h",1,59,"EXPERIMENT","Self","Self","Matching","Self","Individual_Self","Self","Bottom","n",766.853892,0.766853892,1
"348",2,21,"Female","r","h",1,60,"EXPERIMENT","You","You","Matching","You","Individual_Stranger","Stranger","Bottom","m",916.8487,0.9168487,0
"349",2,21,"Female","r","h",1,61,"EXPERIMENT","Self","You","Nonmatching","You","Individual_Stranger","Stranger","Top","m",900.16309,0.90016309,1
"350",2,21,"Female","r","h",1,62,"EXPERIMENT","You","You","Matching","You","Individual_Stranger","Stranger","Top","n",883.501957,0.883501957,1
"351",2,21,"Female","r","h",1,63,"EXPERIMENT","Self","You","Nonmatching","You","Individual_Stranger","Stranger","Bottom","m",833.486185,0.833486185,1
"352",2,21,"Female","r","h",1,64,"EXPERIMENT","You","They","Nonmatching","They","Group-Stranger","Stranger","Bottom","m",983.443883,0.983443883,1
"353",2,21,"Female","r","h",1,65,"EXPERIMENT","You","You","Matching","You","Individual_Stranger","Stranger","Top","n",750.158411,0.750158411,1
"354",2,21,"Female","r","h",1,66,"EXPERIMENT","We","You","Nonmatching","You","Individual_Stranger","Stranger","Top","m",883.486955,0.883486955,1
"355",2,21,"Female","r","h",1,67,"EXPERIMENT","They","You","Nonmatching","You","Individual_Stranger","Stranger","Top","m",866.847535,0.866847535,1
"356",2,21,"Female","r","h",1,68,"EXPERIMENT","Self","They","Nonmatching","They","Group-Stranger","Stranger","Bottom","m",1633.463365,1.633463365,1
"357",2,21,"Female","r","h",1,69,"EXPERIMENT","They","They","Matching","They","Group-Stranger","Stranger","Bottom","n",1183.495522,1.183495522,1
"358",2,21,"Female","r","h",1,70,"EXPERIMENT","We","We","Matching","We","Group-Self","Self","Bottom","m",733.501226,0.733501226,0
"359",2,21,"Female","r","h",1,71,"EXPERIMENT","You","You","Matching","You","Individual_Stranger","Stranger","Top","m",766.83731,0.76683731,0
"360",2,21,"Female","r","h",1,72,"EXPERIMENT","They","Self","Nonmatching","Self","Individual_Self","Self","Top","m",833.482631,0.833482631,1
"361",2,21,"Female","r","h",1,73,"EXPERIMENT","We","Self","Nonmatching","Self","Individual_Self","Self","Top","m",800.16234,0.80016234,1
"362",2,21,"Female","r","h",1,74,"EXPERIMENT","They","We","Nonmatching","We","Group-Self","Self","Bottom","n",1066.830085,1.066830085,0
"363",2,21,"Female","r","h",1,75,"EXPERIMENT","Self","Self","Matching","Self","Individual_Self","Self","Top","n",700.16988,0.70016988,1
"364",2,21,"Female","r","h",1,76,"EXPERIMENT","They","We","Nonmatching","We","Group-Self","Self","Top","m",1166.809516,1.166809516,1
"365",2,21,"Female","r","h",1,77,"EXPERIMENT","You","You","Matching","You","Individual_Stranger","Stranger","Bottom","n",850.18206,0.85018206,1
"366",2,21,"Female","r","h",1,78,"EXPERIMENT","They","We","Nonmatching","We","Group-Self","Self","Bottom","m",1066.82969,1.06682969,1
"367",2,21,"Female","r","h",1,79,"EXPERIMENT","You","We","Nonmatching","We","Group-Self","Self","Top","m",716.881152,0.716881152,1
"368",2,21,"Female","r","h",1,80,"EXPERIMENT","They","Self","Nonmatching","Self","Individual_Self","Self","Top","m",716.888258,0.716888258,1
"369",2,21,"Female","r","h",1,81,"EXPERIMENT","We","Self","Nonmatching","Self","Individual_Self","Self","Top","m",866.849509,0.866849509,1
"370",2,21,"Female","r","h",1,82,"EXPERIMENT","We","We","Matching","We","Group-Self","Self","Top","n",1183.506181,1.183506181,1
"371",2,21,"Female","r","h",1,83,"EXPERIMENT","You","You","Matching","You","Individual_Stranger","Stranger","Top","n",950.161885,0.950161885,1
"372",2,21,"Female","r","h",1,84,"EXPERIMENT","Self","We","Nonmatching","We","Group-Self","Self","Top","None",NA,NA,3
"373",2,21,"Female","r","h",1,85,"EXPERIMENT","Self","Self","Matching","Self","Individual_Self","Self","Top","n",700.17975,0.70017975,1
"374",2,21,"Female","r","h",1,86,"EXPERIMENT","We","We","Matching","We","Group-Self","Self","Bottom","n",900.150851,0.900150851,1
"375",2,21,"Female","r","h",1,87,"EXPERIMENT","They","They","Matching","They","Group-Stranger","Stranger","Top","n",1016.82142,1.01682142,1
"376",2,21,"Female","r","h",1,88,"EXPERIMENT","Self","Self","Matching","Self","Individual_Self","Self","Bottom","n",800.178131,0.800178131,1
"377",2,21,"Female","r","h",1,89,"EXPERIMENT","You","Self","Nonmatching","Self","Individual_Self","Self","Top","n",666.83577,0.66683577,0
"378",2,21,"Female","r","h",1,90,"EXPERIMENT","We","We","Matching","We","Group-Self","Self","Top","m",1200.161787,1.200161787,0
"379",2,21,"Female","r","h",1,91,"EXPERIMENT","Self","Self","Matching","Self","Individual_Self","Self","Top","n",650.172663,0.650172663,1
"380",2,21,"Female","r","h",1,92,"EXPERIMENT","They","You","Nonmatching","You","Individual_Stranger","Stranger","Bottom","m",1466.819663,1.466819663,1
"381",2,21,"Female","r","h",1,93,"EXPERIMENT","We","You","Nonmatching","You","Individual_Stranger","Stranger","Bottom","m",833.502766,0.833502766,1
"382",2,21,"Female","r","h",1,94,"EXPERIMENT","We","We","Matching","We","Group-Self","Self","Bottom","n",900.253103,0.900253103,1
"383",2,21,"Female","r","h",1,95,"EXPERIMENT","They","You","Nonmatching","You","Individual_Stranger","Stranger","Top","m",1083.495561,1.083495561,1
"384",2,21,"Female","r","h",1,96,"EXPERIMENT","They","They","Matching","They","Group-Stranger","Stranger","Bottom","n",1000.129098,1.000129098,1
"385",2,21,"Female","r","h",2,1,"EXPERIMENT","We","We","Matching","We","Group-Self","Self","Top","n",1116.790586,1.116790586,1
"386",2,21,"Female","r","h",2,2,"EXPERIMENT","They","You","Nonmatching","You","Individual_Stranger","Stranger","Bottom","n",1216.825289,1.216825289,0
"387",2,21,"Female","r","h",2,3,"EXPERIMENT","We","Self","Nonmatching","Self","Individual_Self","Self","Top","n",650.184902,0.650184902,0
"388",2,21,"Female","r","h",2,4,"EXPERIMENT","You","You","Matching","You","Individual_Stranger","Stranger","Bottom","m",1216.805549,1.216805549,0
"389",2,21,"Female","r","h",2,5,"EXPERIMENT","They","Self","Nonmatching","Self","Individual_Self","Self","Top","m",783.501602,0.783501602,1
"390",2,21,"Female","r","h",2,6,"EXPERIMENT","Self","Self","Matching","Self","Individual_Self","Self","Top","n",600.171894,0.600171894,1
"391",2,21,"Female","r","h",2,7,"EXPERIMENT","You","We","Nonmatching","We","Group-Self","Self","Top","m",833.490133,0.833490133,1
"392",2,21,"Female","r","h",2,8,"EXPERIMENT","We","You","Nonmatching","You","Individual_Stranger","Stranger","Bottom","m",1100.258551,1.100258551,1
"393",2,21,"Female","r","h",2,9,"EXPERIMENT","You","They","Nonmatching","They","Group-Stranger","Stranger","Bottom","m",1150.173651,1.150173651,1
"394",2,21,"Female","r","h",2,10,"EXPERIMENT","Self","We","Nonmatching","We","Group-Self","Self","Top","n",1400.162103,1.400162103,0
"395",2,21,"Female","r","h",2,11,"EXPERIMENT","Self","Self","Matching","Self","Individual_Self","Self","Bottom","n",683.564019,0.683564019,1
"396",2,21,"Female","r","h",2,12,"EXPERIMENT","They","They","Matching","They","Group-Stranger","Stranger","Bottom","n",1133.465142,1.133465142,1
"397",2,21,"Female","r","h",2,13,"EXPERIMENT","Self","They","Nonmatching","They","Group-Stranger","Stranger","Bottom","m",933.493646,0.933493646,1
"398",2,21,"Female","r","h",2,14,"EXPERIMENT","We","You","Nonmatching","You","Individual_Stranger","Stranger","Top","m",1166.871105,1.166871105,1
"399",2,21,"Female","r","h",2,15,"EXPERIMENT","You","You","Matching","You","Individual_Stranger","Stranger","Top","n",916.798956,0.916798956,1
"400",2,21,"Female","r","h",2,16,"EXPERIMENT","They","They","Matching","They","Group-Stranger","Stranger","Top","n",1400.162103,1.400162103,1
"401",2,21,"Female","r","h",2,17,"EXPERIMENT","They","Self","Nonmatching","Self","Individual_Self","Self","Bottom","m",1016.807207,1.016807207,1
"402",2,21,"Female","r","h",2,18,"EXPERIMENT","We","We","Matching","We","Group-Self","Self","Bottom","n",966.841574,0.966841574,1
"403",2,21,"Female","r","h",2,19,"EXPERIMENT","Self","We","Nonmatching","We","Group-Self","Self","Top","m",1233.498266,1.233498266,1
"404",2,21,"Female","r","h",2,20,"EXPERIMENT","You","We","Nonmatching","We","Group-Self","Self","Top","m",883.495245,0.883495245,1
"405",2,21,"Female","r","h",2,21,"EXPERIMENT","Self","Self","Matching","Self","Individual_Self","Self","Top","n",783.501207,0.783501207,1
"406",2,21,"Female","r","h",2,22,"EXPERIMENT","You","You","Matching","You","Individual_Stranger","Stranger","Top","n",1000.160287,1.000160287,1
"407",2,21,"Female","r","h",2,23,"EXPERIMENT","They","We","Nonmatching","We","Group-Self","Self","Top","m",1500.118636,1.500118636,1
"408",2,21,"Female","r","h",2,24,"EXPERIMENT","They","They","Matching","They","Group-Stranger","Stranger","Bottom","n",1233.491554,1.233491554,1
"409",2,21,"Female","r","h",2,25,"EXPERIMENT","We","We","Matching","We","Group-Self","Self","Bottom","n",1083.472663,1.083472663,1
"410",2,21,"Female","r","h",2,26,"EXPERIMENT","We","Self","Nonmatching","Self","Individual_Self","Self","Bottom","m",850.165084,0.850165084,1
"411",2,21,"Female","r","h",2,27,"EXPERIMENT","You","You","Matching","You","Individual_Stranger","Stranger","Bottom","n",800.164314,0.800164314,1
"412",2,21,"Female","r","h",2,28,"EXPERIMENT","Self","Self","Matching","Self","Individual_Self","Self","Top","n",816.83887,0.81683887,1
"413",2,21,"Female","r","h",2,29,"EXPERIMENT","They","You","Nonmatching","You","Individual_Stranger","Stranger","Top","m",1216.768438,1.216768438,1
"414",2,21,"Female","r","h",2,30,"EXPERIMENT","Self","Self","Matching","Self","Individual_Self","Self","Top","n",633.547062,0.633547062,1
"415",2,21,"Female","r","h",2,31,"EXPERIMENT","Self","You","Nonmatching","You","Individual_Stranger","Stranger","Bottom","m",983.539028,0.983539028,1
"416",2,21,"Female","r","h",2,32,"EXPERIMENT","You","They","Nonmatching","They","Group-Stranger","Stranger","Top","m",1000.185554,1.000185554,1
"417",2,21,"Female","r","h",2,33,"EXPERIMENT","We","They","Nonmatching","They","Group-Stranger","Stranger","Top","n",1333.471775,1.333471775,0
"418",2,21,"Female","r","h",2,34,"EXPERIMENT","You","You","Matching","You","Individual_Stranger","Stranger","Top","n",783.485415,0.783485415,1
"419",2,21,"Female","r","h",2,35,"EXPERIMENT","They","We","Nonmatching","We","Group-Self","Self","Bottom","m",1333.495857,1.333495857,1
"420",2,21,"Female","r","h",2,36,"EXPERIMENT","We","You","Nonmatching","You","Individual_Stranger","Stranger","Bottom","n",1450.179454,1.450179454,0
"421",2,21,"Female","r","h",2,37,"EXPERIMENT","We","We","Matching","We","Group-Self","Self","Top","n",1183.484862,1.183484862,1
"422",2,21,"Female","r","h",2,38,"EXPERIMENT","They","We","Nonmatching","We","Group-Self","Self","Bottom","m",1016.813129,1.016813129,1
"423",2,21,"Female","r","h",2,39,"EXPERIMENT","Self","You","Nonmatching","You","Individual_Stranger","Stranger","Top","m",1183.479335,1.183479335,1
"424",2,21,"Female","r","h",2,40,"EXPERIMENT","They","They","Matching","They","Group-Stranger","Stranger","Top","None",NA,NA,3
"425",2,21,"Female","r","h",2,41,"EXPERIMENT","We","We","Matching","We","Group-Self","Self","Top","n",1400.191318,1.400191318,1
"426",2,21,"Female","r","h",2,42,"EXPERIMENT","We","They","Nonmatching","They","Group-Stranger","Stranger","Top","m",1016.82142,1.01682142,1
"427",2,21,"Female","r","h",2,43,"EXPERIMENT","You","You","Matching","You","Individual_Stranger","Stranger","Top","n",983.487705,0.983487705,1
"428",2,21,"Female","r","h",2,44,"EXPERIMENT","You","You","Matching","You","Individual_Stranger","Stranger","Bottom","n",866.835297,0.866835297,1
"429",2,21,"Female","r","h",2,45,"EXPERIMENT","You","Self","Nonmatching","Self","Individual_Self","Self","Top","m",1016.825368,1.016825368,1
"430",2,21,"Female","r","h",2,46,"EXPERIMENT","We","They","Nonmatching","They","Group-Stranger","Stranger","Bottom","m",1416.766385,1.416766385,1
"431",2,21,"Female","r","h",2,47,"EXPERIMENT","We","We","Matching","We","Group-Self","Self","Bottom","n",1366.854839,1.366854839,1
"432",2,21,"Female","r","h",2,48,"EXPERIMENT","They","They","Matching","They","Group-Stranger","Stranger","Top","n",733.497673,0.733497673,1
"433",2,21,"Female","r","h",2,49,"EXPERIMENT","Self","Self","Matching","Self","Individual_Self","Self","Bottom","n",849.968081,0.849968081,1
"434",2,21,"Female","r","h",2,50,"EXPERIMENT","Self","Self","Matching","Self","Individual_Self","Self","Bottom","n",583.563268,0.583563268,1
"435",2,21,"Female","r","h",2,51,"EXPERIMENT","They","They","Matching","They","Group-Stranger","Stranger","Bottom","n",750.148147,0.750148147,1
"436",2,21,"Female","r","h",2,52,"EXPERIMENT","They","They","Matching","They","Group-Stranger","Stranger","Top","n",1150.182731,1.150182731,1
"437",2,21,"Female","r","h",2,53,"EXPERIMENT","We","Self","Nonmatching","Self","Individual_Self","Self","Top","m",816.827026,0.816827026,1
"438",2,21,"Female","r","h",2,54,"EXPERIMENT","They","Self","Nonmatching","Self","Individual_Self","Self","Bottom","m",800.174578,0.800174578,1
"439",2,21,"Female","r","h",2,55,"EXPERIMENT","We","Self","Nonmatching","Self","Individual_Self","Self","Bottom","m",966.852234,0.966852234,1
"440",2,21,"Female","r","h",2,56,"EXPERIMENT","Self","You","Nonmatching","You","Individual_Stranger","Stranger","Bottom","m",1016.831684,1.016831684,1
"441",2,21,"Female","r","h",2,57,"EXPERIMENT","They","Self","Nonmatching","Self","Individual_Self","Self","Top","m",1066.847062,1.066847062,1
"442",2,21,"Female","r","h",2,58,"EXPERIMENT","They","You","Nonmatching","You","Individual_Stranger","Stranger","Bottom","m",1050.157898,1.050157898,1
"443",2,21,"Female","r","h",2,59,"EXPERIMENT","Self","Self","Matching","Self","Individual_Self","Self","Bottom","n",633.509162,0.633509162,1
"444",2,21,"Female","r","h",2,60,"EXPERIMENT","Self","They","Nonmatching","They","Group-Stranger","Stranger","Top","m",966.838021,0.966838021,1
"445",2,21,"Female","r","h",2,61,"EXPERIMENT","We","You","Nonmatching","You","Individual_Stranger","Stranger","Top","m",1316.815774,1.316815774,1
"446",2,21,"Female","r","h",2,62,"EXPERIMENT","You","Self","Nonmatching","Self","Individual_Self","Self","Top","m",816.829395,0.816829395,1
"447",2,21,"Female","r","h",2,63,"EXPERIMENT","We","We","Matching","We","Group-Self","Self","Top","n",1033.534271,1.033534271,1
"448",2,21,"Female","r","h",2,64,"EXPERIMENT","They","You","Nonmatching","You","Individual_Stranger","Stranger","Top","m",1166.819781,1.166819781,1
"449",2,21,"Female","r","h",2,65,"EXPERIMENT","They","They","Matching","They","Group-Stranger","Stranger","Bottom","n",1033.475841,1.033475841,1
"450",2,21,"Female","r","h",2,66,"EXPERIMENT","You","Self","Nonmatching","Self","Individual_Self","Self","Bottom","m",783.497653,0.783497653,1
"451",2,21,"Female","r","h",2,67,"EXPERIMENT","You","You","Matching","You","Individual_Stranger","Stranger","Bottom","n",900.176513,0.900176513,1
"452",2,21,"Female","r","h",2,68,"EXPERIMENT","Self","They","Nonmatching","They","Group-Stranger","Stranger","Bottom","m",933.519703,0.933519703,1
"453",2,21,"Female","r","h",2,69,"EXPERIMENT","You","They","Nonmatching","They","Group-Stranger","Stranger","Bottom","m",1000.136599,1.000136599,1
"454",2,21,"Female","r","h",2,70,"EXPERIMENT","We","We","Matching","We","Group-Self","Self","Top","n",1150.185494,1.150185494,1
"455",2,21,"Female","r","h",2,71,"EXPERIMENT","You","You","Matching","You","Individual_Stranger","Stranger","Top","n",716.960901,0.716960901,1
"456",2,21,"Female","r","h",2,72,"EXPERIMENT","We","They","Nonmatching","They","Group-Stranger","Stranger","Bottom","m",1283.461135,1.283461135,1
"457",2,21,"Female","r","h",2,73,"EXPERIMENT","They","We","Nonmatching","We","Group-Self","Self","Top","m",1216.805944,1.216805944,1
"458",2,21,"Female","r","h",2,74,"EXPERIMENT","Self","You","Nonmatching","You","Individual_Stranger","Stranger","Top","m",766.818755,0.766818755,1
"459",2,21,"Female","r","h",2,75,"EXPERIMENT","You","You","Matching","You","Individual_Stranger","Stranger","Bottom","n",783.482651,0.783482651,1
"460",2,21,"Female","r","h",2,76,"EXPERIMENT","Self","Self","Matching","Self","Individual_Self","Self","Bottom","n",683.562439,0.683562439,1
"461",2,21,"Female","r","h",2,77,"EXPERIMENT","Self","We","Nonmatching","We","Group-Self","Self","Bottom","m",1100.156694,1.100156694,1
"462",2,21,"Female","r","h",2,78,"EXPERIMENT","You","We","Nonmatching","We","Group-Self","Self","Bottom","m",916.856991,0.916856991,1
"463",2,21,"Female","r","h",2,79,"EXPERIMENT","They","They","Matching","They","Group-Stranger","Stranger","Bottom","n",1350.111589,1.350111589,1
"464",2,21,"Female","r","h",2,80,"EXPERIMENT","You","You","Matching","You","Individual_Stranger","Stranger","Bottom","n",633.505214,0.633505214,1
"465",2,21,"Female","r","h",2,81,"EXPERIMENT","They","They","Matching","They","Group-Stranger","Stranger","Bottom","n",1000.131467,1.000131467,1
"466",2,21,"Female","r","h",2,82,"EXPERIMENT","You","You","Matching","You","Individual_Stranger","Stranger","Top","n",516.785296,0.516785296,1
"467",2,21,"Female","r","h",2,83,"EXPERIMENT","Self","Self","Matching","Self","Individual_Self","Self","Top","n",766.832967,0.766832967,1
"468",2,21,"Female","r","h",2,84,"EXPERIMENT","You","They","Nonmatching","They","Group-Stranger","Stranger","Top","m",916.854622,0.916854622,1
"469",2,21,"Female","r","h",2,85,"EXPERIMENT","We","We","Matching","We","Group-Self","Self","Bottom","n",1066.827322,1.066827322,1
"470",2,21,"Female","r","h",2,86,"EXPERIMENT","Self","Self","Matching","Self","Individual_Self","Self","Bottom","n",550.146252,0.550146252,1
"471",2,21,"Female","r","h",2,87,"EXPERIMENT","Self","We","Nonmatching","We","Group-Self","Self","Bottom","n",616.8654,0.6168654,0
"472",2,21,"Female","r","h",2,88,"EXPERIMENT","You","Self","Nonmatching","Self","Individual_Self","Self","Bottom","m",1250.153871,1.250153871,1
"473",2,21,"Female","r","h",2,89,"EXPERIMENT","We","We","Matching","We","Group-Self","Self","Bottom","n",1400.102489,1.400102489,1
"474",2,21,"Female","r","h",2,90,"EXPERIMENT","Self","They","Nonmatching","They","Group-Stranger","Stranger","Top","m",1000.18279,1.00018279,1
"475",2,21,"Female","r","h",2,91,"EXPERIMENT","They","They","Matching","They","Group-Stranger","Stranger","Top","m",983.584824,0.983584824,0
"476",2,21,"Female","r","h",2,92,"EXPERIMENT","We","We","Matching","We","Group-Self","Self","Top","n",1283.433499,1.283433499,1
"477",2,21,"Female","r","h",2,93,"EXPERIMENT","They","They","Matching","They","Group-Stranger","Stranger","Top","n",950.186363,0.950186363,1
"478",2,21,"Female","r","h",2,94,"EXPERIMENT","You","We","Nonmatching","We","Group-Self","Self","Bottom","m",750.165518,0.750165518,1
"479",2,21,"Female","r","h",2,95,"EXPERIMENT","Self","Self","Matching","Self","Individual_Self","Self","Top","n",666.846035,0.666846035,1
"480",2,21,"Female","r","h",2,96,"EXPERIMENT","We","We","Matching","We","Group-Self","Self","Bottom","n",900.145719,0.900145719,1
"481",2,21,"Female","r","h",3,1,"EXPERIMENT","We","We","Matching","We","Group-Self","Self","Bottom","n",1433.414885,1.433414885,1
"482",2,21,"Female","r","h",3,2,"EXPERIMENT","You","You","Matching","You","Individual_Stranger","Stranger","Bottom","n",766.845601,0.766845601,1
"483",2,21,"Female","r","h",3,3,"EXPERIMENT","They","You","Nonmatching","You","Individual_Stranger","Stranger","Top","m",916.837646,0.916837646,1
"484",2,21,"Female","r","h",3,4,"EXPERIMENT","Self","Self","Matching","Self","Individual_Self","Self","Top","n",666.839324,0.666839324,1
"485",2,21,"Female","r","h",3,5,"EXPERIMENT","Self","Self","Matching","Self","Individual_Self","Self","Top","n",566.863051,0.566863051,1
"486",2,21,"Female","r","h",3,6,"EXPERIMENT","They","You","Nonmatching","You","Individual_Stranger","Stranger","Top","m",1150.149568,1.150149568,1
"487",2,21,"Female","r","h",3,7,"EXPERIMENT","You","You","Matching","You","Individual_Stranger","Stranger","Top","n",716.821538,0.716821538,1
"488",2,21,"Female","r","h",3,8,"EXPERIMENT","We","Self","Nonmatching","Self","Individual_Self","Self","Top","m",750.182889,0.750182889,1
"489",2,21,"Female","r","h",3,9,"EXPERIMENT","We","You","Nonmatching","You","Individual_Stranger","Stranger","Top","m",849.947551,0.849947551,1
"490",2,21,"Female","r","h",3,10,"EXPERIMENT","You","Self","Nonmatching","Self","Individual_Self","Self","Bottom","m",800.197082,0.800197082,1
"491",2,21,"Female","r","h",3,11,"EXPERIMENT","You","We","Nonmatching","We","Group-Self","Self","Bottom","m",900.166248,0.900166248,1
"492",2,21,"Female","r","h",3,12,"EXPERIMENT","We","We","Matching","We","Group-Self","Self","Top","n",733.511096,0.733511096,1
"493",2,21,"Female","r","h",3,13,"EXPERIMENT","We","We","Matching","We","Group-Self","Self","Bottom","n",966.783934,0.966783934,1
"494",2,21,"Female","r","h",3,14,"EXPERIMENT","We","We","Matching","We","Group-Self","Self","Bottom","n",766.878764,0.766878764,1
"495",2,21,"Female","r","h",3,15,"EXPERIMENT","You","You","Matching","You","Individual_Stranger","Stranger","Top","n",850.165083,0.850165083,1
"496",2,21,"Female","r","h",3,16,"EXPERIMENT","You","We","Nonmatching","We","Group-Self","Self","Top","m",866.849509,0.866849509,1
"497",2,21,"Female","r","h",3,17,"EXPERIMENT","Self","You","Nonmatching","You","Individual_Stranger","Stranger","Bottom","m",983.479019,0.983479019,1
"498",2,21,"Female","r","h",3,18,"EXPERIMENT","Self","Self","Matching","Self","Individual_Self","Self","Top","n",700.146587,0.700146587,1
"499",2,21,"Female","r","h",3,19,"EXPERIMENT","We","They","Nonmatching","They","Group-Stranger","Stranger","Bottom","m",1166.837942,1.166837942,1
"500",2,21,"Female","r","h",3,20,"EXPERIMENT","You","You","Matching","You","Individual_Stranger","Stranger","Bottom","n",900.141376,0.900141376,1
"501",2,21,"Female","r","h",3,21,"EXPERIMENT","Self","Self","Matching","Self","Individual_Self","Self","Bottom","n",600.190054,0.600190054,1
"502",2,21,"Female","r","h",3,22,"EXPERIMENT","We","We","Matching","We","Group-Self","Self","Top","n",983.453752,0.983453752,1
"503",2,21,"Female","r","h",3,23,"EXPERIMENT","You","You","Matching","You","Individual_Stranger","Stranger","Bottom","n",800.172999,0.800172999,1
"504",2,21,"Female","r","h",3,24,"EXPERIMENT","They","Self","Nonmatching","Self","Individual_Self","Self","Bottom","m",950.17373,0.95017373,1
"505",2,21,"Female","r","h",3,25,"EXPERIMENT","You","You","Matching","You","Individual_Stranger","Stranger","Top","n",1033.491238,1.033491238,1
"506",2,21,"Female","r","h",3,26,"EXPERIMENT","Self","Self","Matching","Self","Individual_Self","Self","Top","n",583.502865,0.583502865,1
"507",2,21,"Female","r","h",3,27,"EXPERIMENT","You","Self","Nonmatching","Self","Individual_Self","Self","Top","m",1233.561433,1.233561433,1
"508",2,21,"Female","r","h",3,28,"EXPERIMENT","Self","Self","Matching","Self","Individual_Self","Self","Top","n",616.858688,0.616858688,1
"509",2,21,"Female","r","h",3,29,"EXPERIMENT","They","They","Matching","They","Group-Stranger","Stranger","Bottom","n",1233.487211,1.233487211,1
"510",2,21,"Female","r","h",3,30,"EXPERIMENT","Self","You","Nonmatching","You","Individual_Stranger","Stranger","Top","m",1100.170907,1.100170907,1
"511",2,21,"Female","r","h",3,31,"EXPERIMENT","Self","Self","Matching","Self","Individual_Self","Self","Bottom","n",516.82675,0.51682675,1
"512",2,21,"Female","r","h",3,32,"EXPERIMENT","We","Self","Nonmatching","Self","Individual_Self","Self","Top","m",833.537113,0.833537113,1
"513",2,21,"Female","r","h",3,33,"EXPERIMENT","Self","They","Nonmatching","They","Group-Stranger","Stranger","Top","m",1150.144041,1.150144041,1
"514",2,21,"Female","r","h",3,34,"EXPERIMENT","We","We","Matching","We","Group-Self","Self","Top","n",750.155648,0.750155648,1
"515",2,21,"Female","r","h",3,35,"EXPERIMENT","They","They","Matching","They","Group-Stranger","Stranger","Bottom","n",1083.539778,1.083539778,1
"516",2,21,"Female","r","h",3,36,"EXPERIMENT","They","They","Matching","They","Group-Stranger","Stranger","Bottom","n",916.643407,0.916643407,1
"517",2,21,"Female","r","h",3,37,"EXPERIMENT","Self","They","Nonmatching","They","Group-Stranger","Stranger","Bottom","m",1300.158984,1.300158984,1
"518",2,21,"Female","r","h",3,38,"EXPERIMENT","You","We","Nonmatching","We","Group-Self","Self","Bottom","m",850.139422,0.850139422,1
"519",2,21,"Female","r","h",3,39,"EXPERIMENT","We","We","Matching","We","Group-Self","Self","Top","n",783.473571,0.783473571,1
"520",2,21,"Female","r","h",3,40,"EXPERIMENT","We","We","Matching","We","Group-Self","Self","Top","n",833.504346,0.833504346,1
"521",2,21,"Female","r","h",3,41,"EXPERIMENT","They","You","Nonmatching","You","Individual_Stranger","Stranger","Bottom","m",1500.12061,1.50012061,1
"522",2,21,"Female","r","h",3,42,"EXPERIMENT","We","We","Matching","We","Group-Self","Self","Bottom","n",1266.797238,1.266797238,1
"523",2,21,"Female","r","h",3,43,"EXPERIMENT","You","You","Matching","You","Individual_Stranger","Stranger","Top","n",700.177381,0.700177381,1
"524",2,21,"Female","r","h",3,44,"EXPERIMENT","They","They","Matching","They","Group-Stranger","Stranger","Top","n",783.513051,0.783513051,1
"525",2,21,"Female","r","h",3,45,"EXPERIMENT","Self","Self","Matching","Self","Individual_Self","Self","Bottom","n",766.821913,0.766821913,1
"526",2,21,"Female","r","h",3,46,"EXPERIMENT","You","They","Nonmatching","They","Group-Stranger","Stranger","Bottom","m",916.835277,0.916835277,1
"527",2,21,"Female","r","h",3,47,"EXPERIMENT","They","They","Matching","They","Group-Stranger","Stranger","Bottom","n",783.489758,0.783489758,1
"528",2,21,"Female","r","h",3,48,"EXPERIMENT","We","We","Matching","We","Group-Self","Self","Bottom","n",750.151305,0.750151305,1
"529",2,21,"Female","r","h",3,49,"EXPERIMENT","They","They","Matching","They","Group-Stranger","Stranger","Bottom","n",683.588891,0.683588891,1
"530",2,21,"Female","r","h",3,50,"EXPERIMENT","Self","You","Nonmatching","You","Individual_Stranger","Stranger","Bottom","m",883.475111,0.883475111,1
"531",2,21,"Female","r","h",3,51,"EXPERIMENT","Self","We","Nonmatching","We","Group-Self","Self","Top","m",1016.842344,1.016842344,1
"532",2,21,"Female","r","h",3,52,"EXPERIMENT","You","You","Matching","You","Individual_Stranger","Stranger","Bottom","n",1283.476927,1.283476927,1
"533",2,21,"Female","r","h",3,53,"EXPERIMENT","They","They","Matching","They","Group-Stranger","Stranger","Bottom","n",800.164708,0.800164708,1
"534",2,21,"Female","r","h",3,54,"EXPERIMENT","You","They","Nonmatching","They","Group-Stranger","Stranger","Top","m",983.494811,0.983494811,1
"535",2,21,"Female","r","h",3,55,"EXPERIMENT","You","You","Matching","You","Individual_Stranger","Stranger","Bottom","n",933.507859,0.933507859,1
"536",2,21,"Female","r","h",3,56,"EXPERIMENT","Self","They","Nonmatching","They","Group-Stranger","Stranger","Top","m",833.509872,0.833509872,1
"537",2,21,"Female","r","h",3,57,"EXPERIMENT","We","You","Nonmatching","You","Individual_Stranger","Stranger","Top","m",850.195088,0.850195088,1
"538",2,21,"Female","r","h",3,58,"EXPERIMENT","Self","We","Nonmatching","We","Group-Self","Self","Bottom","m",833.49645,0.83349645,1
"539",2,21,"Female","r","h",3,59,"EXPERIMENT","We","Self","Nonmatching","Self","Individual_Self","Self","Bottom","m",750.19039,0.75019039,1
"540",2,21,"Female","r","h",3,60,"EXPERIMENT","They","We","Nonmatching","We","Group-Self","Self","Bottom","m",883.490113,0.883490113,1
"541",2,21,"Female","r","h",3,61,"EXPERIMENT","We","You","Nonmatching","You","Individual_Stranger","Stranger","Bottom","m",966.81157,0.96681157,1
"542",2,21,"Female","r","h",3,62,"EXPERIMENT","You","You","Matching","You","Individual_Stranger","Stranger","Top","n",850.149686,0.850149686,1
"543",2,21,"Female","r","h",3,63,"EXPERIMENT","They","Self","Nonmatching","Self","Individual_Self","Self","Top","m",816.616995,0.816616995,1
"544",2,21,"Female","r","h",3,64,"EXPERIMENT","They","Self","Nonmatching","Self","Individual_Self","Self","Top","m",716.859833,0.716859833,1
"545",2,21,"Female","r","h",3,65,"EXPERIMENT","You","They","Nonmatching","They","Group-Stranger","Stranger","Top","m",816.832158,0.816832158,1
"546",2,21,"Female","r","h",3,66,"EXPERIMENT","They","We","Nonmatching","We","Group-Self","Self","Bottom","m",1183.482888,1.183482888,1
"547",2,21,"Female","r","h",3,67,"EXPERIMENT","You","They","Nonmatching","They","Group-Stranger","Stranger","Bottom","m",866.826216,0.866826216,1
"548",2,21,"Female","r","h",3,68,"EXPERIMENT","You","Self","Nonmatching","Self","Individual_Self","Self","Bottom","m",733.491356,0.733491356,1
"549",2,21,"Female","r","h",3,69,"EXPERIMENT","They","We","Nonmatching","We","Group-Self","Self","Top","n",766.850733,0.766850733,0
"550",2,21,"Female","r","h",3,70,"EXPERIMENT","Self","You","Nonmatching","You","Individual_Stranger","Stranger","Top","m",783.469228,0.783469228,1
"551",2,21,"Female","r","h",3,71,"EXPERIMENT","They","We","Nonmatching","We","Group-Self","Self","Top","m",1033.471893,1.033471893,1
"552",2,21,"Female","r","h",3,72,"EXPERIMENT","We","We","Matching","We","Group-Self","Self","Bottom","n",783.473176,0.783473176,1
"553",2,21,"Female","r","h",3,73,"EXPERIMENT","Self","Self","Matching","Self","Individual_Self","Self","Bottom","n",616.862636,0.616862636,1
"554",2,21,"Female","r","h",3,74,"EXPERIMENT","They","You","Nonmatching","You","Individual_Stranger","Stranger","Bottom","m",1550.121774,1.550121774,1
"555",2,21,"Female","r","h",3,75,"EXPERIMENT","Self","Self","Matching","Self","Individual_Self","Self","Bottom","n",650.203457,0.650203457,1
"556",2,21,"Female","r","h",3,76,"EXPERIMENT","They","They","Matching","They","Group-Stranger","Stranger","Top","n",1116.905077,1.116905077,1
"557",2,21,"Female","r","h",3,77,"EXPERIMENT","Self","We","Nonmatching","We","Group-Self","Self","Top","m",1083.435947,1.083435947,1
"558",2,21,"Female","r","h",3,78,"EXPERIMENT","Self","They","Nonmatching","They","Group-Stranger","Stranger","Bottom","m",1000.18358,1.00018358,1
"559",2,21,"Female","r","h",3,79,"EXPERIMENT","You","Self","Nonmatching","Self","Individual_Self","Self","Top","m",833.533165,0.833533165,1
"560",2,21,"Female","r","h",3,80,"EXPERIMENT","Self","Self","Matching","Self","Individual_Self","Self","Bottom","n",733.488988,0.733488988,1
"561",2,21,"Female","r","h",3,81,"EXPERIMENT","They","Self","Nonmatching","Self","Individual_Self","Self","Bottom","m",900.177302,0.900177302,1
"562",2,21,"Female","r","h",3,82,"EXPERIMENT","We","We","Matching","We","Group-Self","Self","Top","n",883.520907,0.883520907,1
"563",2,21,"Female","r","h",3,83,"EXPERIMENT","They","They","Matching","They","Group-Stranger","Stranger","Top","n",883.512221,0.883512221,1
"564",2,21,"Female","r","h",3,84,"EXPERIMENT","You","You","Matching","You","Individual_Stranger","Stranger","Top","n",716.840488,0.716840488,1
"565",2,21,"Female","r","h",3,85,"EXPERIMENT","You","You","Matching","You","Individual_Stranger","Stranger","Bottom","n",816.850713,0.816850713,1
"566",2,21,"Female","r","h",3,86,"EXPERIMENT","Self","Self","Matching","Self","Individual_Self","Self","Top","n",733.498858,0.733498858,1
"567",2,21,"Female","r","h",3,87,"EXPERIMENT","We","They","Nonmatching","They","Group-Stranger","Stranger","Top","m",1683.464925,1.683464925,1
"568",2,21,"Female","r","h",3,88,"EXPERIMENT","We","They","Nonmatching","They","Group-Stranger","Stranger","Top","m",799.972838,0.799972838,1
"569",2,21,"Female","r","h",3,89,"EXPERIMENT","They","They","Matching","They","Group-Stranger","Stranger","Top","n",833.46763,0.83346763,1
"570",2,21,"Female","r","h",3,90,"EXPERIMENT","We","Self","Nonmatching","Self","Individual_Self","Self","Bottom","m",800.161155,0.800161155,1
"571",2,21,"Female","r","h",3,91,"EXPERIMENT","They","They","Matching","They","Group-Stranger","Stranger","Top","n",1383.463859,1.383463859,1
"572",2,21,"Female","r","h",3,92,"EXPERIMENT","We","You","Nonmatching","You","Individual_Stranger","Stranger","Bottom","m",1183.465912,1.183465912,1
"573",2,21,"Female","r","h",3,93,"EXPERIMENT","They","They","Matching","They","Group-Stranger","Stranger","Top","n",1016.909854,1.016909854,1
"574",2,21,"Female","r","h",3,94,"EXPERIMENT","You","We","Nonmatching","We","Group-Self","Self","Top","m",983.502707,0.983502707,1
"575",2,21,"Female","r","h",3,95,"EXPERIMENT","Self","We","Nonmatching","We","Group-Self","Self","Bottom","m",1566.804226,1.566804226,1
"576",2,21,"Female","r","h",3,96,"EXPERIMENT","We","They","Nonmatching","They","Group-Stranger","Stranger","Bottom","m",1050.148028,1.050148028,1
"577",3,20,"Male","r","h",1,1,"EXPERIMENT","Self","Self","Matching","Self","Individual_Self","Self","Bottom","m",1016.822999,1.016822999,1
"578",3,20,"Male","r","h",1,2,"EXPERIMENT","You","Self","Nonmatching","Self","Individual_Self","Self","Bottom","n",816.857425,0.816857425,1
"579",3,20,"Male","r","h",1,3,"EXPERIMENT","You","You","Matching","You","Individual_Stranger","Stranger","Top","None",NA,NA,3
"580",3,20,"Male","r","h",1,4,"EXPERIMENT","They","They","Matching","They","Group-Stranger","Stranger","Top","n",1150.125486,1.150125486,0
"581",3,20,"Male","r","h",1,5,"EXPERIMENT","Self","You","Nonmatching","You","Individual_Stranger","Stranger","Bottom","m",1250.145186,1.250145186,0
"582",3,20,"Male","r","h",1,6,"EXPERIMENT","You","You","Matching","You","Individual_Stranger","Stranger","Bottom","n",1683.527698,1.683527698,0
"583",3,20,"Male","r","h",1,7,"EXPERIMENT","You","You","Matching","You","Individual_Stranger","Stranger","Top","m",1583.462596,1.583462596,1
"584",3,20,"Male","r","h",1,8,"EXPERIMENT","We","They","Nonmatching","They","Group-Stranger","Stranger","Top","m",1533.462615,1.533462615,0
"585",3,20,"Male","r","h",1,9,"EXPERIMENT","They","Self","Nonmatching","Self","Individual_Self","Self","Bottom","n",1366.786145,1.366786145,1
"586",3,20,"Male","r","h",1,10,"EXPERIMENT","They","They","Matching","They","Group-Stranger","Stranger","Top","n",1566.840942,1.566840942,0
"587",3,20,"Male","r","h",1,11,"EXPERIMENT","Self","Self","Matching","Self","Individual_Self","Self","Top","m",950.161886,0.950161886,1
"588",3,20,"Male","r","h",1,12,"EXPERIMENT","They","You","Nonmatching","You","Individual_Stranger","Stranger","Top","m",1650.126078,1.650126078,0
"589",3,20,"Male","r","h",1,13,"EXPERIMENT","They","They","Matching","They","Group-Stranger","Stranger","Bottom","None",NA,NA,3
"590",3,20,"Male","r","h",1,14,"EXPERIMENT","You","You","Matching","You","Individual_Stranger","Stranger","Bottom","m",1266.831191,1.266831191,1
"591",3,20,"Male","r","h",1,15,"EXPERIMENT","Self","Self","Matching","Self","Individual_Self","Self","Top","m",1316.861965,1.316861965,1
"592",3,20,"Male","r","h",1,16,"EXPERIMENT","Self","You","Nonmatching","You","Individual_Stranger","Stranger","Top","n",1500.102054,1.500102054,1
"593",3,20,"Male","r","h",1,17,"EXPERIMENT","You","You","Matching","You","Individual_Stranger","Stranger","Bottom","m",1233.458786,1.233458786,1
"594",3,20,"Male","r","h",1,18,"EXPERIMENT","You","You","Matching","You","Individual_Stranger","Stranger","Bottom","m",1133.470669,1.133470669,1
"595",3,20,"Male","r","h",1,19,"EXPERIMENT","They","They","Matching","They","Group-Stranger","Stranger","Bottom","m",1116.81151,1.11681151,1
"596",3,20,"Male","r","h",1,20,"EXPERIMENT","Self","You","Nonmatching","You","Individual_Stranger","Stranger","Top","n",1066.804819,1.066804819,1
"597",3,20,"Male","r","h",1,21,"EXPERIMENT","They","They","Matching","They","Group-Stranger","Stranger","Top","m",1616.806576,1.616806576,1
"598",3,20,"Male","r","h",1,22,"EXPERIMENT","We","We","Matching","We","Group-Self","Self","Bottom","m",950.168202,0.950168202,1
"599",3,20,"Male","r","h",1,23,"EXPERIMENT","You","We","Nonmatching","We","Group-Self","Self","Top","n",1116.950083,1.116950083,1
"600",3,20,"Male","r","h",1,24,"EXPERIMENT","We","We","Matching","We","Group-Self","Self","Top","m",1400.192107,1.400192107,1
"601",3,20,"Male","r","h",1,25,"EXPERIMENT","You","You","Matching","You","Individual_Stranger","Stranger","Top","m",1283.513643,1.283513643,1
"602",3,20,"Male","r","h",1,26,"EXPERIMENT","They","They","Matching","They","Group-Stranger","Stranger","Bottom","m",1333.619428,1.333619428,1
"603",3,20,"Male","r","h",1,27,"EXPERIMENT","They","Self","Nonmatching","Self","Individual_Self","Self","Top","n",1266.854484,1.266854484,1
"604",3,20,"Male","r","h",1,28,"EXPERIMENT","They","Self","Nonmatching","Self","Individual_Self","Self","Top","n",1216.848976,1.216848976,1
"605",3,20,"Male","r","h",1,29,"EXPERIMENT","They","They","Matching","They","Group-Stranger","Stranger","Top","m",1300.173591,1.300173591,1
"606",3,20,"Male","r","h",1,30,"EXPERIMENT","We","We","Matching","We","Group-Self","Self","Bottom","m",1050.17448,1.05017448,1
"607",3,20,"Male","r","h",1,31,"EXPERIMENT","Self","We","Nonmatching","We","Group-Self","Self","Top","n",1216.858846,1.216858846,1
"608",3,20,"Male","r","h",1,32,"EXPERIMENT","They","You","Nonmatching","You","Individual_Stranger","Stranger","Bottom","m",950.131092,0.950131092,0
"609",3,20,"Male","r","h",1,33,"EXPERIMENT","Self","We","Nonmatching","We","Group-Self","Self","Bottom","n",1516.841752,1.516841752,1
"610",3,20,"Male","r","h",1,34,"EXPERIMENT","We","You","Nonmatching","You","Individual_Stranger","Stranger","Bottom","n",1400.140389,1.400140389,1
"611",3,20,"Male","r","h",1,35,"EXPERIMENT","You","They","Nonmatching","They","Group-Stranger","Stranger","Bottom","n",916.841988,0.916841988,1
"612",3,20,"Male","r","h",1,36,"EXPERIMENT","We","We","Matching","We","Group-Self","Self","Top","m",1000.202135,1.000202135,1
"613",3,20,"Male","r","h",1,37,"EXPERIMENT","They","We","Nonmatching","We","Group-Self","Self","Bottom","n",916.855806,0.916855806,1
"614",3,20,"Male","r","h",1,38,"EXPERIMENT","We","Self","Nonmatching","Self","Individual_Self","Self","Top","n",1066.808766,1.066808766,1
"615",3,20,"Male","r","h",1,39,"EXPERIMENT","Self","Self","Matching","Self","Individual_Self","Self","Top","m",666.868933,0.666868933,1
"616",3,20,"Male","r","h",1,40,"EXPERIMENT","They","They","Matching","They","Group-Stranger","Stranger","Bottom","m",1033.509004,1.033509004,1
"617",3,20,"Male","r","h",1,41,"EXPERIMENT","We","They","Nonmatching","They","Group-Stranger","Stranger","Bottom","n",1050.229751,1.050229751,1
"618",3,20,"Male","r","h",1,42,"EXPERIMENT","They","They","Matching","They","Group-Stranger","Stranger","Bottom","m",1516.782927,1.516782927,1
"619",3,20,"Male","r","h",1,43,"EXPERIMENT","Self","Self","Matching","Self","Individual_Self","Self","Top","m",700.167512,0.700167512,1
"620",3,20,"Male","r","h",1,44,"EXPERIMENT","We","We","Matching","We","Group-Self","Self","Top","m",850.197851,0.850197851,1
"621",3,20,"Male","r","h",1,45,"EXPERIMENT","You","We","Nonmatching","We","Group-Self","Self","Bottom","n",983.529158,0.983529158,1
"622",3,20,"Male","r","h",1,46,"EXPERIMENT","We","Self","Nonmatching","Self","Individual_Self","Self","Top","n",800.143784,0.800143784,1
"623",3,20,"Male","r","h",1,47,"EXPERIMENT","We","You","Nonmatching","You","Individual_Stranger","Stranger","Bottom","n",1066.78271,1.06678271,1
"624",3,20,"Male","r","h",1,48,"EXPERIMENT","You","We","Nonmatching","We","Group-Self","Self","Top","n",833.490922,0.833490922,1
"625",3,20,"Male","r","h",1,49,"EXPERIMENT","They","You","Nonmatching","You","Individual_Stranger","Stranger","Bottom","m",816.757542,0.816757542,0
"626",3,20,"Male","r","h",1,50,"EXPERIMENT","You","You","Matching","You","Individual_Stranger","Stranger","Top","m",1483.483954,1.483483954,1
"627",3,20,"Male","r","h",1,51,"EXPERIMENT","We","You","Nonmatching","You","Individual_Stranger","Stranger","Top","n",1433.464234,1.433464234,1
"628",3,20,"Male","r","h",1,52,"EXPERIMENT","You","You","Matching","You","Individual_Stranger","Stranger","Top","n",1183.543292,1.183543292,0
"629",3,20,"Male","r","h",1,53,"EXPERIMENT","You","They","Nonmatching","They","Group-Stranger","Stranger","Top","n",900.18125,0.90018125,1
"630",3,20,"Male","r","h",1,54,"EXPERIMENT","We","Self","Nonmatching","Self","Individual_Self","Self","Bottom","n",817.004683,0.817004683,1
"631",3,20,"Male","r","h",1,55,"EXPERIMENT","You","You","Matching","You","Individual_Stranger","Stranger","Top","m",833.507504,0.833507504,1
"632",3,20,"Male","r","h",1,56,"EXPERIMENT","They","We","Nonmatching","We","Group-Self","Self","Top","n",1416.807444,1.416807444,1
"633",3,20,"Male","r","h",1,57,"EXPERIMENT","You","Self","Nonmatching","Self","Individual_Self","Self","Top","n",733.551366,0.733551366,1
"634",3,20,"Male","r","h",1,58,"EXPERIMENT","Self","Self","Matching","Self","Individual_Self","Self","Top","m",533.38642,0.53338642,1
"635",3,20,"Male","r","h",1,59,"EXPERIMENT","Self","We","Nonmatching","We","Group-Self","Self","Top","n",833.329846,0.833329846,1
"636",3,20,"Male","r","h",1,60,"EXPERIMENT","You","We","Nonmatching","We","Group-Self","Self","Bottom","n",783.5245,0.7835245,1
"637",3,20,"Male","r","h",1,61,"EXPERIMENT","We","You","Nonmatching","You","Individual_Stranger","Stranger","Top","n",1283.528645,1.283528645,1
"638",3,20,"Male","r","h",1,62,"EXPERIMENT","Self","Self","Matching","Self","Individual_Self","Self","Bottom","m",650.144633,0.650144633,1
"639",3,20,"Male","r","h",1,63,"EXPERIMENT","We","We","Matching","We","Group-Self","Self","Bottom","m",1150.181152,1.150181152,1
"640",3,20,"Male","r","h",1,64,"EXPERIMENT","You","They","Nonmatching","They","Group-Stranger","Stranger","Bottom","m",1016.621653,1.016621653,0
"641",3,20,"Male","r","h",1,65,"EXPERIMENT","We","Self","Nonmatching","Self","Individual_Self","Self","Bottom","n",783.492916,0.783492916,1
"642",3,20,"Male","r","h",1,66,"EXPERIMENT","You","You","Matching","You","Individual_Stranger","Stranger","Bottom","m",1150.159043,1.150159043,1
"643",3,20,"Male","r","h",1,67,"EXPERIMENT","They","Self","Nonmatching","Self","Individual_Self","Self","Bottom","n",733.536758,0.733536758,1
"644",3,20,"Male","r","h",1,68,"EXPERIMENT","Self","They","Nonmatching","They","Group-Stranger","Stranger","Bottom","n",800.242088,0.800242088,1
"645",3,20,"Male","r","h",1,69,"EXPERIMENT","Self","Self","Matching","Self","Individual_Self","Self","Top","m",750.204997,0.750204997,1
"646",3,20,"Male","r","h",1,70,"EXPERIMENT","You","Self","Nonmatching","Self","Individual_Self","Self","Bottom","n",683.466109,0.683466109,1
"647",3,20,"Male","r","h",1,71,"EXPERIMENT","We","We","Matching","We","Group-Self","Self","Bottom","m",850.230225,0.850230225,1
"648",3,20,"Male","r","h",1,72,"EXPERIMENT","We","We","Matching","We","Group-Self","Self","Top","m",700.162774,0.700162774,1
"649",3,20,"Male","r","h",1,73,"EXPERIMENT","Self","They","Nonmatching","They","Group-Stranger","Stranger","Top","n",633.520216,0.633520216,1
"650",3,20,"Male","r","h",1,74,"EXPERIMENT","Self","Self","Matching","Self","Individual_Self","Self","Bottom","m",683.539936,0.683539936,1
"651",3,20,"Male","r","h",1,75,"EXPERIMENT","We","We","Matching","We","Group-Self","Self","Top","m",800.157207,0.800157207,1
"652",3,20,"Male","r","h",1,76,"EXPERIMENT","Self","You","Nonmatching","You","Individual_Stranger","Stranger","Bottom","n",716.861807,0.716861807,1
"653",3,20,"Male","r","h",1,77,"EXPERIMENT","You","You","Matching","You","Individual_Stranger","Stranger","Bottom","m",1000.265302,1.000265302,1
"654",3,20,"Male","r","h",1,78,"EXPERIMENT","Self","They","Nonmatching","They","Group-Stranger","Stranger","Top","n",783.491337,0.783491337,1
"655",3,20,"Male","r","h",1,79,"EXPERIMENT","Self","They","Nonmatching","They","Group-Stranger","Stranger","Bottom","n",883.663428,0.883663428,1
"656",3,20,"Male","r","h",1,80,"EXPERIMENT","You","They","Nonmatching","They","Group-Stranger","Stranger","Top","n",1066.819426,1.066819426,1
"657",3,20,"Male","r","h",1,81,"EXPERIMENT","You","Self","Nonmatching","Self","Individual_Self","Self","Top","n",716.824302,0.716824302,1
"658",3,20,"Male","r","h",1,82,"EXPERIMENT","They","You","Nonmatching","You","Individual_Stranger","Stranger","Top","n",1500.186146,1.500186146,1
"659",3,20,"Male","r","h",1,83,"EXPERIMENT","We","They","Nonmatching","They","Group-Stranger","Stranger","Top","n",1583.491021,1.583491021,1
"660",3,20,"Male","r","h",1,84,"EXPERIMENT","Self","Self","Matching","Self","Individual_Self","Self","Bottom","m",633.562854,0.633562854,1
"661",3,20,"Male","r","h",1,85,"EXPERIMENT","They","They","Matching","They","Group-Stranger","Stranger","Top","n",966.873552,0.966873552,0
"662",3,20,"Male","r","h",1,86,"EXPERIMENT","Self","Self","Matching","Self","Individual_Self","Self","Bottom","m",633.509557,0.633509557,1
"663",3,20,"Male","r","h",1,87,"EXPERIMENT","They","We","Nonmatching","We","Group-Self","Self","Top","n",800.261828,0.800261828,1
"664",3,20,"Male","r","h",1,88,"EXPERIMENT","We","They","Nonmatching","They","Group-Stranger","Stranger","Bottom","n",833.494081,0.833494081,1
"665",3,20,"Male","r","h",1,89,"EXPERIMENT","They","They","Matching","They","Group-Stranger","Stranger","Top","m",916.62722,0.91662722,1
"666",3,20,"Male","r","h",1,90,"EXPERIMENT","They","We","Nonmatching","We","Group-Self","Self","Bottom","n",583.517472,0.583517472,1
"667",3,20,"Male","r","h",1,91,"EXPERIMENT","Self","We","Nonmatching","We","Group-Self","Self","Bottom","n",616.835396,0.616835396,1
"668",3,20,"Male","r","h",1,92,"EXPERIMENT","We","We","Matching","We","Group-Self","Self","Bottom","n",550.213762,0.550213762,0
"669",3,20,"Male","r","h",1,93,"EXPERIMENT","They","They","Matching","They","Group-Stranger","Stranger","Bottom","m",866.826216,0.866826216,1
"670",3,20,"Male","r","h",1,94,"EXPERIMENT","Self","Self","Matching","Self","Individual_Self","Self","Bottom","m",600.181764,0.600181764,1
"671",3,20,"Male","r","h",1,95,"EXPERIMENT","We","We","Matching","We","Group-Self","Self","Bottom","m",666.881962,0.666881962,1
"672",3,20,"Male","r","h",1,96,"EXPERIMENT","We","We","Matching","We","Group-Self","Self","Top","m",516.860307,0.516860307,1
"673",3,20,"Male","r","h",2,1,"EXPERIMENT","We","We","Matching","We","Group-Self","Self","Top","m",683.584943,0.683584943,1
"674",3,20,"Male","r","h",2,2,"EXPERIMENT","They","They","Matching","They","Group-Stranger","Stranger","Bottom","n",783.503575,0.783503575,0
"675",3,20,"Male","r","h",2,3,"EXPERIMENT","They","Self","Nonmatching","Self","Individual_Self","Self","Top","n",683.479138,0.683479138,1
"676",3,20,"Male","r","h",2,4,"EXPERIMENT","You","You","Matching","You","Individual_Stranger","Stranger","Top","m",833.480263,0.833480263,1
"677",3,20,"Male","r","h",2,5,"EXPERIMENT","Self","Self","Matching","Self","Individual_Self","Self","Top","m",583.465359,0.583465359,1
"678",3,20,"Male","r","h",2,6,"EXPERIMENT","Self","They","Nonmatching","They","Group-Stranger","Stranger","Top","m",833.55251,0.83355251,0
"679",3,20,"Male","r","h",2,7,"EXPERIMENT","You","They","Nonmatching","They","Group-Stranger","Stranger","Bottom","n",866.819505,0.866819505,1
"680",3,20,"Male","r","h",2,8,"EXPERIMENT","We","We","Matching","We","Group-Self","Self","Top","m",750.197891,0.750197891,1
"681",3,20,"Male","r","h",2,9,"EXPERIMENT","You","You","Matching","You","Individual_Stranger","Stranger","Top","m",750.177756,0.750177756,1
"682",3,20,"Male","r","h",2,10,"EXPERIMENT","They","They","Matching","They","Group-Stranger","Stranger","Bottom","m",950.185179,0.950185179,1
"683",3,20,"Male","r","h",2,11,"EXPERIMENT","We","We","Matching","We","Group-Self","Self","Bottom","m",566.917532,0.566917532,1
"684",3,20,"Male","r","h",2,12,"EXPERIMENT","Self","Self","Matching","Self","Individual_Self","Self","Bottom","m",566.805016,0.566805016,1
"685",3,20,"Male","r","h",2,13,"EXPERIMENT","We","You","Nonmatching","You","Individual_Stranger","Stranger","Top","n",983.503891,0.983503891,1
"686",3,20,"Male","r","h",2,14,"EXPERIMENT","We","We","Matching","We","Group-Self","Self","Top","m",533.515913,0.533515913,1
"687",3,20,"Male","r","h",2,15,"EXPERIMENT","Self","You","Nonmatching","You","Individual_Stranger","Stranger","Bottom","n",866.836086,0.866836086,1
"688",3,20,"Male","r","h",2,16,"EXPERIMENT","We","We","Matching","We","Group-Self","Self","Bottom","m",650.165163,0.650165163,1
"689",3,20,"Male","r","h",2,17,"EXPERIMENT","They","We","Nonmatching","We","Group-Self","Self","Top","n",750.161175,0.750161175,1
"690",3,20,"Male","r","h",2,18,"EXPERIMENT","We","We","Matching","We","Group-Self","Self","Bottom","m",600.154917,0.600154917,1
"691",3,20,"Male","r","h",2,19,"EXPERIMENT","You","We","Nonmatching","We","Group-Self","Self","Bottom","n",700.154483,0.700154483,1
"692",3,20,"Male","r","h",2,20,"EXPERIMENT","Self","Self","Matching","Self","Individual_Self","Self","Bottom","m",583.542344,0.583542344,1
"693",3,20,"Male","r","h",2,21,"EXPERIMENT","We","Self","Nonmatching","Self","Individual_Self","Self","Bottom","n",766.879159,0.766879159,1
"694",3,20,"Male","r","h",2,22,"EXPERIMENT","We","We","Matching","We","Group-Self","Self","Top","m",583.500101,0.583500101,1
"695",3,20,"Male","r","h",2,23,"EXPERIMENT","You","You","Matching","You","Individual_Stranger","Stranger","Top","m",700.164353,0.700164353,1
"696",3,20,"Male","r","h",2,24,"EXPERIMENT","They","You","Nonmatching","You","Individual_Stranger","Stranger","Bottom","n",700.154088,0.700154088,1
"697",3,20,"Male","r","h",2,25,"EXPERIMENT","Self","They","Nonmatching","They","Group-Stranger","Stranger","Top","n",633.529296,0.633529296,1
"698",3,20,"Male","r","h",2,26,"EXPERIMENT","They","You","Nonmatching","You","Individual_Stranger","Stranger","Top","n",1400.150654,1.400150654,1
"699",3,20,"Male","r","h",2,27,"EXPERIMENT","They","They","Matching","They","Group-Stranger","Stranger","Top","m",966.85934,0.96685934,1
"700",3,20,"Male","r","h",2,28,"EXPERIMENT","You","You","Matching","You","Individual_Stranger","Stranger","Bottom","m",1100.133401,1.100133401,1
"701",3,20,"Male","r","h",2,29,"EXPERIMENT","They","We","Nonmatching","We","Group-Self","Self","Top","m",583.516288,0.583516288,0
"702",3,20,"Male","r","h",2,30,"EXPERIMENT","They","We","Nonmatching","We","Group-Self","Self","Bottom","m",533.518676,0.533518676,0
"703",3,20,"Male","r","h",2,31,"EXPERIMENT","You","They","Nonmatching","They","Group-Stranger","Stranger","Top","n",1083.530698,1.083530698,1
"704",3,20,"Male","r","h",2,32,"EXPERIMENT","They","Self","Nonmatching","Self","Individual_Self","Self","Top","n",800.231823,0.800231823,1
"705",3,20,"Male","r","h",2,33,"EXPERIMENT","Self","Self","Matching","Self","Individual_Self","Self","Bottom","m",616.843686,0.616843686,1
"706",3,20,"Male","r","h",2,34,"EXPERIMENT","You","You","Matching","You","Individual_Stranger","Stranger","Bottom","m",800.214453,0.800214453,1
"707",3,20,"Male","r","h",2,35,"EXPERIMENT","Self","Self","Matching","Self","Individual_Self","Self","Bottom","m",566.846469,0.566846469,1
"708",3,20,"Male","r","h",2,36,"EXPERIMENT","You","We","Nonmatching","We","Group-Self","Self","Top","n",666.814846,0.666814846,1
"709",3,20,"Male","r","h",2,37,"EXPERIMENT","They","Self","Nonmatching","Self","Individual_Self","Self","Bottom","n",700.221993,0.700221993,1
"710",3,20,"Male","r","h",2,38,"EXPERIMENT","You","Self","Nonmatching","Self","Individual_Self","Self","Bottom","n",583.526158,0.583526158,1
"711",3,20,"Male","r","h",2,39,"EXPERIMENT","We","You","Nonmatching","You","Individual_Stranger","Stranger","Top","n",966.885001,0.966885001,1
"712",3,20,"Male","r","h",2,40,"EXPERIMENT","You","Self","Nonmatching","Self","Individual_Self","Self","Top","n",733.57229,0.73357229,1
"713",3,20,"Male","r","h",2,41,"EXPERIMENT","Self","They","Nonmatching","They","Group-Stranger","Stranger","Bottom","n",616.868953,0.616868953,1
"714",3,20,"Male","r","h",2,42,"EXPERIMENT","We","You","Nonmatching","You","Individual_Stranger","Stranger","Bottom","n",1200.159418,1.200159418,1
"715",3,20,"Male","r","h",2,43,"EXPERIMENT","You","You","Matching","You","Individual_Stranger","Stranger","Bottom","m",733.508728,0.733508728,1
"716",3,20,"Male","r","h",2,44,"EXPERIMENT","You","You","Matching","You","Individual_Stranger","Stranger","Bottom","m",1050.158293,1.050158293,1
