"","Subject","Block","Trial","Gender","Age","Handedness","First_Language","Matching","Origin_Identity","Phase","Shape","Label","WeShape","SelfShape","TheyShape","AloneShape","ShapeLoc","Response","RT_sec","ACC","RT_ms","English_Identity","Standarlized_Identity"
"1",1,0,1,"Female",31,"r","h","Match","We","TRAINING","We","We","Diamond","Triangle","Circle","Star","Bottom","None",NA,3,NA,"We","Group-Self"
"2",1,0,2,"Female",31,"r","h","Mismatch","Self","TRAINING","We","Self","Diamond","Triangle","Circle","Star","Top","None",NA,3,NA,"Self","Self"
"3",1,0,3,"Female",31,"r","h","Mismatch","You","TRAINING","We","You","Diamond","Triangle","Circle","Star","Top","None",NA,3,NA,"You","Stranger"
"4",1,0,4,"Female",31,"r","h","Mismatch","Self","TRAINING","They","Self","Diamond","Triangle","Circle","Star","Top","None",NA,3,NA,"Self","Self"
"5",1,0,5,"Female",31,"r","h","Mismatch","They","TRAINING","You","They","Diamond","Triangle","Circle","Star","Top","None",NA,3,NA,"They","Group-Stranger"
"6",1,0,6,"Female",31,"r","h","Mismatch","You","TRAINING","Self","You","Diamond","Triangle","Circle","Star","Top","None",NA,3,NA,"You","Stranger"
"7",1,0,7,"Female",31,"r","h","Mismatch","Self","TRAINING","You","Self","Diamond","Triangle","Circle","Star","Bottom","None",NA,3,NA,"Self","Self"
"8",1,0,8,"Female",31,"r","h","Mismatch","We","TRAINING","They","We","Diamond","Triangle","Circle","Star","Bottom","n",0.55024574,1,550.24574,"We","Group-Self"
"9",1,0,9,"Female",31,"r","h","Match","We","TRAINING","We","We","Diamond","Triangle","Circle","Star","Top","n",0.516859912,0,516.859912,"We","Group-Self"
"10",1,0,10,"Female",31,"r","h","Mismatch","We","TRAINING","Self","We","Diamond","Triangle","Circle","Star","Bottom","None",NA,3,NA,"We","Group-Self"
"11",1,0,11,"Female",31,"r","h","Mismatch","They","TRAINING","Self","They","Diamond","Triangle","Circle","Star","Top","n",0.416867453,1,416.867453,"They","Group-Stranger"
"12",1,0,12,"Female",31,"r","h","Match","They","TRAINING","They","They","Diamond","Triangle","Circle","Star","Bottom","n",0.433523453,0,433.523453,"They","Group-Stranger"
"13",1,0,13,"Female",31,"r","h","Match","They","TRAINING","They","They","Diamond","Triangle","Circle","Star","Top","n",0.283538515,0,283.538515,"They","Group-Stranger"
"14",1,0,14,"Female",31,"r","h","Mismatch","You","TRAINING","They","You","Diamond","Triangle","Circle","Star","Bottom","n",0.400145521,1,400.145521,"You","Stranger"
"15",1,0,15,"Female",31,"r","h","Match","You","TRAINING","You","You","Diamond","Triangle","Circle","Star","Top","n",0.616844476,0,616.844476,"You","Stranger"
"16",1,0,16,"Female",31,"r","h","Mismatch","They","TRAINING","We","They","Diamond","Triangle","Circle","Star","Bottom","n",0.433512004,1,433.512004,"They","Group-Stranger"
"17",1,0,17,"Female",31,"r","h","Match","Self","TRAINING","Self","Self","Diamond","Triangle","Circle","Star","Bottom","m",0.36691169,1,366.91169,"Self","Self"
"18",1,0,18,"Female",31,"r","h","Match","You","TRAINING","You","You","Diamond","Triangle","Circle","Star","Bottom","n",0.50015851,0,500.15851,"You","Stranger"
"19",1,0,19,"Female",31,"r","h","Match","Self","TRAINING","Self","Self","Diamond","Triangle","Circle","Star","Top","m",0.4668548,1,466.8548,"Self","Self"
"20",1,0,20,"Female",31,"r","h","Mismatch","We","TRAINING","You","We","Diamond","Triangle","Circle","Star","Top","m",0.500169959,0,500.169959,"We","Group-Self"
"21",1,1,1,"Female",31,"r","h","Match","You","EXPERIMENT","You","You","Diamond","Triangle","Circle","Star","Bottom","n",1.083456871,0,1083.456871,"You","Stranger"
"22",1,1,2,"Female",31,"r","h","Match","Self","EXPERIMENT","Self","Self","Diamond","Triangle","Circle","Star","Top","n",0.533541574,0,533.541574,"Self","Self"
"23",1,1,3,"Female",31,"r","h","Match","You","EXPERIMENT","You","You","Diamond","Triangle","Circle","Star","Bottom","n",0.750167492,0,750.167492,"You","Stranger"
"24",1,1,4,"Female",31,"r","h","Mismatch","Self","EXPERIMENT","We","Self","Diamond","Triangle","Circle","Star","Bottom","n",0.400207109,1,400.207109,"Self","Self"
"25",1,1,5,"Female",31,"r","h","Match","They","EXPERIMENT","They","They","Diamond","Triangle","Circle","Star","Bottom","n",0.550195206,0,550.195206,"They","Group-Stranger"
"26",1,1,6,"Female",31,"r","h","Mismatch","You","EXPERIMENT","They","You","Diamond","Triangle","Circle","Star","Top","n",0.45017827,1,450.17827,"You","Stranger"
"27",1,1,7,"Female",31,"r","h","Mismatch","Self","EXPERIMENT","They","Self","Diamond","Triangle","Circle","Star","Bottom","n",0.350142383,1,350.142383,"Self","Self"
"28",1,1,8,"Female",31,"r","h","Mismatch","Self","EXPERIMENT","We","Self","Diamond","Triangle","Circle","Star","Top","n",0.43350174,1,433.50174,"Self","Self"
"29",1,1,9,"Female",31,"r","h","Mismatch","Self","EXPERIMENT","They","Self","Diamond","Triangle","Circle","Star","Bottom","n",0.366851286,1,366.851286,"Self","Self"
"30",1,1,10,"Female",31,"r","h","Mismatch","They","EXPERIMENT","We","They","Diamond","Triangle","Circle","Star","Bottom","n",0.283511274,1,283.511274,"They","Group-Stranger"
"31",1,1,11,"Female",31,"r","h","Match","You","EXPERIMENT","You","You","Diamond","Triangle","Circle","Star","Top","n",0.400210663,0,400.210663,"You","Stranger"
"32",1,1,12,"Female",31,"r","h","Mismatch","You","EXPERIMENT","Self","You","Diamond","Triangle","Circle","Star","Top","n",0.300205964,1,300.205964,"You","Stranger"
"33",1,1,13,"Female",31,"r","h","Match","We","EXPERIMENT","We","We","Diamond","Triangle","Circle","Star","Bottom","n",0.366860366,0,366.860366,"We","Group-Self"
"34",1,1,14,"Female",31,"r","h","Mismatch","You","EXPERIMENT","We","You","Diamond","Triangle","Circle","Star","Bottom","n",0.466852826,1,466.852826,"You","Stranger"
"35",1,1,15,"Female",31,"r","h","Match","They","EXPERIMENT","They","They","Diamond","Triangle","Circle","Star","Bottom","n",0.483532909,0,483.532909,"They","Group-Stranger"
"36",1,1,16,"Female",31,"r","h","Mismatch","We","EXPERIMENT","Self","We","Diamond","Triangle","Circle","Star","Bottom","n",0.516853595,1,516.853595,"We","Group-Self"
"37",1,1,17,"Female",31,"r","h","Match","We","EXPERIMENT","We","We","Diamond","Triangle","Circle","Star","Top","n",0.400165261,0,400.165261,"We","Group-Self"
"38",1,1,18,"Female",31,"r","h","Match","You","EXPERIMENT","You","You","Diamond","Triangle","Circle","Star","Top","n",0.316866308,0,316.866308,"You","Stranger"
"39",1,1,19,"Female",31,"r","h","Mismatch","We","EXPERIMENT","They","We","Diamond","Triangle","Circle","Star","Bottom","n",0.366865498,1,366.865498,"We","Group-Self"
"40",1,1,20,"Female",31,"r","h","Match","Self","EXPERIMENT","Self","Self","Diamond","Triangle","Circle","Star","Bottom","m",0.400164077,1,400.164077,"Self","Self"
"41",1,1,21,"Female",31,"r","h","Mismatch","Self","EXPERIMENT","You","Self","Diamond","Triangle","Circle","Star","Top","n",0.416862715,1,416.862715,"Self","Self"
"42",1,1,22,"Female",31,"r","h","Match","They","EXPERIMENT","They","They","Diamond","Triangle","Circle","Star","Top","n",0.43352069,0,433.52069,"They","Group-Stranger"
"43",1,1,23,"Female",31,"r","h","Match","You","EXPERIMENT","You","You","Diamond","Triangle","Circle","Star","Bottom","n",0.516865834,0,516.865834,"You","Stranger"
"44",1,1,24,"Female",31,"r","h","Match","They","EXPERIMENT","They","They","Diamond","Triangle","Circle","Star","Bottom","n",0.350153042,0,350.153042,"They","Group-Stranger"
"45",1,1,25,"Female",31,"r","h","Match","They","EXPERIMENT","They","They","Diamond","Triangle","Circle","Star","Top","n",0.266858432,0,266.858432,"They","Group-Stranger"
"46",1,1,26,"Female",31,"r","h","Match","They","EXPERIMENT","They","They","Diamond","Triangle","Circle","Star","Bottom","n",0.450208669,0,450.208669,"They","Group-Stranger"
"47",1,1,27,"Female",31,"r","h","Mismatch","Self","EXPERIMENT","They","Self","Diamond","Triangle","Circle","Star","Top","n",0.450171558,1,450.171558,"Self","Self"
"48",1,1,28,"Female",31,"r","h","Mismatch","They","EXPERIMENT","We","They","Diamond","Triangle","Circle","Star","Top","n",0.583530501,1,583.530501,"They","Group-Stranger"
"49",1,1,29,"Female",31,"r","h","Mismatch","We","EXPERIMENT","They","We","Diamond","Triangle","Circle","Star","Top","m",0.300191357,0,300.191357,"We","Group-Self"
"50",1,1,30,"Female",31,"r","h","Match","We","EXPERIMENT","We","We","Diamond","Triangle","Circle","Star","Top","n",0.35020476,0,350.20476,"We","Group-Self"
"51",1,1,31,"Female",31,"r","h","Match","Self","EXPERIMENT","Self","Self","Diamond","Triangle","Circle","Star","Top","n",0.266855273,0,266.855273,"Self","Self"
"52",1,1,32,"Female",31,"r","h","Mismatch","We","EXPERIMENT","Self","We","Diamond","Triangle","Circle","Star","Top","n",0.333541259,1,333.541259,"We","Group-Self"
"53",1,1,33,"Female",31,"r","h","Match","You","EXPERIMENT","You","You","Diamond","Triangle","Circle","Star","Bottom","n",0.266863169,0,266.863169,"You","Stranger"
"54",1,1,34,"Female",31,"r","h","Match","You","EXPERIMENT","You","You","Diamond","Triangle","Circle","Star","Top","m",0.316863544,1,316.863544,"You","Stranger"
"55",1,1,35,"Female",31,"r","h","Mismatch","We","EXPERIMENT","Self","We","Diamond","Triangle","Circle","Star","Top","n",0.216932673,1,216.932673,"We","Group-Self"
"56",1,1,36,"Female",31,"r","h","Mismatch","You","EXPERIMENT","We","You","Diamond","Triangle","Circle","Star","Bottom","m",0.350173966,0,350.173966,"You","Stranger"
"57",1,1,37,"Female",31,"r","h","Mismatch","We","EXPERIMENT","You","We","Diamond","Triangle","Circle","Star","Bottom","n",0.600212558,1,600.212558,"We","Group-Self"
"58",1,1,38,"Female",31,"r","h","Match","We","EXPERIMENT","We","We","Diamond","Triangle","Circle","Star","Top","n",1.083462004,0,1083.462004,"We","Group-Self"
"59",1,1,39,"Female",31,"r","h","Match","We","EXPERIMENT","We","We","Diamond","Triangle","Circle","Star","Bottom","n",0.366855629,0,366.855629,"We","Group-Self"
"60",1,1,40,"Female",31,"r","h","Mismatch","They","EXPERIMENT","Self","They","Diamond","Triangle","Circle","Star","Bottom","n",0.300198463,1,300.198463,"They","Group-Stranger"
"61",1,1,41,"Female",31,"r","h","Match","Self","EXPERIMENT","Self","Self","Diamond","Triangle","Circle","Star","Top","n",0.283532593,0,283.532593,"Self","Self"
"62",1,1,42,"Female",31,"r","h","Match","We","EXPERIMENT","We","We","Diamond","Triangle","Circle","Star","Bottom","m",0.46685401,1,466.85401,"We","Group-Self"
"63",1,1,43,"Female",31,"r","h","Mismatch","You","EXPERIMENT","We","You","Diamond","Triangle","Circle","Star","Top","n",0.233587884,1,233.587884,"You","Stranger"
"64",1,1,44,"Female",31,"r","h","Match","We","EXPERIMENT","We","We","Diamond","Triangle","Circle","Star","Bottom","n",0.433509241,0,433.509241,"We","Group-Self"
"65",1,1,45,"Female",31,"r","h","Mismatch","They","EXPERIMENT","You","They","Diamond","Triangle","Circle","Star","Top","n",0.600175052,1,600.175052,"They","Group-Stranger"
"66",1,1,46,"Female",31,"r","h","Match","We","EXPERIMENT","We","We","Diamond","Triangle","Circle","Star","Top","n",0.383518735,0,383.518735,"We","Group-Self"
"67",1,1,47,"Female",31,"r","h","Mismatch","They","EXPERIMENT","Self","They","Diamond","Triangle","Circle","Star","Bottom","m",0.333540864,0,333.540864,"They","Group-Stranger"
"68",1,1,48,"Female",31,"r","h","Mismatch","You","EXPERIMENT","They","You","Diamond","Triangle","Circle","Star","Bottom","n",0.283506142,1,283.506142,"You","Stranger"
"69",1,1,49,"Female",31,"r","h","Mismatch","They","EXPERIMENT","You","They","Diamond","Triangle","Circle","Star","Bottom","n",0.35018581,1,350.18581,"They","Group-Stranger"
"70",1,1,50,"Female",31,"r","h","Match","They","EXPERIMENT","They","They","Diamond","Triangle","Circle","Star","Top","n",0.500161274,0,500.161274,"They","Group-Stranger"
"71",1,1,51,"Female",31,"r","h","Mismatch","Self","EXPERIMENT","They","Self","Diamond","Triangle","Circle","Star","Top","n",0.433485158,1,433.485158,"Self","Self"
"72",1,1,52,"Female",31,"r","h","Match","Self","EXPERIMENT","Self","Self","Diamond","Triangle","Circle","Star","Bottom","m",0.4335199,1,433.5199,"Self","Self"
"73",1,1,53,"Female",31,"r","h","Match","Self","EXPERIMENT","Self","Self","Diamond","Triangle","Circle","Star","Top","m",0.55013954,1,550.13954,"Self","Self"
"74",1,1,54,"Female",31,"r","h","Match","Self","EXPERIMENT","Self","Self","Diamond","Triangle","Circle","Star","Top","m",0.450178664,1,450.178664,"Self","Self"
"75",1,1,55,"Female",31,"r","h","Match","You","EXPERIMENT","You","You","Diamond","Triangle","Circle","Star","Top","n",0.533508806,0,533.508806,"You","Stranger"
"76",1,1,56,"Female",31,"r","h","Match","Self","EXPERIMENT","Self","Self","Diamond","Triangle","Circle","Star","Bottom","m",0.450150634,1,450.150634,"Self","Self"
"77",1,1,57,"Female",31,"r","h","Mismatch","Self","EXPERIMENT","You","Self","Diamond","Triangle","Circle","Star","Top","m",0.400187764,0,400.187764,"Self","Self"
"78",1,1,58,"Female",31,"r","h","Match","They","EXPERIMENT","They","They","Diamond","Triangle","Circle","Star","Top","n",0.833511057,0,833.511057,"They","Group-Stranger"
"79",1,1,59,"Female",31,"r","h","Mismatch","Self","EXPERIMENT","You","Self","Diamond","Triangle","Circle","Star","Bottom","m",0.433555827,0,433.555827,"Self","Self"
"80",1,1,60,"Female",31,"r","h","Mismatch","We","EXPERIMENT","You","We","Diamond","Triangle","Circle","Star","Top","m",0.366828783,0,366.828783,"We","Group-Self"
"81",1,1,61,"Female",31,"r","h","Match","You","EXPERIMENT","You","You","Diamond","Triangle","Circle","Star","Bottom","m",0.583509577,1,583.509577,"You","Stranger"
"82",1,1,62,"Female",31,"r","h","Match","We","EXPERIMENT","We","We","Diamond","Triangle","Circle","Star","Top","n",0.533509201,0,533.509201,"We","Group-Self"
"83",1,1,63,"Female",31,"r","h","Match","They","EXPERIMENT","They","They","Diamond","Triangle","Circle","Star","Bottom","m",1.233469051,1,1233.469051,"They","Group-Stranger"
"84",1,1,64,"Female",31,"r","h","Match","They","EXPERIMENT","They","They","Diamond","Triangle","Circle","Star","Top","m",0.550179414,1,550.179414,"They","Group-Stranger"
"85",1,1,65,"Female",31,"r","h","Mismatch","We","EXPERIMENT","They","We","Diamond","Triangle","Circle","Star","Top","n",0.583489047,1,583.489047,"We","Group-Self"
"86",1,1,66,"Female",31,"r","h","Match","We","EXPERIMENT","We","We","Diamond","Triangle","Circle","Star","Bottom","None",NA,3,NA,"We","Group-Self"
"87",1,1,67,"Female",31,"r","h","Match","Self","EXPERIMENT","Self","Self","Diamond","Triangle","Circle","Star","Bottom","m",0.850199825,1,850.199825,"Self","Self"
"88",1,1,68,"Female",31,"r","h","Mismatch","They","EXPERIMENT","You","They","Diamond","Triangle","Circle","Star","Bottom","n",0.70019041,1,700.19041,"They","Group-Stranger"
"89",1,1,69,"Female",31,"r","h","Match","Self","EXPERIMENT","Self","Self","Diamond","Triangle","Circle","Star","Top","m",0.53352144,1,533.52144,"Self","Self"
"90",1,1,70,"Female",31,"r","h","Mismatch","You","EXPERIMENT","They","You","Diamond","Triangle","Circle","Star","Bottom","m",0.433542799,0,433.542799,"You","Stranger"
"91",1,1,71,"Female",31,"r","h","Match","We","EXPERIMENT","We","We","Diamond","Triangle","Circle","Star","Top","m",1.066853378,1,1066.853378,"We","Group-Self"
"92",1,1,72,"Female",31,"r","h","Match","Self","EXPERIMENT","Self","Self","Diamond","Triangle","Circle","Star","Bottom","m",0.550205866,1,550.205866,"Self","Self"
"93",1,1,73,"Female",31,"r","h","Match","Self","EXPERIMENT","Self","Self","Diamond","Triangle","Circle","Star","Bottom","m",0.516873335,1,516.873335,"Self","Self"
"94",1,1,74,"Female",31,"r","h","Match","They","EXPERIMENT","They","They","Diamond","Triangle","Circle","Star","Bottom","n",0.983498364,0,983.498364,"They","Group-Stranger"
"95",1,1,75,"Female",31,"r","h","Match","You","EXPERIMENT","You","You","Diamond","Triangle","Circle","Star","Top","n",0.783483836,0,783.483836,"You","Stranger"
"96",1,1,76,"Female",31,"r","h","Mismatch","They","EXPERIMENT","We","They","Diamond","Triangle","Circle","Star","Top","m",0.466815715,0,466.815715,"They","Group-Stranger"
"97",1,1,77,"Female",31,"r","h","Mismatch","They","EXPERIMENT","Self","They","Diamond","Triangle","Circle","Star","Top","n",0.866833718,1,866.833718,"They","Group-Stranger"
"98",1,1,78,"Female",31,"r","h","Mismatch","They","EXPERIMENT","Self","They","Diamond","Triangle","Circle","Star","Top","None",NA,3,NA,"They","Group-Stranger"
"99",1,1,79,"Female",31,"r","h","Mismatch","We","EXPERIMENT","Self","We","Diamond","Triangle","Circle","Star","Bottom","n",1.116847042,1,1116.847042,"We","Group-Self"
"100",1,1,80,"Female",31,"r","h","Mismatch","They","EXPERIMENT","We","They","Diamond","Triangle","Circle","Star","Bottom","None",NA,3,NA,"They","Group-Stranger"
"101",1,1,81,"Female",31,"r","h","Mismatch","We","EXPERIMENT","They","We","Diamond","Triangle","Circle","Star","Bottom","n",1.433446863,1,1433.446863,"We","Group-Self"
"102",1,1,82,"Female",31,"r","h","Match","We","EXPERIMENT","We","We","Diamond","Triangle","Circle","Star","Bottom","m",1.083466346,1,1083.466346,"We","Group-Self"
"103",1,1,83,"Female",31,"r","h","Match","You","EXPERIMENT","You","You","Diamond","Triangle","Circle","Star","Bottom","n",1.116818617,0,1116.818617,"You","Stranger"
"104",1,1,84,"Female",31,"r","h","Mismatch","You","EXPERIMENT","We","You","Diamond","Triangle","Circle","Star","Top","n",1.700163564,1,1700.163564,"You","Stranger"
"105",1,1,85,"Female",31,"r","h","Mismatch","You","EXPERIMENT","They","You","Diamond","Triangle","Circle","Star","Top","n",1.566806595,1,1566.806595,"You","Stranger"
"106",1,1,86,"Female",31,"r","h","Match","You","EXPERIMENT","You","You","Diamond","Triangle","Circle","Star","Top","n",1.216820156,0,1216.820156,"You","Stranger"
"107",1,1,87,"Female",31,"r","h","Mismatch","Self","EXPERIMENT","We","Self","Diamond","Triangle","Circle","Star","Bottom","n",1.200144811,1,1200.144811,"Self","Self"
"108",1,1,88,"Female",31,"r","h","Mismatch","You","EXPERIMENT","Self","You","Diamond","Triangle","Circle","Star","Top","n",1.383547556,1,1383.547556,"You","Stranger"
"109",1,1,89,"Female",31,"r","h","Mismatch","Self","EXPERIMENT","You","Self","Diamond","Triangle","Circle","Star","Bottom","n",0.916775268,1,916.775268,"Self","Self"
"110",1,1,90,"Female",31,"r","h","Mismatch","We","EXPERIMENT","You","We","Diamond","Triangle","Circle","Star","Bottom","n",1.450136421,1,1450.136421,"We","Group-Self"
"111",1,1,91,"Female",31,"r","h","Mismatch","We","EXPERIMENT","You","We","Diamond","Triangle","Circle","Star","Top","n",0.91682975,1,916.82975,"We","Group-Self"
"112",1,1,92,"Female",31,"r","h","Match","They","EXPERIMENT","They","They","Diamond","Triangle","Circle","Star","Top","m",1.38346307,1,1383.46307,"They","Group-Stranger"
"113",1,1,93,"Female",31,"r","h","Mismatch","You","EXPERIMENT","Self","You","Diamond","Triangle","Circle","Star","Bottom","n",1.550138356,1,1550.138356,"You","Stranger"
"114",1,1,94,"Female",31,"r","h","Mismatch","They","EXPERIMENT","You","They","Diamond","Triangle","Circle","Star","Top","None",NA,3,NA,"They","Group-Stranger"
"115",1,1,95,"Female",31,"r","h","Mismatch","You","EXPERIMENT","Self","You","Diamond","Triangle","Circle","Star","Bottom","n",1.100236048,1,1100.236048,"You","Stranger"
"116",1,1,96,"Female",31,"r","h","Mismatch","Self","EXPERIMENT","We","Self","Diamond","Triangle","Circle","Star","Top","None",NA,3,NA,"Self","Self"
"117",1,2,1,"Female",31,"r","h","Match","Self","EXPERIMENT","Self","Self","Diamond","Triangle","Circle","Star","Top","m",0.750152095,1,750.152095,"Self","Self"
"118",1,2,2,"Female",31,"r","h","Mismatch","You","EXPERIMENT","We","You","Diamond","Triangle","Circle","Star","Top","n",0.966844338,1,966.844338,"You","Stranger"
"119",1,2,3,"Female",31,"r","h","Mismatch","They","EXPERIMENT","We","They","Diamond","Triangle","Circle","Star","Bottom","n",1.250155845,1,1250.155845,"They","Group-Stranger"
"120",1,2,4,"Female",31,"r","h","Match","You","EXPERIMENT","You","You","Diamond","Triangle","Circle","Star","Bottom","m",1.216833974,1,1216.833974,"You","Stranger"
"121",1,2,5,"Female",31,"r","h","Mismatch","They","EXPERIMENT","You","They","Diamond","Triangle","Circle","Star","Bottom","n",1.333477302,1,1333.477302,"They","Group-Stranger"
"122",1,2,6,"Female",31,"r","h","Mismatch","They","EXPERIMENT","Self","They","Diamond","Triangle","Circle","Star","Bottom","n",1.100172091,1,1100.172091,"They","Group-Stranger"
"123",1,2,7,"Female",31,"r","h","Mismatch","Self","EXPERIMENT","We","Self","Diamond","Triangle","Circle","Star","Bottom","n",1.016822999,1,1016.822999,"Self","Self"
"124",1,2,8,"Female",31,"r","h","Mismatch","You","EXPERIMENT","Self","You","Diamond","Triangle","Circle","Star","Bottom","n",1.266810267,1,1266.810267,"You","Stranger"
"125",1,2,9,"Female",31,"r","h","Mismatch","We","EXPERIMENT","You","We","Diamond","Triangle","Circle","Star","Top","n",1.216830421,1,1216.830421,"We","Group-Self"
"126",1,2,10,"Female",31,"r","h","Match","They","EXPERIMENT","They","They","Diamond","Triangle","Circle","Star","Top","m",1.583510761,1,1583.510761,"They","Group-Stranger"
"127",1,2,11,"Female",31,"r","h","Mismatch","You","EXPERIMENT","We","You","Diamond","Triangle","Circle","Star","Top","n",1.150182336,1,1150.182336,"You","Stranger"
"128",1,2,12,"Female",31,"r","h","Mismatch","You","EXPERIMENT","Self","You","Diamond","Triangle","Circle","Star","Top","n",1.366794436,1,1366.794436,"You","Stranger"
"129",1,2,13,"Female",31,"r","h","Mismatch","Self","EXPERIMENT","We","Self","Diamond","Triangle","Circle","Star","Bottom","n",1.016623628,1,1016.623628,"Self","Self"
"130",1,2,14,"Female",31,"r","h","Match","We","EXPERIMENT","We","We","Diamond","Triangle","Circle","Star","Bottom","n",1.533478407,0,1533.478407,"We","Group-Self"
"131",1,2,15,"Female",31,"r","h","Mismatch","They","EXPERIMENT","We","They","Diamond","Triangle","Circle","Star","Top","n",1.216805154,1,1216.805154,"They","Group-Stranger"
"132",1,2,16,"Female",31,"r","h","Mismatch","You","EXPERIMENT","Self","You","Diamond","Triangle","Circle","Star","Bottom","n",1.466788869,1,1466.788869,"You","Stranger"
"133",1,2,17,"Female",31,"r","h","Mismatch","They","EXPERIMENT","We","They","Diamond","Triangle","Circle","Star","Bottom","n",1.650103574,1,1650.103574,"They","Group-Stranger"
"134",1,2,18,"Female",31,"r","h","Mismatch","Self","EXPERIMENT","You","Self","Diamond","Triangle","Circle","Star","Top","n",1.216844239,1,1216.844239,"Self","Self"
"135",1,2,19,"Female",31,"r","h","Match","We","EXPERIMENT","We","We","Diamond","Triangle","Circle","Star","Bottom","m",1.183476177,1,1183.476177,"We","Group-Self"
"136",1,2,20,"Female",31,"r","h","Match","You","EXPERIMENT","You","You","Diamond","Triangle","Circle","Star","Bottom","m",1.616774202,1,1616.774202,"You","Stranger"
"137",1,2,21,"Female",31,"r","h","Match","We","EXPERIMENT","We","We","Diamond","Triangle","Circle","Star","Top","m",1.500194436,1,1500.194436,"We","Group-Self"
"138",1,2,22,"Female",31,"r","h","Mismatch","We","EXPERIMENT","They","We","Diamond","Triangle","Circle","Star","Top","n",1.600137547,1,1600.137547,"We","Group-Self"
"139",1,2,23,"Female",31,"r","h","Mismatch","You","EXPERIMENT","They","You","Diamond","Triangle","Circle","Star","Bottom","None",NA,3,NA,"You","Stranger"
"140",1,2,24,"Female",31,"r","h","Mismatch","You","EXPERIMENT","We","You","Diamond","Triangle","Circle","Star","Bottom","n",1.166795304,1,1166.795304,"You","Stranger"
"141",1,2,25,"Female",31,"r","h","Mismatch","They","EXPERIMENT","Self","They","Diamond","Triangle","Circle","Star","Bottom","n",1.066806398,1,1066.806398,"They","Group-Stranger"
"142",1,2,26,"Female",31,"r","h","Match","They","EXPERIMENT","They","They","Diamond","Triangle","Circle","Star","Top","m",1.583514709,1,1583.514709,"They","Group-Stranger"
"143",1,2,27,"Female",31,"r","h","Mismatch","Self","EXPERIMENT","We","Self","Diamond","Triangle","Circle","Star","Top","n",1.066801265,1,1066.801265,"Self","Self"
"144",1,2,28,"Female",31,"r","h","Match","You","EXPERIMENT","You","You","Diamond","Triangle","Circle","Star","Top","m",1.333475723,1,1333.475723,"You","Stranger"
"145",1,2,29,"Female",31,"r","h","Mismatch","They","EXPERIMENT","You","They","Diamond","Triangle","Circle","Star","Top","n",1.300123847,1,1300.123847,"They","Group-Stranger"
"146",1,2,30,"Female",31,"r","h","Mismatch","Self","EXPERIMENT","They","Self","Diamond","Triangle","Circle","Star","Top","n",0.933498384,1,933.498384,"Self","Self"
"147",1,2,31,"Female",31,"r","h","Match","They","EXPERIMENT","They","They","Diamond","Triangle","Circle","Star","Top","None",NA,3,NA,"They","Group-Stranger"
"148",1,2,32,"Female",31,"r","h","Match","Self","EXPERIMENT","Self","Self","Diamond","Triangle","Circle","Star","Bottom","m",0.983518893,1,983.518893,"Self","Self"
"149",1,2,33,"Female",31,"r","h","Match","Self","EXPERIMENT","Self","Self","Diamond","Triangle","Circle","Star","Bottom","m",0.650171874,1,650.171874,"Self","Self"
"150",1,2,34,"Female",31,"r","h","Mismatch","We","EXPERIMENT","You","We","Diamond","Triangle","Circle","Star","Bottom","n",1.350138435,1,1350.138435,"We","Group-Self"
"151",1,2,35,"Female",31,"r","h","Match","Self","EXPERIMENT","Self","Self","Diamond","Triangle","Circle","Star","Bottom","m",0.666893016,1,666.893016,"Self","Self"
"152",1,2,36,"Female",31,"r","h","Mismatch","You","EXPERIMENT","They","You","Diamond","Triangle","Circle","Star","Top","n",1.533521045,1,1533.521045,"You","Stranger"
"153",1,2,37,"Female",31,"r","h","Match","Self","EXPERIMENT","Self","Self","Diamond","Triangle","Circle","Star","Top","m",0.933536284,1,933.536284,"Self","Self"
"154",1,2,38,"Female",31,"r","h","Match","You","EXPERIMENT","You","You","Diamond","Triangle","Circle","Star","Bottom","m",1.266818557,1,1266.818557,"You","Stranger"
"155",1,2,39,"Female",31,"r","h","Match","They","EXPERIMENT","They","They","Diamond","Triangle","Circle","Star","Bottom","m",1.433488317,1,1433.488317,"They","Group-Stranger"
"156",1,2,40,"Female",31,"r","h","Match","We","EXPERIMENT","We","We","Diamond","Triangle","Circle","Star","Top","m",1.300141218,1,1300.141218,"We","Group-Self"
"157",1,2,41,"Female",31,"r","h","Match","You","EXPERIMENT","You","You","Diamond","Triangle","Circle","Star","Bottom","m",1.166834784,1,1166.834784,"You","Stranger"
"158",1,2,42,"Female",31,"r","h","Match","They","EXPERIMENT","They","They","Diamond","Triangle","Circle","Star","Bottom","m",1.583495364,1,1583.495364,"They","Group-Stranger"
"159",1,2,43,"Female",31,"r","h","Mismatch","We","EXPERIMENT","You","We","Diamond","Triangle","Circle","Star","Bottom","None",NA,3,NA,"We","Group-Self"
"160",1,2,44,"Female",31,"r","h","Match","We","EXPERIMENT","We","We","Diamond","Triangle","Circle","Star","Top","m",1.283520354,1,1283.520354,"We","Group-Self"
"161",1,2,45,"Female",31,"r","h","Match","You","EXPERIMENT","You","You","Diamond","Triangle","Circle","Star","Top","m",1.400130519,1,1400.130519,"You","Stranger"
"162",1,2,46,"Female",31,"r","h","Match","Self","EXPERIMENT","Self","Self","Diamond","Triangle","Circle","Star","Bottom","m",0.583535633,1,583.535633,"Self","Self"
"163",1,2,47,"Female",31,"r","h","Match","You","EXPERIMENT","You","You","Diamond","Triangle","Circle","Star","Top","m",1.316786164,1,1316.786164,"You","Stranger"
"164",1,2,48,"Female",31,"r","h","Match","We","EXPERIMENT","We","We","Diamond","Triangle","Circle","Star","Top","m",1.033472288,1,1033.472288,"We","Group-Self"
"165",1,2,49,"Female",31,"r","h","Mismatch","We","EXPERIMENT","Self","We","Diamond","Triangle","Circle","Star","Top","n",1.250164531,1,1250.164531,"We","Group-Self"
"166",1,2,50,"Female",31,"r","h","Match","They","EXPERIMENT","They","They","Diamond","Triangle","Circle","Star","Bottom","m",1.300018437,1,1300.018437,"They","Group-Stranger"
"167",1,2,51,"Female",31,"r","h","Mismatch","We","EXPERIMENT","Self","We","Diamond","Triangle","Circle","Star","Bottom","n",1.366748639,1,1366.748639,"We","Group-Self"
"168",1,2,52,"Female",31,"r","h","Match","Self","EXPERIMENT","Self","Self","Diamond","Triangle","Circle","Star","Top","m",0.916780006,1,916.780006,"Self","Self"
"169",1,2,53,"Female",31,"r","h","Match","We","EXPERIMENT","We","We","Diamond","Triangle","Circle","Star","Bottom","m",0.983510998,1,983.510998,"We","Group-Self"
"170",1,2,54,"Female",31,"r","h","Mismatch","We","EXPERIMENT","Self","We","Diamond","Triangle","Circle","Star","Bottom","n",1.083541357,1,1083.541357,"We","Group-Self"
"171",1,2,55,"Female",31,"r","h","Mismatch","We","EXPERIMENT","They","We","Diamond","Triangle","Circle","Star","Bottom","None",NA,3,NA,"We","Group-Self"
"172",1,2,56,"Female",31,"r","h","Match","Self","EXPERIMENT","Self","Self","Diamond","Triangle","Circle","Star","Bottom","m",0.61685553,1,616.85553,"Self","Self"
"173",1,2,57,"Female",31,"r","h","Mismatch","They","EXPERIMENT","You","They","Diamond","Triangle","Circle","Star","Top","None",NA,3,NA,"They","Group-Stranger"
"174",1,2,58,"Female",31,"r","h","Mismatch","Self","EXPERIMENT","They","Self","Diamond","Triangle","Circle","Star","Bottom","n",0.883503141,1,883.503141,"Self","Self"
"175",1,2,59,"Female",31,"r","h","Match","They","EXPERIMENT","They","They","Diamond","Triangle","Circle","Star","Top","m",1.08346911,1,1083.46911,"They","Group-Stranger"
"176",1,2,60,"Female",31,"r","h","Match","You","EXPERIMENT","You","You","Diamond","Triangle","Circle","Star","Top","m",1.133509754,1,1133.509754,"You","Stranger"
"177",1,2,61,"Female",31,"r","h","Match","You","EXPERIMENT","You","You","Diamond","Triangle","Circle","Star","Bottom","m",1.150155885,1,1150.155885,"You","Stranger"
"178",1,2,62,"Female",31,"r","h","Mismatch","They","EXPERIMENT","Self","They","Diamond","Triangle","Circle","Star","Top","n",1.28348956,1,1283.48956,"They","Group-Stranger"
"179",1,2,63,"Female",31,"r","h","Mismatch","Self","EXPERIMENT","You","Self","Diamond","Triangle","Circle","Star","Bottom","n",0.816840054,1,816.840054,"Self","Self"
"180",1,2,64,"Female",31,"r","h","Mismatch","They","EXPERIMENT","You","They","Diamond","Triangle","Circle","Star","Bottom","n",1.566842916,1,1566.842916,"They","Group-Stranger"
"181",1,2,65,"Female",31,"r","h","Match","We","EXPERIMENT","We","We","Diamond","Triangle","Circle","Star","Bottom","m",1.150174045,1,1150.174045,"We","Group-Self"
"182",1,2,66,"Female",31,"r","h","Match","They","EXPERIMENT","They","They","Diamond","Triangle","Circle","Star","Bottom","m",0.966862498,1,966.862498,"They","Group-Stranger"
"183",1,2,67,"Female",31,"r","h","Mismatch","They","EXPERIMENT","Self","They","Diamond","Triangle","Circle","Star","Top","n",1.516797534,1,1516.797534,"They","Group-Stranger"
"184",1,2,68,"Female",31,"r","h","Match","We","EXPERIMENT","We","We","Diamond","Triangle","Circle","Star","Bottom","m",1.000173315,1,1000.173315,"We","Group-Self"
"185",1,2,69,"Female",31,"r","h","Mismatch","We","EXPERIMENT","You","We","Diamond","Triangle","Circle","Star","Top","n",1.550148226,1,1550.148226,"We","Group-Self"
"186",1,2,70,"Female",31,"r","h","Match","We","EXPERIMENT","We","We","Diamond","Triangle","Circle","Star","Top","m",0.650193193,1,650.193193,"We","Group-Self"
"187",1,2,71,"Female",31,"r","h","Match","They","EXPERIMENT","They","They","Diamond","Triangle","Circle","Star","Top","None",NA,3,NA,"They","Group-Stranger"
"188",1,2,72,"Female",31,"r","h","Mismatch","We","EXPERIMENT","They","We","Diamond","Triangle","Circle","Star","Top","m",0.633486658,0,633.486658,"We","Group-Self"
"189",1,2,73,"Female",31,"r","h","Mismatch","Self","EXPERIMENT","We","Self","Diamond","Triangle","Circle","Star","Top","m",0.566850023,0,566.850023,"Self","Self"
"190",1,2,74,"Female",31,"r","h","Match","Self","EXPERIMENT","Self","Self","Diamond","Triangle","Circle","Star","Bottom","m",0.566820018,1,566.820018,"Self","Self"
"191",1,2,75,"Female",31,"r","h","Match","You","EXPERIMENT","You","You","Diamond","Triangle","Circle","Star","Bottom","n",0.70017975,0,700.17975,"You","Stranger"
"192",1,2,76,"Female",31,"r","h","Mismatch","You","EXPERIMENT","Self","You","Diamond","Triangle","Circle","Star","Top","None",NA,3,NA,"You","Stranger"
"193",1,2,77,"Female",31,"r","h","Mismatch","We","EXPERIMENT","Self","We","Diamond","Triangle","Circle","Star","Top","None",NA,3,NA,"We","Group-Self"
"194",1,2,78,"Female",31,"r","h","Mismatch","Self","EXPERIMENT","They","Self","Diamond","Triangle","Circle","Star","Bottom","n",0.850197851,1,850.197851,"Self","Self"
"195",1,2,79,"Female",31,"r","h","Mismatch","Self","EXPERIMENT","You","Self","Diamond","Triangle","Circle","Star","Bottom","n",0.616856714,1,616.856714,"Self","Self"
"196",1,2,80,"Female",31,"r","h","Match","Self","EXPERIMENT","Self","Self","Diamond","Triangle","Circle","Star","Top","m",0.600192818,1,600.192818,"Self","Self"
"197",1,2,81,"Female",31,"r","h","Mismatch","Self","EXPERIMENT","You","Self","Diamond","Triangle","Circle","Star","Top","m",1.016815103,0,1016.815103,"Self","Self"
"198",1,2,82,"Female",31,"r","h","Mismatch","You","EXPERIMENT","They","You","Diamond","Triangle","Circle","Star","Top","n",0.766898898,1,766.898898,"You","Stranger"
"199",1,2,83,"Female",31,"r","h","Match","We","EXPERIMENT","We","We","Diamond","Triangle","Circle","Star","Bottom","m",0.866803713,1,866.803713,"We","Group-Self"
"200",1,2,84,"Female",31,"r","h","Mismatch","Self","EXPERIMENT","They","Self","Diamond","Triangle","Circle","Star","Top","n",1.316777479,1,1316.777479,"Self","Self"
"201",1,2,85,"Female",31,"r","h","Match","You","EXPERIMENT","You","You","Diamond","Triangle","Circle","Star","Top","m",1.150174835,1,1150.174835,"You","Stranger"
"202",1,2,86,"Female",31,"r","h","Mismatch","You","EXPERIMENT","They","You","Diamond","Triangle","Circle","Star","Bottom","n",1.11687981,1,1116.87981,"You","Stranger"
"203",1,2,87,"Female",31,"r","h","Match","We","EXPERIMENT","We","We","Diamond","Triangle","Circle","Star","Top","m",1.38348123,1,1383.48123,"We","Group-Self"
"204",1,2,88,"Female",31,"r","h","Match","Self","EXPERIMENT","Self","Self","Diamond","Triangle","Circle","Star","Top","m",0.600173868,1,600.173868,"Self","Self"
"205",1,2,89,"Female",31,"r","h","Match","Self","EXPERIMENT","Self","Self","Diamond","Triangle","Circle","Star","Top","m",0.43354872,1,433.54872,"Self","Self"
"206",1,2,90,"Female",31,"r","h","Mismatch","You","EXPERIMENT","We","You","Diamond","Triangle","Circle","Star","Bottom","n",1.366827598,1,1366.827598,"You","Stranger"
"207",1,2,91,"Female",31,"r","h","Match","They","EXPERIMENT","They","They","Diamond","Triangle","Circle","Star","Bottom","n",1.350148699,0,1350.148699,"They","Group-Stranger"
"208",1,2,92,"Female",31,"r","h","Match","They","EXPERIMENT","They","They","Diamond","Triangle","Circle","Star","Top","n",0.850157582,0,850.157582,"They","Group-Stranger"
"209",1,2,93,"Female",31,"r","h","Mismatch","We","EXPERIMENT","They","We","Diamond","Triangle","Circle","Star","Bottom","n",1.066829691,1,1066.829691,"We","Group-Self"
"210",1,2,94,"Female",31,"r","h","Mismatch","They","EXPERIMENT","We","They","Diamond","Triangle","Circle","Star","Top","n",1.550089401,1,1550.089401,"They","Group-Stranger"
"211",1,2,95,"Female",31,"r","h","Match","You","EXPERIMENT","You","You","Diamond","Triangle","Circle","Star","Top","m",1.300123452,1,1300.123452,"You","Stranger"
"212",1,2,96,"Female",31,"r","h","Match","They","EXPERIMENT","They","They","Diamond","Triangle","Circle","Star","Bottom","None",NA,3,NA,"They","Group-Stranger"
"213",1,3,1,"Female",31,"r","h","Match","You","EXPERIMENT","You","You","Diamond","Triangle","Circle","Star","Top","None",NA,3,NA,"You","Stranger"
"214",1,3,2,"Female",31,"r","h","Mismatch","Self","EXPERIMENT","You","Self","Diamond","Triangle","Circle","Star","Top","n",1.18350934,1,1183.50934,"Self","Self"
"215",1,3,3,"Female",31,"r","h","Mismatch","Self","EXPERIMENT","They","Self","Diamond","Triangle","Circle","Star","Bottom","n",0.950158727,1,950.158727,"Self","Self"
"216",1,3,4,"Female",31,"r","h","Match","We","EXPERIMENT","We","We","Diamond","Triangle","Circle","Star","Top","m",1.466802687,1,1466.802687,"We","Group-Self"
"217",1,3,5,"Female",31,"r","h","Mismatch","You","EXPERIMENT","We","You","Diamond","Triangle","Circle","Star","Bottom","None",NA,3,NA,"You","Stranger"
"218",1,3,6,"Female",31,"r","h","Match","You","EXPERIMENT","You","You","Diamond","Triangle","Circle","Star","Top","n",0.816886245,0,816.886245,"You","Stranger"
"219",1,3,7,"Female",31,"r","h","Match","We","EXPERIMENT","We","We","Diamond","Triangle","Circle","Star","Top","m",1.033502687,1,1033.502687,"We","Group-Self"
"220",1,3,8,"Female",31,"r","h","Match","They","EXPERIMENT","They","They","Diamond","Triangle","Circle","Star","Bottom","m",1.316786954,1,1316.786954,"They","Group-Stranger"
"221",1,3,9,"Female",31,"r","h","Match","They","EXPERIMENT","They","They","Diamond","Triangle","Circle","Star","Bottom","n",1.183527895,0,1183.527895,"They","Group-Stranger"
"222",1,3,10,"Female",31,"r","h","Match","You","EXPERIMENT","You","You","Diamond","Triangle","Circle","Star","Bottom","n",1.000158313,0,1000.158313,"You","Stranger"
"223",1,3,11,"Female",31,"r","h","Match","You","EXPERIMENT","You","You","Diamond","Triangle","Circle","Star","Top","m",1.550152963,1,1550.152963,"You","Stranger"
"224",1,3,12,"Female",31,"r","h","Mismatch","You","EXPERIMENT","We","You","Diamond","Triangle","Circle","Star","Bottom","n",1.550080716,1,1550.080716,"You","Stranger"
"225",1,3,13,"Female",31,"r","h","Match","We","EXPERIMENT","We","We","Diamond","Triangle","Circle","Star","Bottom","m",1.350146726,1,1350.146726,"We","Group-Self"
"226",1,3,14,"Female",31,"r","h","Match","Self","EXPERIMENT","Self","Self","Diamond","Triangle","Circle","Star","Top","m",0.783489758,1,783.489758,"Self","Self"
"227",1,3,15,"Female",31,"r","h","Match","Self","EXPERIMENT","Self","Self","Diamond","Triangle","Circle","Star","Bottom","m",0.616852371,1,616.852371,"Self","Self"
"228",1,3,16,"Female",31,"r","h","Mismatch","We","EXPERIMENT","They","We","Diamond","Triangle","Circle","Star","Top","n",1.300142008,1,1300.142008,"We","Group-Self"
"229",1,3,17,"Female",31,"r","h","Match","Self","EXPERIMENT","Self","Self","Diamond","Triangle","Circle","Star","Bottom","m",0.73348504,1,733.48504,"Self","Self"
"230",1,3,18,"Female",31,"r","h","Mismatch","We","EXPERIMENT","Self","We","Diamond","Triangle","Circle","Star","Top","n",0.966809201,1,966.809201,"We","Group-Self"
"231",1,3,19,"Female",31,"r","h","Match","We","EXPERIMENT","We","We","Diamond","Triangle","Circle","Star","Bottom","m",0.850149292,1,850.149292,"We","Group-Self"
"232",1,3,20,"Female",31,"r","h","Mismatch","Self","EXPERIMENT","We","Self","Diamond","Triangle","Circle","Star","Bottom","n",1.316770373,1,1316.770373,"Self","Self"
"233",1,3,21,"Female",31,"r","h","Mismatch","They","EXPERIMENT","Self","They","Diamond","Triangle","Circle","Star","Top","n",1.299954085,1,1299.954085,"They","Group-Stranger"
"234",1,3,22,"Female",31,"r","h","Mismatch","Self","EXPERIMENT","They","Self","Diamond","Triangle","Circle","Star","Top","n",1.016836422,1,1016.836422,"Self","Self"
"235",1,3,23,"Female",31,"r","h","Mismatch","They","EXPERIMENT","You","They","Diamond","Triangle","Circle","Star","Top","None",NA,3,NA,"They","Group-Stranger"
"236",1,3,24,"Female",31,"r","h","Match","Self","EXPERIMENT","Self","Self","Diamond","Triangle","Circle","Star","Top","m",0.566822782,1,566.822782,"Self","Self"
"237",1,3,25,"Female",31,"r","h","Match","You","EXPERIMENT","You","You","Diamond","Triangle","Circle","Star","Bottom","m",1.566780539,1,1566.780539,"You","Stranger"
"238",1,3,26,"Female",31,"r","h","Mismatch","We","EXPERIMENT","You","We","Diamond","Triangle","Circle","Star","Bottom","n",1.416893114,1,1416.893114,"We","Group-Self"
"239",1,3,27,"Female",31,"r","h","Mismatch","We","EXPERIMENT","They","We","Diamond","Triangle","Circle","Star","Bottom","None",NA,3,NA,"We","Group-Self"
"240",1,3,28,"Female",31,"r","h","Match","You","EXPERIMENT","You","You","Diamond","Triangle","Circle","Star","Top","n",1.366802726,0,1366.802726,"You","Stranger"
"241",1,3,29,"Female",31,"r","h","Match","We","EXPERIMENT","We","We","Diamond","Triangle","Circle","Star","Top","m",1.283487586,1,1283.487586,"We","Group-Self"
"242",1,3,30,"Female",31,"r","h","Match","You","EXPERIMENT","You","You","Diamond","Triangle","Circle","Star","Bottom","m",1.400113938,1,1400.113938,"You","Stranger"
"243",1,3,31,"Female",31,"r","h","Match","You","EXPERIMENT","You","You","Diamond","Triangle","Circle","Star","Bottom","m",1.516783322,1,1516.783322,"You","Stranger"
"244",1,3,32,"Female",31,"r","h","Mismatch","They","EXPERIMENT","Self","They","Diamond","Triangle","Circle","Star","Top","n",1.650111865,1,1650.111865,"They","Group-Stranger"
"245",1,3,33,"Female",31,"r","h","Match","They","EXPERIMENT","They","They","Diamond","Triangle","Circle","Star","Bottom","m",1.316791297,1,1316.791297,"They","Group-Stranger"
"246",1,3,34,"Female",31,"r","h","Mismatch","We","EXPERIMENT","You","We","Diamond","Triangle","Circle","Star","Top","n",1.133513702,1,1133.513702,"We","Group-Self"
"247",1,3,35,"Female",31,"r","h","Match","We","EXPERIMENT","We","We","Diamond","Triangle","Circle","Star","Top","m",1.166809517,1,1166.809517,"We","Group-Self"
"248",1,3,36,"Female",31,"r","h","Match","We","EXPERIMENT","We","We","Diamond","Triangle","Circle","Star","Bottom","m",0.883454581,1,883.454581,"We","Group-Self"
"249",1,3,37,"Female",31,"r","h","Mismatch","You","EXPERIMENT","They","You","Diamond","Triangle","Circle","Star","Top","n",1.216794889,1,1216.794889,"You","Stranger"
"250",1,3,38,"Female",31,"r","h","Match","Self","EXPERIMENT","Self","Self","Diamond","Triangle","Circle","Star","Bottom","m",1.166834389,1,1166.834389,"Self","Self"
"251",1,3,39,"Female",31,"r","h","Mismatch","We","EXPERIMENT","You","We","Diamond","Triangle","Circle","Star","Bottom","n",0.950188337,1,950.188337,"We","Group-Self"
"252",1,3,40,"Female",31,"r","h","Mismatch","You","EXPERIMENT","They","You","Diamond","Triangle","Circle","Star","Bottom","n",1.36683352,1,1366.83352,"You","Stranger"
"253",1,3,41,"Female",31,"r","h","Mismatch","We","EXPERIMENT","They","We","Diamond","Triangle","Circle","Star","Top","n",1.166830046,1,1166.830046,"We","Group-Self"
"254",1,3,42,"Female",31,"r","h","Mismatch","They","EXPERIMENT","You","They","Diamond","Triangle","Circle","Star","Bottom","n",1.216810681,1,1216.810681,"They","Group-Stranger"
"255",1,3,43,"Female",31,"r","h","Mismatch","They","EXPERIMENT","You","They","Diamond","Triangle","Circle","Star","Bottom","n",0.816826236,1,816.826236,"They","Group-Stranger"
"256",1,3,44,"Female",31,"r","h","Mismatch","Self","EXPERIMENT","You","Self","Diamond","Triangle","Circle","Star","Bottom","n",0.833482631,1,833.482631,"Self","Self"
"257",1,3,45,"Female",31,"r","h","Match","They","EXPERIMENT","They","They","Diamond","Triangle","Circle","Star","Bottom","m",1.433460286,1,1433.460286,"They","Group-Stranger"
"258",1,3,46,"Female",31,"r","h","Mismatch","Self","EXPERIMENT","You","Self","Diamond","Triangle","Circle","Star","Top","n",1.016838791,1,1016.838791,"Self","Self"
"259",1,3,47,"Female",31,"r","h","Match","Self","EXPERIMENT","Self","Self","Diamond","Triangle","Circle","Star","Bottom","m",0.60015018,1,600.15018,"Self","Self"
"260",1,3,48,"Female",31,"r","h","Mismatch","Self","EXPERIMENT","They","Self","Diamond","Triangle","Circle","Star","Top","n",0.916816722,1,916.816722,"Self","Self"
"261",1,3,49,"Female",31,"r","h","Match","You","EXPERIMENT","You","You","Diamond","Triangle","Circle","Star","Top","n",1.03349716,0,1033.49716,"You","Stranger"
"262",1,3,50,"Female",31,"r","h","Mismatch","Self","EXPERIMENT","They","Self","Diamond","Triangle","Circle","Star","Bottom","n",0.966835652,1,966.835652,"Self","Self"
"263",1,3,51,"Female",31,"r","h","Mismatch","We","EXPERIMENT","They","We","Diamond","Triangle","Circle","Star","Bottom","n",1.100146429,1,1100.146429,"We","Group-Self"
"264",1,3,52,"Female",31,"r","h","Match","Self","EXPERIMENT","Self","Self","Diamond","Triangle","Circle","Star","Bottom","m",0.600194002,1,600.194002,"Self","Self"
"265",1,3,53,"Female",31,"r","h","Match","They","EXPERIMENT","They","They","Diamond","Triangle","Circle","Star","Top","m",1.616760779,1,1616.760779,"They","Group-Stranger"
"266",1,3,54,"Female",31,"r","h","Match","They","EXPERIMENT","They","They","Diamond","Triangle","Circle","Star","Top","m",1.583472071,1,1583.472071,"They","Group-Stranger"
"267",1,3,55,"Female",31,"r","h","Match","Self","EXPERIMENT","Self","Self","Diamond","Triangle","Circle","Star","Bottom","m",0.550169939,1,550.169939,"Self","Self"
"268",1,3,56,"Female",31,"r","h","Mismatch","They","EXPERIMENT","We","They","Diamond","Triangle","Circle","Star","Bottom","None",NA,3,NA,"They","Group-Stranger"
"269",1,3,57,"Female",31,"r","h","Mismatch","You","EXPERIMENT","Self","You","Diamond","Triangle","Circle","Star","Top","n",1.100143666,1,1100.143666,"You","Stranger"
"270",1,3,58,"Female",31,"r","h","Match","We","EXPERIMENT","We","We","Diamond","Triangle","Circle","Star","Bottom","m",1.333469011,1,1333.469011,"We","Group-Self"
"271",1,3,59,"Female",31,"r","h","Mismatch","We","EXPERIMENT","Self","We","Diamond","Triangle","Circle","Star","Bottom","n",0.86683885,1,866.83885,"We","Group-Self"
"272",1,3,60,"Female",31,"r","h","Mismatch","You","EXPERIMENT","Self","You","Diamond","Triangle","Circle","Star","Bottom","n",0.85014337,1,850.14337,"You","Stranger"
"273",1,3,61,"Female",31,"r","h","Match","They","EXPERIMENT","They","They","Diamond","Triangle","Circle","Star","Bottom","n",1.233483658,0,1233.483658,"They","Group-Stranger"
"274",1,3,62,"Female",31,"r","h","Match","Self","EXPERIMENT","Self","Self","Diamond","Triangle","Circle","Star","Top","m",0.533570789,1,533.570789,"Self","Self"
"275",1,3,63,"Female",31,"r","h","Match","They","EXPERIMENT","They","They","Diamond","Triangle","Circle","Star","Top","n",0.633506793,0,633.506793,"They","Group-Stranger"
"276",1,3,64,"Female",31,"r","h","Mismatch","You","EXPERIMENT","Self","You","Diamond","Triangle","Circle","Star","Top","n",0.800139047,1,800.139047,"You","Stranger"
"277",1,3,65,"Female",31,"r","h","Mismatch","We","EXPERIMENT","Self","We","Diamond","Triangle","Circle","Star","Bottom","n",0.900170591,1,900.170591,"We","Group-Self"
"278",1,3,66,"Female",31,"r","h","Match","We","EXPERIMENT","We","We","Diamond","Triangle","Circle","Star","Bottom","m",1.33347059,1,1333.47059,"We","Group-Self"
"279",1,3,67,"Female",31,"r","h","Mismatch","They","EXPERIMENT","Self","They","Diamond","Triangle","Circle","Star","Bottom","n",0.85013429,1,850.13429,"They","Group-Stranger"
"280",1,3,68,"Female",31,"r","h","Match","You","EXPERIMENT","You","You","Diamond","Triangle","Circle","Star","Top","n",0.95014333,0,950.14333,"You","Stranger"
"281",1,3,69,"Female",31,"r","h","Match","They","EXPERIMENT","They","They","Diamond","Triangle","Circle","Star","Top","m",1.666797081,1,1666.797081,"They","Group-Stranger"
"282",1,3,70,"Female",31,"r","h","Match","Self","EXPERIMENT","Self","Self","Diamond","Triangle","Circle","Star","Top","m",0.616880797,1,616.880797,"Self","Self"
"283",1,3,71,"Female",31,"r","h","Mismatch","You","EXPERIMENT","They","You","Diamond","Triangle","Circle","Star","Top","n",0.983507445,1,983.507445,"You","Stranger"
"284",1,3,72,"Female",31,"r","h","Mismatch","You","EXPERIMENT","They","You","Diamond","Triangle","Circle","Star","Bottom","n",1.033455312,1,1033.455312,"You","Stranger"
"285",1,3,73,"Female",31,"r","h","Match","You","EXPERIMENT","You","You","Diamond","Triangle","Circle","Star","Bottom","m",1.250134921,1,1250.134921,"You","Stranger"
"286",1,3,74,"Female",31,"r","h","Match","We","EXPERIMENT","We","We","Diamond","Triangle","Circle","Star","Bottom","m",0.866827796,1,866.827796,"We","Group-Self"
"287",1,3,75,"Female",31,"r","h","Mismatch","You","EXPERIMENT","Self","You","Diamond","Triangle","Circle","Star","Bottom","n",1.68345624,1,1683.45624,"You","Stranger"
"288",1,3,76,"Female",31,"r","h","Match","Self","EXPERIMENT","Self","Self","Diamond","Triangle","Circle","Star","Top","m",0.683466504,1,683.466504,"Self","Self"
"289",1,3,77,"Female",31,"r","h","Mismatch","They","EXPERIMENT","We","They","Diamond","Triangle","Circle","Star","Top","m",0.833484211,0,833.484211,"They","Group-Stranger"
"290",1,3,78,"Female",31,"r","h","Match","They","EXPERIMENT","They","They","Diamond","Triangle","Circle","Star","Top","m",1.133487251,1,1133.487251,"They","Group-Stranger"
"291",1,3,79,"Female",31,"r","h","Mismatch","They","EXPERIMENT","You","They","Diamond","Triangle","Circle","Star","Top","n",1.233446547,1,1233.446547,"They","Group-Stranger"
"292",1,3,80,"Female",31,"r","h","Mismatch","Self","EXPERIMENT","We","Self","Diamond","Triangle","Circle","Star","Bottom","n",0.983482967,1,983.482967,"Self","Self"
"293",1,3,81,"Female",31,"r","h","Mismatch","They","EXPERIMENT","We","They","Diamond","Triangle","Circle","Star","Bottom","n",1.266837113,1,1266.837113,"They","Group-Stranger"
"294",1,3,82,"Female",31,"r","h","Mismatch","Self","EXPERIMENT","You","Self","Diamond","Triangle","Circle","Star","Bottom","n",0.849956237,1,849.956237,"Self","Self"
"295",1,3,83,"Female",31,"r","h","Mismatch","Self","EXPERIMENT","We","Self","Diamond","Triangle","Circle","Star","Top","n",0.866813188,1,866.813188,"Self","Self"
"296",1,3,84,"Female",31,"r","h","Mismatch","They","EXPERIMENT","Self","They","Diamond","Triangle","Circle","Star","Bottom","n",0.833503161,1,833.503161,"They","Group-Stranger"
"297",1,3,85,"Female",31,"r","h","Match","They","EXPERIMENT","They","They","Diamond","Triangle","Circle","Star","Top","m",1.066807582,1,1066.807582,"They","Group-Stranger"
"298",1,3,86,"Female",31,"r","h","Mismatch","You","EXPERIMENT","We","You","Diamond","Triangle","Circle","Star","Top","n",1.416812971,1,1416.812971,"You","Stranger"
"299",1,3,87,"Female",31,"r","h","Mismatch","We","EXPERIMENT","You","We","Diamond","Triangle","Circle","Star","Top","n",1.200118754,1,1200.118754,"We","Group-Self"
"300",1,3,88,"Female",31,"r","h","Match","You","EXPERIMENT","You","You","Diamond","Triangle","Circle","Star","Bottom","m",1.400126966,1,1400.126966,"You","Stranger"
"301",1,3,89,"Female",31,"r","h","Mismatch","Self","EXPERIMENT","We","Self","Diamond","Triangle","Circle","Star","Top","n",0.900146508,1,900.146508,"Self","Self"
"302",1,3,90,"Female",31,"r","h","Match","They","EXPERIMENT","They","They","Diamond","Triangle","Circle","Star","Bottom","n",1.166818202,0,1166.818202,"They","Group-Stranger"
"303",1,3,91,"Female",31,"r","h","Match","We","EXPERIMENT","We","We","Diamond","Triangle","Circle","Star","Top","m",1.400115517,1,1400.115517,"We","Group-Self"
"304",1,3,92,"Female",31,"r","h","Mismatch","We","EXPERIMENT","Self","We","Diamond","Triangle","Circle","Star","Top","n",0.833511451,1,833.511451,"We","Group-Self"
"305",1,3,93,"Female",31,"r","h","Mismatch","You","EXPERIMENT","We","You","Diamond","Triangle","Circle","Star","Top","n",1.033514926,1,1033.514926,"You","Stranger"
"306",1,3,94,"Female",31,"r","h","Match","Self","EXPERIMENT","Self","Self","Diamond","Triangle","Circle","Star","Top","m",0.783509892,1,783.509892,"Self","Self"
"307",1,3,95,"Female",31,"r","h","Mismatch","They","EXPERIMENT","We","They","Diamond","Triangle","Circle","Star","Top","m",0.866941102,0,866.941102,"They","Group-Stranger"
"308",1,3,96,"Female",31,"r","h","Match","We","EXPERIMENT","We","We","Diamond","Triangle","Circle","Star","Top","n",1.433494239,0,1433.494239,"We","Group-Self"
"309",2,0,1,"Female",21,"r","h","Mismatch","We","TRAINING","Self","We","Diamond","Circle","Triangle","Star","Bottom","None",NA,3,NA,"We","Group-Self"
"310",2,0,2,"Female",21,"r","h","Mismatch","You","TRAINING","They","You","Diamond","Circle","Triangle","Star","Bottom","m",1.600125703,1,1600.125703,"You","Stranger"
"311",2,0,3,"Female",21,"r","h","Match","They","TRAINING","They","They","Diamond","Circle","Triangle","Star","Bottom","n",1.300160563,1,1300.160563,"They","Group-Stranger"
"312",2,0,4,"Female",21,"r","h","Match","Self","TRAINING","Self","Self","Diamond","Circle","Triangle","Star","Top","n",1.200147574,1,1200.147574,"Self","Self"
"313",2,0,5,"Female",21,"r","h","Mismatch","They","TRAINING","We","They","Diamond","Circle","Triangle","Star","Bottom","m",1.366814965,1,1366.814965,"They","Group-Stranger"
"314",2,0,6,"Female",21,"r","h","Mismatch","Self","TRAINING","You","Self","Diamond","Circle","Triangle","Star","Bottom","m",0.933530362,1,933.530362,"Self","Self"
"315",2,0,7,"Female",21,"r","h","Match","They","TRAINING","They","They","Diamond","Circle","Triangle","Star","Top","m",1.600136362,0,1600.136362,"They","Group-Stranger"
"316",2,0,8,"Female",21,"r","h","Mismatch","Self","TRAINING","They","Self","Diamond","Circle","Triangle","Star","Top","m",1.083134324,1,1083.134324,"Self","Self"
"317",2,0,9,"Female",21,"r","h","Mismatch","We","TRAINING","You","We","Diamond","Circle","Triangle","Star","Top","m",1.28352904,1,1283.52904,"We","Group-Self"
"318",2,0,10,"Female",21,"r","h","Mismatch","We","TRAINING","They","We","Diamond","Circle","Triangle","Star","Bottom","None",NA,3,NA,"We","Group-Self"
"319",2,0,11,"Female",21,"r","h","Match","We","TRAINING","We","We","Diamond","Circle","Triangle","Star","Top","n",1.316829592,1,1316.829592,"We","Group-Self"
"320",2,0,12,"Female",21,"r","h","Match","You","TRAINING","You","You","Diamond","Circle","Triangle","Star","Bottom","m",0.866851088,0,866.851088,"You","Stranger"
"321",2,0,13,"Female",21,"r","h","Match","You","TRAINING","You","You","Diamond","Circle","Triangle","Star","Top","m",0.683482691,0,683.482691,"You","Stranger"
"322",2,0,14,"Female",21,"r","h","Mismatch","You","TRAINING","We","You","Diamond","Circle","Triangle","Star","Top","m",1.683489402,1,1683.489402,"You","Stranger"
"323",2,0,15,"Female",21,"r","h","Match","Self","TRAINING","Self","Self","Diamond","Circle","Triangle","Star","Bottom","n",0.883534725,1,883.534725,"Self","Self"
"324",2,0,16,"Female",21,"r","h","Mismatch","Self","TRAINING","We","Self","Diamond","Circle","Triangle","Star","Top","m",0.800184053,1,800.184053,"Self","Self"
"325",2,0,17,"Female",21,"r","h","Match","We","TRAINING","We","We","Diamond","Circle","Triangle","Star","Bottom","n",1.116800851,1,1116.800851,"We","Group-Self"
"326",2,0,18,"Female",21,"r","h","Mismatch","They","TRAINING","You","They","Diamond","Circle","Triangle","Star","Top","n",1.350145146,0,1350.145146,"They","Group-Stranger"
"327",2,0,19,"Female",21,"r","h","Mismatch","You","TRAINING","Self","You","Diamond","Circle","Triangle","Star","Top","n",0.883471953,0,883.471953,"You","Stranger"
"328",2,0,20,"Female",21,"r","h","Mismatch","They","TRAINING","Self","They","Diamond","Circle","Triangle","Star","Top","m",1.466788474,1,1466.788474,"They","Group-Stranger"
"329",2,1,1,"Female",21,"r","h","Match","Self","EXPERIMENT","Self","Self","Diamond","Circle","Triangle","Star","Bottom","n",0.78350397,1,783.50397,"Self","Self"
"330",2,1,2,"Female",21,"r","h","Mismatch","You","EXPERIMENT","We","You","Diamond","Circle","Triangle","Star","Top","m",1.433497397,1,1433.497397,"You","Stranger"
"331",2,1,3,"Female",21,"r","h","Match","We","EXPERIMENT","We","We","Diamond","Circle","Triangle","Star","Bottom","m",0.750171439,0,750.171439,"We","Group-Self"
"332",2,1,4,"Female",21,"r","h","Mismatch","They","EXPERIMENT","Self","They","Diamond","Circle","Triangle","Star","Top","m",1.100156299,1,1100.156299,"They","Group-Stranger"
"333",2,1,5,"Female",21,"r","h","Mismatch","They","EXPERIMENT","You","They","Diamond","Circle","Triangle","Star","Top","m",1.383470176,1,1383.470176,"They","Group-Stranger"
"334",2,1,6,"Female",21,"r","h","Match","They","EXPERIMENT","They","They","Diamond","Circle","Triangle","Star","Top","n",1.433516347,1,1433.516347,"They","Group-Stranger"
"335",2,1,7,"Female",21,"r","h","Match","You","EXPERIMENT","You","You","Diamond","Circle","Triangle","Star","Bottom","m",1.116797693,0,1116.797693,"You","Stranger"
"336",2,1,8,"Female",21,"r","h","Mismatch","They","EXPERIMENT","Self","They","Diamond","Circle","Triangle","Star","Bottom","m",0.833471183,1,833.471183,"They","Group-Stranger"
"337",2,1,9,"Female",21,"r","h","Mismatch","You","EXPERIMENT","We","You","Diamond","Circle","Triangle","Star","Bottom","m",1.450156951,1,1450.156951,"You","Stranger"
"338",2,1,10,"Female",21,"r","h","Mismatch","We","EXPERIMENT","Self","We","Diamond","Circle","Triangle","Star","Bottom","m",1.083492403,1,1083.492403,"We","Group-Self"
"339",2,1,11,"Female",21,"r","h","Match","Self","EXPERIMENT","Self","Self","Diamond","Circle","Triangle","Star","Bottom","n",0.883518538,1,883.518538,"Self","Self"
"340",2,1,12,"Female",21,"r","h","Match","They","EXPERIMENT","They","They","Diamond","Circle","Triangle","Star","Top","n",1.416895089,1,1416.895089,"They","Group-Stranger"
"341",2,1,13,"Female",21,"r","h","Match","We","EXPERIMENT","We","We","Diamond","Circle","Triangle","Star","Top","n",1.23345997,1,1233.45997,"We","Group-Self"
"342",2,1,14,"Female",21,"r","h","Mismatch","We","EXPERIMENT","Self","We","Diamond","Circle","Triangle","Star","Top","m",1.066845482,1,1066.845482,"We","Group-Self"
"343",2,1,15,"Female",21,"r","h","Match","Self","EXPERIMENT","Self","Self","Diamond","Circle","Triangle","Star","Top","n",0.766819149,1,766.819149,"Self","Self"
"344",2,1,16,"Female",21,"r","h","Match","Self","EXPERIMENT","Self","Self","Diamond","Circle","Triangle","Star","Top","n",0.800165893,1,800.165893,"Self","Self"
"345",2,1,17,"Female",21,"r","h","Mismatch","They","EXPERIMENT","Self","They","Diamond","Circle","Triangle","Star","Top","m",0.916831329,1,916.831329,"They","Group-Stranger"
"346",2,1,18,"Female",21,"r","h","Match","We","EXPERIMENT","We","We","Diamond","Circle","Triangle","Star","Top","n",0.900176118,1,900.176118,"We","Group-Self"
"347",2,1,19,"Female",21,"r","h","Match","They","EXPERIMENT","They","They","Diamond","Circle","Triangle","Star","Bottom","n",0.916834487,1,916.834487,"They","Group-Stranger"
"348",2,1,20,"Female",21,"r","h","Match","You","EXPERIMENT","You","You","Diamond","Circle","Triangle","Star","Bottom","n",0.58346378,1,583.46378,"You","Stranger"
"349",2,1,21,"Female",21,"r","h","Match","They","EXPERIMENT","They","They","Diamond","Circle","Triangle","Star","Bottom","m",0.783520552,0,783.520552,"They","Group-Stranger"
"350",2,1,22,"Female",21,"r","h","Mismatch","They","EXPERIMENT","We","They","Diamond","Circle","Triangle","Star","Top","m",1.30013806,1,1300.13806,"They","Group-Stranger"
"351",2,1,23,"Female",21,"r","h","Mismatch","Self","EXPERIMENT","They","Self","Diamond","Circle","Triangle","Star","Bottom","m",0.916818301,1,916.818301,"Self","Self"
"352",2,1,24,"Female",21,"r","h","Mismatch","You","EXPERIMENT","They","You","Diamond","Circle","Triangle","Star","Bottom","None",NA,3,NA,"You","Stranger"
"353",2,1,25,"Female",21,"r","h","Mismatch","We","EXPERIMENT","Self","We","Diamond","Circle","Triangle","Star","Bottom","m",1.233448127,1,1233.448127,"We","Group-Self"
"354",2,1,26,"Female",21,"r","h","Match","Self","EXPERIMENT","Self","Self","Diamond","Circle","Triangle","Star","Bottom","n",0.583472861,1,583.472861,"Self","Self"
"355",2,1,27,"Female",21,"r","h","Match","We","EXPERIMENT","We","We","Diamond","Circle","Triangle","Star","Top","n",1.150158254,1,1150.158254,"We","Group-Self"
"356",2,1,28,"Female",21,"r","h","Match","They","EXPERIMENT","They","They","Diamond","Circle","Triangle","Star","Bottom","n",1.216811076,1,1216.811076,"They","Group-Stranger"
"357",2,1,29,"Female",21,"r","h","Match","We","EXPERIMENT","We","We","Diamond","Circle","Triangle","Star","Top","n",1.266824874,1,1266.824874,"We","Group-Self"
"358",2,1,30,"Female",21,"r","h","Mismatch","We","EXPERIMENT","You","We","Diamond","Circle","Triangle","Star","Bottom","m",0.900159931,1,900.159931,"We","Group-Self"
"359",2,1,31,"Female",21,"r","h","Match","Self","EXPERIMENT","Self","Self","Diamond","Circle","Triangle","Star","Top","n",0.700186067,1,700.186067,"Self","Self"
"360",2,1,32,"Female",21,"r","h","Match","You","EXPERIMENT","You","You","Diamond","Circle","Triangle","Star","Top","n",1.166839126,1,1166.839126,"You","Stranger"
"361",2,1,33,"Female",21,"r","h","Mismatch","We","EXPERIMENT","They","We","Diamond","Circle","Triangle","Star","Top","m",1.066861274,1,1066.861274,"We","Group-Self"
"362",2,1,34,"Female",21,"r","h","Mismatch","They","EXPERIMENT","You","They","Diamond","Circle","Triangle","Star","Top","m",0.883491297,1,883.491297,"They","Group-Stranger"
"363",2,1,35,"Female",21,"r","h","Mismatch","Self","EXPERIMENT","You","Self","Diamond","Circle","Triangle","Star","Bottom","m",0.783530027,1,783.530027,"Self","Self"
"364",2,1,36,"Female",21,"r","h","Match","We","EXPERIMENT","We","We","Diamond","Circle","Triangle","Star","Bottom","n",0.83350395,1,833.50395,"We","Group-Self"
"365",2,1,37,"Female",21,"r","h","Mismatch","Self","EXPERIMENT","We","Self","Diamond","Circle","Triangle","Star","Bottom","m",0.75019947,1,750.19947,"Self","Self"
"366",2,1,38,"Female",21,"r","h","Mismatch","They","EXPERIMENT","We","They","Diamond","Circle","Triangle","Star","Bottom","m",1.450071675,1,1450.071675,"They","Group-Stranger"
"367",2,1,39,"Female",21,"r","h","Match","They","EXPERIMENT","They","They","Diamond","Circle","Triangle","Star","Top","n",1.350165676,1,1350.165676,"They","Group-Stranger"
"368",2,1,40,"Female",21,"r","h","Match","They","EXPERIMENT","They","They","Diamond","Circle","Triangle","Star","Top","n",1.483442896,1,1483.442896,"They","Group-Stranger"
"369",2,1,41,"Female",21,"r","h","Match","Self","EXPERIMENT","Self","Self","Diamond","Circle","Triangle","Star","Bottom","n",0.63352219,1,633.52219,"Self","Self"
"370",2,1,42,"Female",21,"r","h","Mismatch","They","EXPERIMENT","We","They","Diamond","Circle","Triangle","Star","Top","m",1.350191338,1,1350.191338,"They","Group-Stranger"
"371",2,1,43,"Female",21,"r","h","Match","You","EXPERIMENT","You","You","Diamond","Circle","Triangle","Star","Bottom","n",1.116835593,1,1116.835593,"You","Stranger"
"372",2,1,44,"Female",21,"r","h","Match","You","EXPERIMENT","You","You","Diamond","Circle","Triangle","Star","Top","n",0.616856714,1,616.856714,"You","Stranger"
"373",2,1,45,"Female",21,"r","h","Mismatch","Self","EXPERIMENT","You","Self","Diamond","Circle","Triangle","Star","Top","m",0.883468794,1,883.468794,"Self","Self"
"374",2,1,46,"Female",21,"r","h","Mismatch","Self","EXPERIMENT","We","Self","Diamond","Circle","Triangle","Star","Bottom","m",1.050155529,1,1050.155529,"Self","Self"
"375",2,1,47,"Female",21,"r","h","Mismatch","They","EXPERIMENT","We","They","Diamond","Circle","Triangle","Star","Bottom","n",0.983445067,0,983.445067,"They","Group-Stranger"
"376",2,1,48,"Female",21,"r","h","Match","You","EXPERIMENT","You","You","Diamond","Circle","Triangle","Star","Bottom","n",0.633511531,1,633.511531,"You","Stranger"
"377",2,1,49,"Female",21,"r","h","Mismatch","Self","EXPERIMENT","They","Self","Diamond","Circle","Triangle","Star","Bottom","m",0.766888239,1,766.888239,"Self","Self"
"378",2,1,50,"Female",21,"r","h","Match","They","EXPERIMENT","They","They","Diamond","Circle","Triangle","Star","Top","m",1.200143232,0,1200.143232,"They","Group-Stranger"
"379",2,1,51,"Female",21,"r","h","Mismatch","You","EXPERIMENT","Self","You","Diamond","Circle","Triangle","Star","Bottom","m",1.266822111,1,1266.822111,"You","Stranger"
"380",2,1,52,"Female",21,"r","h","Mismatch","You","EXPERIMENT","Self","You","Diamond","Circle","Triangle","Star","Top","m",1.116805983,1,1116.805983,"You","Stranger"
"381",2,1,53,"Female",21,"r","h","Mismatch","They","EXPERIMENT","You","They","Diamond","Circle","Triangle","Star","Bottom","m",1.250144001,1,1250.144001,"They","Group-Stranger"
"382",2,1,54,"Female",21,"r","h","Mismatch","We","EXPERIMENT","You","We","Diamond","Circle","Triangle","Star","Bottom","m",0.900164669,1,900.164669,"We","Group-Self"
"383",2,1,55,"Female",21,"r","h","Match","We","EXPERIMENT","We","We","Diamond","Circle","Triangle","Star","Bottom","n",1.416819288,1,1416.819288,"We","Group-Self"
"384",2,1,56,"Female",21,"r","h","Match","They","EXPERIMENT","They","They","Diamond","Circle","Triangle","Star","Bottom","n",1.15014562,1,1150.14562,"They","Group-Stranger"
"385",2,1,57,"Female",21,"r","h","Mismatch","Self","EXPERIMENT","You","Self","Diamond","Circle","Triangle","Star","Bottom","m",0.76692456,1,766.92456,"Self","Self"
"386",2,1,58,"Female",21,"r","h","Mismatch","We","EXPERIMENT","You","We","Diamond","Circle","Triangle","Star","Top","m",1.316817748,1,1316.817748,"We","Group-Self"
"387",2,1,59,"Female",21,"r","h","Match","Self","EXPERIMENT","Self","Self","Diamond","Circle","Triangle","Star","Bottom","n",0.766853892,1,766.853892,"Self","Self"
"388",2,1,60,"Female",21,"r","h","Match","You","EXPERIMENT","You","You","Diamond","Circle","Triangle","Star","Bottom","m",0.9168487,0,916.8487,"You","Stranger"
"389",2,1,61,"Female",21,"r","h","Mismatch","You","EXPERIMENT","Self","You","Diamond","Circle","Triangle","Star","Top","m",0.90016309,1,900.16309,"You","Stranger"
"390",2,1,62,"Female",21,"r","h","Match","You","EXPERIMENT","You","You","Diamond","Circle","Triangle","Star","Top","n",0.883501957,1,883.501957,"You","Stranger"
"391",2,1,63,"Female",21,"r","h","Mismatch","You","EXPERIMENT","Self","You","Diamond","Circle","Triangle","Star","Bottom","m",0.833486185,1,833.486185,"You","Stranger"
"392",2,1,64,"Female",21,"r","h","Mismatch","They","EXPERIMENT","You","They","Diamond","Circle","Triangle","Star","Bottom","m",0.983443883,1,983.443883,"They","Group-Stranger"
"393",2,1,65,"Female",21,"r","h","Match","You","EXPERIMENT","You","You","Diamond","Circle","Triangle","Star","Top","n",0.750158411,1,750.158411,"You","Stranger"
"394",2,1,66,"Female",21,"r","h","Mismatch","You","EXPERIMENT","We","You","Diamond","Circle","Triangle","Star","Top","m",0.883486955,1,883.486955,"You","Stranger"
"395",2,1,67,"Female",21,"r","h","Mismatch","You","EXPERIMENT","They","You","Diamond","Circle","Triangle","Star","Top","m",0.866847535,1,866.847535,"You","Stranger"
"396",2,1,68,"Female",21,"r","h","Mismatch","They","EXPERIMENT","Self","They","Diamond","Circle","Triangle","Star","Bottom","m",1.633463365,1,1633.463365,"They","Group-Stranger"
"397",2,1,69,"Female",21,"r","h","Match","They","EXPERIMENT","They","They","Diamond","Circle","Triangle","Star","Bottom","n",1.183495522,1,1183.495522,"They","Group-Stranger"
"398",2,1,70,"Female",21,"r","h","Match","We","EXPERIMENT","We","We","Diamond","Circle","Triangle","Star","Bottom","m",0.733501226,0,733.501226,"We","Group-Self"
"399",2,1,71,"Female",21,"r","h","Match","You","EXPERIMENT","You","You","Diamond","Circle","Triangle","Star","Top","m",0.76683731,0,766.83731,"You","Stranger"
"400",2,1,72,"Female",21,"r","h","Mismatch","Self","EXPERIMENT","They","Self","Diamond","Circle","Triangle","Star","Top","m",0.833482631,1,833.482631,"Self","Self"
"401",2,1,73,"Female",21,"r","h","Mismatch","Self","EXPERIMENT","We","Self","Diamond","Circle","Triangle","Star","Top","m",0.80016234,1,800.16234,"Self","Self"
"402",2,1,74,"Female",21,"r","h","Mismatch","We","EXPERIMENT","They","We","Diamond","Circle","Triangle","Star","Bottom","n",1.066830085,0,1066.830085,"We","Group-Self"
"403",2,1,75,"Female",21,"r","h","Match","Self","EXPERIMENT","Self","Self","Diamond","Circle","Triangle","Star","Top","n",0.70016988,1,700.16988,"Self","Self"
"404",2,1,76,"Female",21,"r","h","Mismatch","We","EXPERIMENT","They","We","Diamond","Circle","Triangle","Star","Top","m",1.166809516,1,1166.809516,"We","Group-Self"
"405",2,1,77,"Female",21,"r","h","Match","You","EXPERIMENT","You","You","Diamond","Circle","Triangle","Star","Bottom","n",0.85018206,1,850.18206,"You","Stranger"
"406",2,1,78,"Female",21,"r","h","Mismatch","We","EXPERIMENT","They","We","Diamond","Circle","Triangle","Star","Bottom","m",1.06682969,1,1066.82969,"We","Group-Self"
"407",2,1,79,"Female",21,"r","h","Mismatch","We","EXPERIMENT","You","We","Diamond","Circle","Triangle","Star","Top","m",0.716881152,1,716.881152,"We","Group-Self"
"408",2,1,80,"Female",21,"r","h","Mismatch","Self","EXPERIMENT","They","Self","Diamond","Circle","Triangle","Star","Top","m",0.716888258,1,716.888258,"Self","Self"
"409",2,1,81,"Female",21,"r","h","Mismatch","Self","EXPERIMENT","We","Self","Diamond","Circle","Triangle","Star","Top","m",0.866849509,1,866.849509,"Self","Self"
"410",2,1,82,"Female",21,"r","h","Match","We","EXPERIMENT","We","We","Diamond","Circle","Triangle","Star","Top","n",1.183506181,1,1183.506181,"We","Group-Self"
"411",2,1,83,"Female",21,"r","h","Match","You","EXPERIMENT","You","You","Diamond","Circle","Triangle","Star","Top","n",0.950161885,1,950.161885,"You","Stranger"
"412",2,1,84,"Female",21,"r","h","Mismatch","We","EXPERIMENT","Self","We","Diamond","Circle","Triangle","Star","Top","None",NA,3,NA,"We","Group-Self"
"413",2,1,85,"Female",21,"r","h","Match","Self","EXPERIMENT","Self","Self","Diamond","Circle","Triangle","Star","Top","n",0.70017975,1,700.17975,"Self","Self"
"414",2,1,86,"Female",21,"r","h","Match","We","EXPERIMENT","We","We","Diamond","Circle","Triangle","Star","Bottom","n",0.900150851,1,900.150851,"We","Group-Self"
"415",2,1,87,"Female",21,"r","h","Match","They","EXPERIMENT","They","They","Diamond","Circle","Triangle","Star","Top","n",1.01682142,1,1016.82142,"They","Group-Stranger"
"416",2,1,88,"Female",21,"r","h","Match","Self","EXPERIMENT","Self","Self","Diamond","Circle","Triangle","Star","Bottom","n",0.800178131,1,800.178131,"Self","Self"
"417",2,1,89,"Female",21,"r","h","Mismatch","Self","EXPERIMENT","You","Self","Diamond","Circle","Triangle","Star","Top","n",0.66683577,0,666.83577,"Self","Self"
"418",2,1,90,"Female",21,"r","h","Match","We","EXPERIMENT","We","We","Diamond","Circle","Triangle","Star","Top","m",1.200161787,0,1200.161787,"We","Group-Self"
"419",2,1,91,"Female",21,"r","h","Match","Self","EXPERIMENT","Self","Self","Diamond","Circle","Triangle","Star","Top","n",0.650172663,1,650.172663,"Self","Self"
"420",2,1,92,"Female",21,"r","h","Mismatch","You","EXPERIMENT","They","You","Diamond","Circle","Triangle","Star","Bottom","m",1.466819663,1,1466.819663,"You","Stranger"
"421",2,1,93,"Female",21,"r","h","Mismatch","You","EXPERIMENT","We","You","Diamond","Circle","Triangle","Star","Bottom","m",0.833502766,1,833.502766,"You","Stranger"
"422",2,1,94,"Female",21,"r","h","Match","We","EXPERIMENT","We","We","Diamond","Circle","Triangle","Star","Bottom","n",0.900253103,1,900.253103,"We","Group-Self"
"423",2,1,95,"Female",21,"r","h","Mismatch","You","EXPERIMENT","They","You","Diamond","Circle","Triangle","Star","Top","m",1.083495561,1,1083.495561,"You","Stranger"
"424",2,1,96,"Female",21,"r","h","Match","They","EXPERIMENT","They","They","Diamond","Circle","Triangle","Star","Bottom","n",1.000129098,1,1000.129098,"They","Group-Stranger"
"425",2,2,1,"Female",21,"r","h","Match","We","EXPERIMENT","We","We","Diamond","Circle","Triangle","Star","Top","n",1.116790586,1,1116.790586,"We","Group-Self"
"426",2,2,2,"Female",21,"r","h","Mismatch","You","EXPERIMENT","They","You","Diamond","Circle","Triangle","Star","Bottom","n",1.216825289,0,1216.825289,"You","Stranger"
"427",2,2,3,"Female",21,"r","h","Mismatch","Self","EXPERIMENT","We","Self","Diamond","Circle","Triangle","Star","Top","n",0.650184902,0,650.184902,"Self","Self"
"428",2,2,4,"Female",21,"r","h","Match","You","EXPERIMENT","You","You","Diamond","Circle","Triangle","Star","Bottom","m",1.216805549,0,1216.805549,"You","Stranger"
"429",2,2,5,"Female",21,"r","h","Mismatch","Self","EXPERIMENT","They","Self","Diamond","Circle","Triangle","Star","Top","m",0.783501602,1,783.501602,"Self","Self"
"430",2,2,6,"Female",21,"r","h","Match","Self","EXPERIMENT","Self","Self","Diamond","Circle","Triangle","Star","Top","n",0.600171894,1,600.171894,"Self","Self"
"431",2,2,7,"Female",21,"r","h","Mismatch","We","EXPERIMENT","You","We","Diamond","Circle","Triangle","Star","Top","m",0.833490133,1,833.490133,"We","Group-Self"
"432",2,2,8,"Female",21,"r","h","Mismatch","You","EXPERIMENT","We","You","Diamond","Circle","Triangle","Star","Bottom","m",1.100258551,1,1100.258551,"You","Stranger"
"433",2,2,9,"Female",21,"r","h","Mismatch","They","EXPERIMENT","You","They","Diamond","Circle","Triangle","Star","Bottom","m",1.150173651,1,1150.173651,"They","Group-Stranger"
"434",2,2,10,"Female",21,"r","h","Mismatch","We","EXPERIMENT","Self","We","Diamond","Circle","Triangle","Star","Top","n",1.400162103,0,1400.162103,"We","Group-Self"
"435",2,2,11,"Female",21,"r","h","Match","Self","EXPERIMENT","Self","Self","Diamond","Circle","Triangle","Star","Bottom","n",0.683564019,1,683.564019,"Self","Self"
"436",2,2,12,"Female",21,"r","h","Match","They","EXPERIMENT","They","They","Diamond","Circle","Triangle","Star","Bottom","n",1.133465142,1,1133.465142,"They","Group-Stranger"
"437",2,2,13,"Female",21,"r","h","Mismatch","They","EXPERIMENT","Self","They","Diamond","Circle","Triangle","Star","Bottom","m",0.933493646,1,933.493646,"They","Group-Stranger"
"438",2,2,14,"Female",21,"r","h","Mismatch","You","EXPERIMENT","We","You","Diamond","Circle","Triangle","Star","Top","m",1.166871105,1,1166.871105,"You","Stranger"
"439",2,2,15,"Female",21,"r","h","Match","You","EXPERIMENT","You","You","Diamond","Circle","Triangle","Star","Top","n",0.916798956,1,916.798956,"You","Stranger"
"440",2,2,16,"Female",21,"r","h","Match","They","EXPERIMENT","They","They","Diamond","Circle","Triangle","Star","Top","n",1.400162103,1,1400.162103,"They","Group-Stranger"
"441",2,2,17,"Female",21,"r","h","Mismatch","Self","EXPERIMENT","They","Self","Diamond","Circle","Triangle","Star","Bottom","m",1.016807207,1,1016.807207,"Self","Self"
"442",2,2,18,"Female",21,"r","h","Match","We","EXPERIMENT","We","We","Diamond","Circle","Triangle","Star","Bottom","n",0.966841574,1,966.841574,"We","Group-Self"
"443",2,2,19,"Female",21,"r","h","Mismatch","We","EXPERIMENT","Self","We","Diamond","Circle","Triangle","Star","Top","m",1.233498266,1,1233.498266,"We","Group-Self"
"444",2,2,20,"Female",21,"r","h","Mismatch","We","EXPERIMENT","You","We","Diamond","Circle","Triangle","Star","Top","m",0.883495245,1,883.495245,"We","Group-Self"
"445",2,2,21,"Female",21,"r","h","Match","Self","EXPERIMENT","Self","Self","Diamond","Circle","Triangle","Star","Top","n",0.783501207,1,783.501207,"Self","Self"
"446",2,2,22,"Female",21,"r","h","Match","You","EXPERIMENT","You","You","Diamond","Circle","Triangle","Star","Top","n",1.000160287,1,1000.160287,"You","Stranger"
"447",2,2,23,"Female",21,"r","h","Mismatch","We","EXPERIMENT","They","We","Diamond","Circle","Triangle","Star","Top","m",1.500118636,1,1500.118636,"We","Group-Self"
"448",2,2,24,"Female",21,"r","h","Match","They","EXPERIMENT","They","They","Diamond","Circle","Triangle","Star","Bottom","n",1.233491554,1,1233.491554,"They","Group-Stranger"
"449",2,2,25,"Female",21,"r","h","Match","We","EXPERIMENT","We","We","Diamond","Circle","Triangle","Star","Bottom","n",1.083472663,1,1083.472663,"We","Group-Self"
"450",2,2,26,"Female",21,"r","h","Mismatch","Self","EXPERIMENT","We","Self","Diamond","Circle","Triangle","Star","Bottom","m",0.850165084,1,850.165084,"Self","Self"
"451",2,2,27,"Female",21,"r","h","Match","You","EXPERIMENT","You","You","Diamond","Circle","Triangle","Star","Bottom","n",0.800164314,1,800.164314,"You","Stranger"
"452",2,2,28,"Female",21,"r","h","Match","Self","EXPERIMENT","Self","Self","Diamond","Circle","Triangle","Star","Top","n",0.81683887,1,816.83887,"Self","Self"
"453",2,2,29,"Female",21,"r","h","Mismatch","You","EXPERIMENT","They","You","Diamond","Circle","Triangle","Star","Top","m",1.216768438,1,1216.768438,"You","Stranger"
"454",2,2,30,"Female",21,"r","h","Match","Self","EXPERIMENT","Self","Self","Diamond","Circle","Triangle","Star","Top","n",0.633547062,1,633.547062,"Self","Self"
"455",2,2,31,"Female",21,"r","h","Mismatch","You","EXPERIMENT","Self","You","Diamond","Circle","Triangle","Star","Bottom","m",0.983539028,1,983.539028,"You","Stranger"
"456",2,2,32,"Female",21,"r","h","Mismatch","They","EXPERIMENT","You","They","Diamond","Circle","Triangle","Star","Top","m",1.000185554,1,1000.185554,"They","Group-Stranger"
"457",2,2,33,"Female",21,"r","h","Mismatch","They","EXPERIMENT","We","They","Diamond","Circle","Triangle","Star","Top","n",1.333471775,0,1333.471775,"They","Group-Stranger"
"458",2,2,34,"Female",21,"r","h","Match","You","EXPERIMENT","You","You","Diamond","Circle","Triangle","Star","Top","n",0.783485415,1,783.485415,"You","Stranger"
"459",2,2,35,"Female",21,"r","h","Mismatch","We","EXPERIMENT","They","We","Diamond","Circle","Triangle","Star","Bottom","m",1.333495857,1,1333.495857,"We","Group-Self"
"460",2,2,36,"Female",21,"r","h","Mismatch","You","EXPERIMENT","We","You","Diamond","Circle","Triangle","Star","Bottom","n",1.450179454,0,1450.179454,"You","Stranger"
"461",2,2,37,"Female",21,"r","h","Match","We","EXPERIMENT","We","We","Diamond","Circle","Triangle","Star","Top","n",1.183484862,1,1183.484862,"We","Group-Self"
"462",2,2,38,"Female",21,"r","h","Mismatch","We","EXPERIMENT","They","We","Diamond","Circle","Triangle","Star","Bottom","m",1.016813129,1,1016.813129,"We","Group-Self"
"463",2,2,39,"Female",21,"r","h","Mismatch","You","EXPERIMENT","Self","You","Diamond","Circle","Triangle","Star","Top","m",1.183479335,1,1183.479335,"You","Stranger"
"464",2,2,40,"Female",21,"r","h","Match","They","EXPERIMENT","They","They","Diamond","Circle","Triangle","Star","Top","None",NA,3,NA,"They","Group-Stranger"
"465",2,2,41,"Female",21,"r","h","Match","We","EXPERIMENT","We","We","Diamond","Circle","Triangle","Star","Top","n",1.400191318,1,1400.191318,"We","Group-Self"
"466",2,2,42,"Female",21,"r","h","Mismatch","They","EXPERIMENT","We","They","Diamond","Circle","Triangle","Star","Top","m",1.01682142,1,1016.82142,"They","Group-Stranger"
"467",2,2,43,"Female",21,"r","h","Match","You","EXPERIMENT","You","You","Diamond","Circle","Triangle","Star","Top","n",0.983487705,1,983.487705,"You","Stranger"
"468",2,2,44,"Female",21,"r","h","Match","You","EXPERIMENT","You","You","Diamond","Circle","Triangle","Star","Bottom","n",0.866835297,1,866.835297,"You","Stranger"
"469",2,2,45,"Female",21,"r","h","Mismatch","Self","EXPERIMENT","You","Self","Diamond","Circle","Triangle","Star","Top","m",1.016825368,1,1016.825368,"Self","Self"
"470",2,2,46,"Female",21,"r","h","Mismatch","They","EXPERIMENT","We","They","Diamond","Circle","Triangle","Star","Bottom","m",1.416766385,1,1416.766385,"They","Group-Stranger"
"471",2,2,47,"Female",21,"r","h","Match","We","EXPERIMENT","We","We","Diamond","Circle","Triangle","Star","Bottom","n",1.366854839,1,1366.854839,"We","Group-Self"
"472",2,2,48,"Female",21,"r","h","Match","They","EXPERIMENT","They","They","Diamond","Circle","Triangle","Star","Top","n",0.733497673,1,733.497673,"They","Group-Stranger"
"473",2,2,49,"Female",21,"r","h","Match","Self","EXPERIMENT","Self","Self","Diamond","Circle","Triangle","Star","Bottom","n",0.849968081,1,849.968081,"Self","Self"
"474",2,2,50,"Female",21,"r","h","Match","Self","EXPERIMENT","Self","Self","Diamond","Circle","Triangle","Star","Bottom","n",0.583563268,1,583.563268,"Self","Self"
"475",2,2,51,"Female",21,"r","h","Match","They","EXPERIMENT","They","They","Diamond","Circle","Triangle","Star","Bottom","n",0.750148147,1,750.148147,"They","Group-Stranger"
"476",2,2,52,"Female",21,"r","h","Match","They","EXPERIMENT","They","They","Diamond","Circle","Triangle","Star","Top","n",1.150182731,1,1150.182731,"They","Group-Stranger"
"477",2,2,53,"Female",21,"r","h","Mismatch","Self","EXPERIMENT","We","Self","Diamond","Circle","Triangle","Star","Top","m",0.816827026,1,816.827026,"Self","Self"
"478",2,2,54,"Female",21,"r","h","Mismatch","Self","EXPERIMENT","They","Self","Diamond","Circle","Triangle","Star","Bottom","m",0.800174578,1,800.174578,"Self","Self"
"479",2,2,55,"Female",21,"r","h","Mismatch","Self","EXPERIMENT","We","Self","Diamond","Circle","Triangle","Star","Bottom","m",0.966852234,1,966.852234,"Self","Self"
"480",2,2,56,"Female",21,"r","h","Mismatch","You","EXPERIMENT","Self","You","Diamond","Circle","Triangle","Star","Bottom","m",1.016831684,1,1016.831684,"You","Stranger"
"481",2,2,57,"Female",21,"r","h","Mismatch","Self","EXPERIMENT","They","Self","Diamond","Circle","Triangle","Star","Top","m",1.066847062,1,1066.847062,"Self","Self"
"482",2,2,58,"Female",21,"r","h","Mismatch","You","EXPERIMENT","They","You","Diamond","Circle","Triangle","Star","Bottom","m",1.050157898,1,1050.157898,"You","Stranger"
"483",2,2,59,"Female",21,"r","h","Match","Self","EXPERIMENT","Self","Self","Diamond","Circle","Triangle","Star","Bottom","n",0.633509162,1,633.509162,"Self","Self"
"484",2,2,60,"Female",21,"r","h","Mismatch","They","EXPERIMENT","Self","They","Diamond","Circle","Triangle","Star","Top","m",0.966838021,1,966.838021,"They","Group-Stranger"
"485",2,2,61,"Female",21,"r","h","Mismatch","You","EXPERIMENT","We","You","Diamond","Circle","Triangle","Star","Top","m",1.316815774,1,1316.815774,"You","Stranger"
"486",2,2,62,"Female",21,"r","h","Mismatch","Self","EXPERIMENT","You","Self","Diamond","Circle","Triangle","Star","Top","m",0.816829395,1,816.829395,"Self","Self"
"487",2,2,63,"Female",21,"r","h","Match","We","EXPERIMENT","We","We","Diamond","Circle","Triangle","Star","Top","n",1.033534271,1,1033.534271,"We","Group-Self"
"488",2,2,64,"Female",21,"r","h","Mismatch","You","EXPERIMENT","They","You","Diamond","Circle","Triangle","Star","Top","m",1.166819781,1,1166.819781,"You","Stranger"
"489",2,2,65,"Female",21,"r","h","Match","They","EXPERIMENT","They","They","Diamond","Circle","Triangle","Star","Bottom","n",1.033475841,1,1033.475841,"They","Group-Stranger"
"490",2,2,66,"Female",21,"r","h","Mismatch","Self","EXPERIMENT","You","Self","Diamond","Circle","Triangle","Star","Bottom","m",0.783497653,1,783.497653,"Self","Self"
"491",2,2,67,"Female",21,"r","h","Match","You","EXPERIMENT","You","You","Diamond","Circle","Triangle","Star","Bottom","n",0.900176513,1,900.176513,"You","Stranger"
"492",2,2,68,"Female",21,"r","h","Mismatch","They","EXPERIMENT","Self","They","Diamond","Circle","Triangle","Star","Bottom","m",0.933519703,1,933.519703,"They","Group-Stranger"
"493",2,2,69,"Female",21,"r","h","Mismatch","They","EXPERIMENT","You","They","Diamond","Circle","Triangle","Star","Bottom","m",1.000136599,1,1000.136599,"They","Group-Stranger"
"494",2,2,70,"Female",21,"r","h","Match","We","EXPERIMENT","We","We","Diamond","Circle","Triangle","Star","Top","n",1.150185494,1,1150.185494,"We","Group-Self"
"495",2,2,71,"Female",21,"r","h","Match","You","EXPERIMENT","You","You","Diamond","Circle","Triangle","Star","Top","n",0.716960901,1,716.960901,"You","Stranger"
"496",2,2,72,"Female",21,"r","h","Mismatch","They","EXPERIMENT","We","They","Diamond","Circle","Triangle","Star","Bottom","m",1.283461135,1,1283.461135,"They","Group-Stranger"
"497",2,2,73,"Female",21,"r","h","Mismatch","We","EXPERIMENT","They","We","Diamond","Circle","Triangle","Star","Top","m",1.216805944,1,1216.805944,"We","Group-Self"
"498",2,2,74,"Female",21,"r","h","Mismatch","You","EXPERIMENT","Self","You","Diamond","Circle","Triangle","Star","Top","m",0.766818755,1,766.818755,"You","Stranger"
"499",2,2,75,"Female",21,"r","h","Match","You","EXPERIMENT","You","You","Diamond","Circle","Triangle","Star","Bottom","n",0.783482651,1,783.482651,"You","Stranger"
"500",2,2,76,"Female",21,"r","h","Match","Self","EXPERIMENT","Self","Self","Diamond","Circle","Triangle","Star","Bottom","n",0.683562439,1,683.562439,"Self","Self"
"501",2,2,77,"Female",21,"r","h","Mismatch","We","EXPERIMENT","Self","We","Diamond","Circle","Triangle","Star","Bottom","m",1.100156694,1,1100.156694,"We","Group-Self"
"502",2,2,78,"Female",21,"r","h","Mismatch","We","EXPERIMENT","You","We","Diamond","Circle","Triangle","Star","Bottom","m",0.916856991,1,916.856991,"We","Group-Self"
"503",2,2,79,"Female",21,"r","h","Match","They","EXPERIMENT","They","They","Diamond","Circle","Triangle","Star","Bottom","n",1.350111589,1,1350.111589,"They","Group-Stranger"
"504",2,2,80,"Female",21,"r","h","Match","You","EXPERIMENT","You","You","Diamond","Circle","Triangle","Star","Bottom","n",0.633505214,1,633.505214,"You","Stranger"
"505",2,2,81,"Female",21,"r","h","Match","They","EXPERIMENT","They","They","Diamond","Circle","Triangle","Star","Bottom","n",1.000131467,1,1000.131467,"They","Group-Stranger"
"506",2,2,82,"Female",21,"r","h","Match","You","EXPERIMENT","You","You","Diamond","Circle","Triangle","Star","Top","n",0.516785296,1,516.785296,"You","Stranger"
"507",2,2,83,"Female",21,"r","h","Match","Self","EXPERIMENT","Self","Self","Diamond","Circle","Triangle","Star","Top","n",0.766832967,1,766.832967,"Self","Self"
"508",2,2,84,"Female",21,"r","h","Mismatch","They","EXPERIMENT","You","They","Diamond","Circle","Triangle","Star","Top","m",0.916854622,1,916.854622,"They","Group-Stranger"
"509",2,2,85,"Female",21,"r","h","Match","We","EXPERIMENT","We","We","Diamond","Circle","Triangle","Star","Bottom","n",1.066827322,1,1066.827322,"We","Group-Self"
"510",2,2,86,"Female",21,"r","h","Match","Self","EXPERIMENT","Self","Self","Diamond","Circle","Triangle","Star","Bottom","n",0.550146252,1,550.146252,"Self","Self"
"511",2,2,87,"Female",21,"r","h","Mismatch","We","EXPERIMENT","Self","We","Diamond","Circle","Triangle","Star","Bottom","n",0.6168654,0,616.8654,"We","Group-Self"
"512",2,2,88,"Female",21,"r","h","Mismatch","Self","EXPERIMENT","You","Self","Diamond","Circle","Triangle","Star","Bottom","m",1.250153871,1,1250.153871,"Self","Self"
"513",2,2,89,"Female",21,"r","h","Match","We","EXPERIMENT","We","We","Diamond","Circle","Triangle","Star","Bottom","n",1.400102489,1,1400.102489,"We","Group-Self"
"514",2,2,90,"Female",21,"r","h","Mismatch","They","EXPERIMENT","Self","They","Diamond","Circle","Triangle","Star","Top","m",1.00018279,1,1000.18279,"They","Group-Stranger"
"515",2,2,91,"Female",21,"r","h","Match","They","EXPERIMENT","They","They","Diamond","Circle","Triangle","Star","Top","m",0.983584824,0,983.584824,"They","Group-Stranger"
"516",2,2,92,"Female",21,"r","h","Match","We","EXPERIMENT","We","We","Diamond","Circle","Triangle","Star","Top","n",1.283433499,1,1283.433499,"We","Group-Self"
"517",2,2,93,"Female",21,"r","h","Match","They","EXPERIMENT","They","They","Diamond","Circle","Triangle","Star","Top","n",0.950186363,1,950.186363,"They","Group-Stranger"
"518",2,2,94,"Female",21,"r","h","Mismatch","We","EXPERIMENT","You","We","Diamond","Circle","Triangle","Star","Bottom","m",0.750165518,1,750.165518,"We","Group-Self"
"519",2,2,95,"Female",21,"r","h","Match","Self","EXPERIMENT","Self","Self","Diamond","Circle","Triangle","Star","Top","n",0.666846035,1,666.846035,"Self","Self"
"520",2,2,96,"Female",21,"r","h","Match","We","EXPERIMENT","We","We","Diamond","Circle","Triangle","Star","Bottom","n",0.900145719,1,900.145719,"We","Group-Self"
"521",2,3,1,"Female",21,"r","h","Match","We","EXPERIMENT","We","We","Diamond","Circle","Triangle","Star","Bottom","n",1.433414885,1,1433.414885,"We","Group-Self"
"522",2,3,2,"Female",21,"r","h","Match","You","EXPERIMENT","You","You","Diamond","Circle","Triangle","Star","Bottom","n",0.766845601,1,766.845601,"You","Stranger"
"523",2,3,3,"Female",21,"r","h","Mismatch","You","EXPERIMENT","They","You","Diamond","Circle","Triangle","Star","Top","m",0.916837646,1,916.837646,"You","Stranger"
"524",2,3,4,"Female",21,"r","h","Match","Self","EXPERIMENT","Self","Self","Diamond","Circle","Triangle","Star","Top","n",0.666839324,1,666.839324,"Self","Self"
"525",2,3,5,"Female",21,"r","h","Match","Self","EXPERIMENT","Self","Self","Diamond","Circle","Triangle","Star","Top","n",0.566863051,1,566.863051,"Self","Self"
"526",2,3,6,"Female",21,"r","h","Mismatch","You","EXPERIMENT","They","You","Diamond","Circle","Triangle","Star","Top","m",1.150149568,1,1150.149568,"You","Stranger"
"527",2,3,7,"Female",21,"r","h","Match","You","EXPERIMENT","You","You","Diamond","Circle","Triangle","Star","Top","n",0.716821538,1,716.821538,"You","Stranger"
"528",2,3,8,"Female",21,"r","h","Mismatch","Self","EXPERIMENT","We","Self","Diamond","Circle","Triangle","Star","Top","m",0.750182889,1,750.182889,"Self","Self"
"529",2,3,9,"Female",21,"r","h","Mismatch","You","EXPERIMENT","We","You","Diamond","Circle","Triangle","Star","Top","m",0.849947551,1,849.947551,"You","Stranger"
"530",2,3,10,"Female",21,"r","h","Mismatch","Self","EXPERIMENT","You","Self","Diamond","Circle","Triangle","Star","Bottom","m",0.800197082,1,800.197082,"Self","Self"
"531",2,3,11,"Female",21,"r","h","Mismatch","We","EXPERIMENT","You","We","Diamond","Circle","Triangle","Star","Bottom","m",0.900166248,1,900.166248,"We","Group-Self"
"532",2,3,12,"Female",21,"r","h","Match","We","EXPERIMENT","We","We","Diamond","Circle","Triangle","Star","Top","n",0.733511096,1,733.511096,"We","Group-Self"
"533",2,3,13,"Female",21,"r","h","Match","We","EXPERIMENT","We","We","Diamond","Circle","Triangle","Star","Bottom","n",0.966783934,1,966.783934,"We","Group-Self"
"534",2,3,14,"Female",21,"r","h","Match","We","EXPERIMENT","We","We","Diamond","Circle","Triangle","Star","Bottom","n",0.766878764,1,766.878764,"We","Group-Self"
"535",2,3,15,"Female",21,"r","h","Match","You","EXPERIMENT","You","You","Diamond","Circle","Triangle","Star","Top","n",0.850165083,1,850.165083,"You","Stranger"
"536",2,3,16,"Female",21,"r","h","Mismatch","We","EXPERIMENT","You","We","Diamond","Circle","Triangle","Star","Top","m",0.866849509,1,866.849509,"We","Group-Self"
"537",2,3,17,"Female",21,"r","h","Mismatch","You","EXPERIMENT","Self","You","Diamond","Circle","Triangle","Star","Bottom","m",0.983479019,1,983.479019,"You","Stranger"
"538",2,3,18,"Female",21,"r","h","Match","Self","EXPERIMENT","Self","Self","Diamond","Circle","Triangle","Star","Top","n",0.700146587,1,700.146587,"Self","Self"
"539",2,3,19,"Female",21,"r","h","Mismatch","They","EXPERIMENT","We","They","Diamond","Circle","Triangle","Star","Bottom","m",1.166837942,1,1166.837942,"They","Group-Stranger"
"540",2,3,20,"Female",21,"r","h","Match","You","EXPERIMENT","You","You","Diamond","Circle","Triangle","Star","Bottom","n",0.900141376,1,900.141376,"You","Stranger"
"541",2,3,21,"Female",21,"r","h","Match","Self","EXPERIMENT","Self","Self","Diamond","Circle","Triangle","Star","Bottom","n",0.600190054,1,600.190054,"Self","Self"
"542",2,3,22,"Female",21,"r","h","Match","We","EXPERIMENT","We","We","Diamond","Circle","Triangle","Star","Top","n",0.983453752,1,983.453752,"We","Group-Self"
"543",2,3,23,"Female",21,"r","h","Match","You","EXPERIMENT","You","You","Diamond","Circle","Triangle","Star","Bottom","n",0.800172999,1,800.172999,"You","Stranger"
"544",2,3,24,"Female",21,"r","h","Mismatch","Self","EXPERIMENT","They","Self","Diamond","Circle","Triangle","Star","Bottom","m",0.95017373,1,950.17373,"Self","Self"
"545",2,3,25,"Female",21,"r","h","Match","You","EXPERIMENT","You","You","Diamond","Circle","Triangle","Star","Top","n",1.033491238,1,1033.491238,"You","Stranger"
"546",2,3,26,"Female",21,"r","h","Match","Self","EXPERIMENT","Self","Self","Diamond","Circle","Triangle","Star","Top","n",0.583502865,1,583.502865,"Self","Self"
"547",2,3,27,"Female",21,"r","h","Mismatch","Self","EXPERIMENT","You","Self","Diamond","Circle","Triangle","Star","Top","m",1.233561433,1,1233.561433,"Self","Self"
"548",2,3,28,"Female",21,"r","h","Match","Self","EXPERIMENT","Self","Self","Diamond","Circle","Triangle","Star","Top","n",0.616858688,1,616.858688,"Self","Self"
"549",2,3,29,"Female",21,"r","h","Match","They","EXPERIMENT","They","They","Diamond","Circle","Triangle","Star","Bottom","n",1.233487211,1,1233.487211,"They","Group-Stranger"
"550",2,3,30,"Female",21,"r","h","Mismatch","You","EXPERIMENT","Self","You","Diamond","Circle","Triangle","Star","Top","m",1.100170907,1,1100.170907,"You","Stranger"
"551",2,3,31,"Female",21,"r","h","Match","Self","EXPERIMENT","Self","Self","Diamond","Circle","Triangle","Star","Bottom","n",0.51682675,1,516.82675,"Self","Self"
"552",2,3,32,"Female",21,"r","h","Mismatch","Self","EXPERIMENT","We","Self","Diamond","Circle","Triangle","Star","Top","m",0.833537113,1,833.537113,"Self","Self"
"553",2,3,33,"Female",21,"r","h","Mismatch","They","EXPERIMENT","Self","They","Diamond","Circle","Triangle","Star","Top","m",1.150144041,1,1150.144041,"They","Group-Stranger"
"554",2,3,34,"Female",21,"r","h","Match","We","EXPERIMENT","We","We","Diamond","Circle","Triangle","Star","Top","n",0.750155648,1,750.155648,"We","Group-Self"
"555",2,3,35,"Female",21,"r","h","Match","They","EXPERIMENT","They","They","Diamond","Circle","Triangle","Star","Bottom","n",1.083539778,1,1083.539778,"They","Group-Stranger"
"556",2,3,36,"Female",21,"r","h","Match","They","EXPERIMENT","They","They","Diamond","Circle","Triangle","Star","Bottom","n",0.916643407,1,916.643407,"They","Group-Stranger"
"557",2,3,37,"Female",21,"r","h","Mismatch","They","EXPERIMENT","Self","They","Diamond","Circle","Triangle","Star","Bottom","m",1.300158984,1,1300.158984,"They","Group-Stranger"
"558",2,3,38,"Female",21,"r","h","Mismatch","We","EXPERIMENT","You","We","Diamond","Circle","Triangle","Star","Bottom","m",0.850139422,1,850.139422,"We","Group-Self"
"559",2,3,39,"Female",21,"r","h","Match","We","EXPERIMENT","We","We","Diamond","Circle","Triangle","Star","Top","n",0.783473571,1,783.473571,"We","Group-Self"
"560",2,3,40,"Female",21,"r","h","Match","We","EXPERIMENT","We","We","Diamond","Circle","Triangle","Star","Top","n",0.833504346,1,833.504346,"We","Group-Self"
"561",2,3,41,"Female",21,"r","h","Mismatch","You","EXPERIMENT","They","You","Diamond","Circle","Triangle","Star","Bottom","m",1.50012061,1,1500.12061,"You","Stranger"
"562",2,3,42,"Female",21,"r","h","Match","We","EXPERIMENT","We","We","Diamond","Circle","Triangle","Star","Bottom","n",1.266797238,1,1266.797238,"We","Group-Self"
"563",2,3,43,"Female",21,"r","h","Match","You","EXPERIMENT","You","You","Diamond","Circle","Triangle","Star","Top","n",0.700177381,1,700.177381,"You","Stranger"
"564",2,3,44,"Female",21,"r","h","Match","They","EXPERIMENT","They","They","Diamond","Circle","Triangle","Star","Top","n",0.783513051,1,783.513051,"They","Group-Stranger"
"565",2,3,45,"Female",21,"r","h","Match","Self","EXPERIMENT","Self","Self","Diamond","Circle","Triangle","Star","Bottom","n",0.766821913,1,766.821913,"Self","Self"
"566",2,3,46,"Female",21,"r","h","Mismatch","They","EXPERIMENT","You","They","Diamond","Circle","Triangle","Star","Bottom","m",0.916835277,1,916.835277,"They","Group-Stranger"
"567",2,3,47,"Female",21,"r","h","Match","They","EXPERIMENT","They","They","Diamond","Circle","Triangle","Star","Bottom","n",0.783489758,1,783.489758,"They","Group-Stranger"
"568",2,3,48,"Female",21,"r","h","Match","We","EXPERIMENT","We","We","Diamond","Circle","Triangle","Star","Bottom","n",0.750151305,1,750.151305,"We","Group-Self"
"569",2,3,49,"Female",21,"r","h","Match","They","EXPERIMENT","They","They","Diamond","Circle","Triangle","Star","Bottom","n",0.683588891,1,683.588891,"They","Group-Stranger"
"570",2,3,50,"Female",21,"r","h","Mismatch","You","EXPERIMENT","Self","You","Diamond","Circle","Triangle","Star","Bottom","m",0.883475111,1,883.475111,"You","Stranger"
"571",2,3,51,"Female",21,"r","h","Mismatch","We","EXPERIMENT","Self","We","Diamond","Circle","Triangle","Star","Top","m",1.016842344,1,1016.842344,"We","Group-Self"
"572",2,3,52,"Female",21,"r","h","Match","You","EXPERIMENT","You","You","Diamond","Circle","Triangle","Star","Bottom","n",1.283476927,1,1283.476927,"You","Stranger"
"573",2,3,53,"Female",21,"r","h","Match","They","EXPERIMENT","They","They","Diamond","Circle","Triangle","Star","Bottom","n",0.800164708,1,800.164708,"They","Group-Stranger"
"574",2,3,54,"Female",21,"r","h","Mismatch","They","EXPERIMENT","You","They","Diamond","Circle","Triangle","Star","Top","m",0.983494811,1,983.494811,"They","Group-Stranger"
"575",2,3,55,"Female",21,"r","h","Match","You","EXPERIMENT","You","You","Diamond","Circle","Triangle","Star","Bottom","n",0.933507859,1,933.507859,"You","Stranger"
"576",2,3,56,"Female",21,"r","h","Mismatch","They","EXPERIMENT","Self","They","Diamond","Circle","Triangle","Star","Top","m",0.833509872,1,833.509872,"They","Group-Stranger"
"577",2,3,57,"Female",21,"r","h","Mismatch","You","EXPERIMENT","We","You","Diamond","Circle","Triangle","Star","Top","m",0.850195088,1,850.195088,"You","Stranger"
"578",2,3,58,"Female",21,"r","h","Mismatch","We","EXPERIMENT","Self","We","Diamond","Circle","Triangle","Star","Bottom","m",0.83349645,1,833.49645,"We","Group-Self"
"579",2,3,59,"Female",21,"r","h","Mismatch","Self","EXPERIMENT","We","Self","Diamond","Circle","Triangle","Star","Bottom","m",0.75019039,1,750.19039,"Self","Self"
"580",2,3,60,"Female",21,"r","h","Mismatch","We","EXPERIMENT","They","We","Diamond","Circle","Triangle","Star","Bottom","m",0.883490113,1,883.490113,"We","Group-Self"
"581",2,3,61,"Female",21,"r","h","Mismatch","You","EXPERIMENT","We","You","Diamond","Circle","Triangle","Star","Bottom","m",0.96681157,1,966.81157,"You","Stranger"
"582",2,3,62,"Female",21,"r","h","Match","You","EXPERIMENT","You","You","Diamond","Circle","Triangle","Star","Top","n",0.850149686,1,850.149686,"You","Stranger"
"583",2,3,63,"Female",21,"r","h","Mismatch","Self","EXPERIMENT","They","Self","Diamond","Circle","Triangle","Star","Top","m",0.816616995,1,816.616995,"Self","Self"
"584",2,3,64,"Female",21,"r","h","Mismatch","Self","EXPERIMENT","They","Self","Diamond","Circle","Triangle","Star","Top","m",0.716859833,1,716.859833,"Self","Self"
"585",2,3,65,"Female",21,"r","h","Mismatch","They","EXPERIMENT","You","They","Diamond","Circle","Triangle","Star","Top","m",0.816832158,1,816.832158,"They","Group-Stranger"
"586",2,3,66,"Female",21,"r","h","Mismatch","We","EXPERIMENT","They","We","Diamond","Circle","Triangle","Star","Bottom","m",1.183482888,1,1183.482888,"We","Group-Self"
"587",2,3,67,"Female",21,"r","h","Mismatch","They","EXPERIMENT","You","They","Diamond","Circle","Triangle","Star","Bottom","m",0.866826216,1,866.826216,"They","Group-Stranger"
"588",2,3,68,"Female",21,"r","h","Mismatch","Self","EXPERIMENT","You","Self","Diamond","Circle","Triangle","Star","Bottom","m",0.733491356,1,733.491356,"Self","Self"
"589",2,3,69,"Female",21,"r","h","Mismatch","We","EXPERIMENT","They","We","Diamond","Circle","Triangle","Star","Top","n",0.766850733,0,766.850733,"We","Group-Self"
"590",2,3,70,"Female",21,"r","h","Mismatch","You","EXPERIMENT","Self","You","Diamond","Circle","Triangle","Star","Top","m",0.783469228,1,783.469228,"You","Stranger"
"591",2,3,71,"Female",21,"r","h","Mismatch","We","EXPERIMENT","They","We","Diamond","Circle","Triangle","Star","Top","m",1.033471893,1,1033.471893,"We","Group-Self"
"592",2,3,72,"Female",21,"r","h","Match","We","EXPERIMENT","We","We","Diamond","Circle","Triangle","Star","Bottom","n",0.783473176,1,783.473176,"We","Group-Self"
"593",2,3,73,"Female",21,"r","h","Match","Self","EXPERIMENT","Self","Self","Diamond","Circle","Triangle","Star","Bottom","n",0.616862636,1,616.862636,"Self","Self"
"594",2,3,74,"Female",21,"r","h","Mismatch","You","EXPERIMENT","They","You","Diamond","Circle","Triangle","Star","Bottom","m",1.550121774,1,1550.121774,"You","Stranger"
"595",2,3,75,"Female",21,"r","h","Match","Self","EXPERIMENT","Self","Self","Diamond","Circle","Triangle","Star","Bottom","n",0.650203457,1,650.203457,"Self","Self"
"596",2,3,76,"Female",21,"r","h","Match","They","EXPERIMENT","They","They","Diamond","Circle","Triangle","Star","Top","n",1.116905077,1,1116.905077,"They","Group-Stranger"
"597",2,3,77,"Female",21,"r","h","Mismatch","We","EXPERIMENT","Self","We","Diamond","Circle","Triangle","Star","Top","m",1.083435947,1,1083.435947,"We","Group-Self"
"598",2,3,78,"Female",21,"r","h","Mismatch","They","EXPERIMENT","Self","They","Diamond","Circle","Triangle","Star","Bottom","m",1.00018358,1,1000.18358,"They","Group-Stranger"
"599",2,3,79,"Female",21,"r","h","Mismatch","Self","EXPERIMENT","You","Self","Diamond","Circle","Triangle","Star","Top","m",0.833533165,1,833.533165,"Self","Self"
"600",2,3,80,"Female",21,"r","h","Match","Self","EXPERIMENT","Self","Self","Diamond","Circle","Triangle","Star","Bottom","n",0.733488988,1,733.488988,"Self","Self"
"601",2,3,81,"Female",21,"r","h","Mismatch","Self","EXPERIMENT","They","Self","Diamond","Circle","Triangle","Star","Bottom","m",0.900177302,1,900.177302,"Self","Self"
"602",2,3,82,"Female",21,"r","h","Match","We","EXPERIMENT","We","We","Diamond","Circle","Triangle","Star","Top","n",0.883520907,1,883.520907,"We","Group-Self"
"603",2,3,83,"Female",21,"r","h","Match","They","EXPERIMENT","They","They","Diamond","Circle","Triangle","Star","Top","n",0.883512221,1,883.512221,"They","Group-Stranger"
"604",2,3,84,"Female",21,"r","h","Match","You","EXPERIMENT","You","You","Diamond","Circle","Triangle","Star","Top","n",0.716840488,1,716.840488,"You","Stranger"
