"Subject","Block","Bin","Trial","Age","Gender","Handedness","Shape","Label","Matching","Origin_Identity","English_Identity","Standarlized_Identity","Morality","Response","RT_ms","RT_sec","ACC"
7302,1,1,1,22,"female","R","immoralSelf","immoralOther","Nonmatching","Self","Self","Self","Bad","m",756.1,0.7561,0
7302,1,1,2,22,"female","R","moralOther","moralSelf","Nonmatching","Other","Other","Stranger","Good","n",704.3,0.7043,1
7302,1,1,3,22,"female","R","immoralOther","moralOther","Nonmatching","Other","Other","Stranger","Bad","n",990.3,0.9903,1
7302,1,1,4,22,"female","R","moralSelf","immoralSelf","Nonmatching","Self","Self","Self","Good",NA,1042,1.042,-1
7302,1,1,5,22,"female","R","immoralSelf","immoralSelf","Matching","Self","Self","Self","Bad","m",820.7,0.8207,1
7302,1,1,6,22,"female","R","immoralSelf","immoralSelf","Matching","Self","Self","Self","Bad","m",754.7,0.7547,1
7302,1,1,7,22,"female","R","moralOther","moralOther","Matching","Other","Other","Stranger","Good","m",542.9,0.5429,1
7302,1,1,8,22,"female","R","moralSelf","moralSelf","Matching","Self","Self","Self","Good","m",900.9,0.9009,1
7302,1,1,9,22,"female","R","moralOther","immoralSelf","Nonmatching","Other","Other","Stranger","Good","n",955.1,0.9551,1
7302,1,1,10,22,"female","R","immoralSelf","moralOther","Nonmatching","Self","Self","Self","Bad","n",695.2,0.6952,1
7302,1,1,11,22,"female","R","moralOther","moralSelf","Nonmatching","Other","Other","Stranger","Good","n",759.3,0.7593,1
7302,1,1,12,22,"female","R","immoralOther","immoralOther","Matching","Other","Other","Stranger","Bad","m",713.5,0.7135,1
7302,1,1,13,22,"female","R","moralOther","moralOther","Matching","Other","Other","Stranger","Good","m",565.6,0.5656,1
7302,1,1,14,22,"female","R","moralSelf","immoralSelf","Nonmatching","Self","Self","Self","Good","m",535.7,0.5357,0
7302,1,1,15,22,"female","R","immoralOther","immoralOther","Matching","Other","Other","Stranger","Bad","m",807.8,0.8078,1
7302,1,1,16,22,"female","R","immoralSelf","moralSelf","Nonmatching","Self","Self","Self","Bad","n",960,0.96,1
7302,1,1,17,22,"female","R","moralSelf","immoralSelf","Nonmatching","Self","Self","Self","Good","n",666.1,0.6661,1
7302,1,1,18,22,"female","R","moralSelf","moralSelf","Matching","Self","Self","Self","Good","m",696.2,0.6962,1
7302,1,1,19,22,"female","R","immoralSelf","immoralSelf","Matching","Self","Self","Self","Bad","n",880.3,0.8803,0
7302,1,1,20,22,"female","R","moralOther","moralOther","Matching","Other","Other","Stranger","Good","m",578.5,0.5785,1
7302,1,1,21,22,"female","R","immoralOther","moralOther","Nonmatching","Other","Other","Stranger","Bad","n",784.5,0.7845,1
7302,1,1,22,22,"female","R","moralSelf","moralSelf","Matching","Self","Self","Self","Good","m",814.6,0.8146,1
7302,1,1,23,22,"female","R","immoralOther","immoralOther","Matching","Other","Other","Stranger","Bad","m",654.8,0.6548,1
7302,1,1,24,22,"female","R","immoralOther","moralOther","Nonmatching","Other","Other","Stranger","Bad","n",878.9,0.8789,1
7302,1,2,1,22,"female","R","moralSelf","moralSelf","Matching","Self","Self","Self","Good","m",713.1,0.7131,1
7302,1,2,2,22,"female","R","moralSelf","immoralSelf","Nonmatching","Self","Self","Self","Good","m",821.1,0.8211,0
7302,1,2,3,22,"female","R","immoralOther","immoralOther","Matching","Other","Other","Stranger","Bad","m",803.3,0.8033,1
7302,1,2,4,22,"female","R","immoralOther","immoralSelf","Nonmatching","Other","Other","Stranger","Bad","m",629.4,0.6294,0
7302,1,2,5,22,"female","R","immoralSelf","immoralOther","Nonmatching","Self","Self","Self","Bad","n",809.5,0.8095,1
7302,1,2,6,22,"female","R","immoralOther","immoralOther","Matching","Other","Other","Stranger","Bad","m",617.6,0.6176,1
7302,1,2,7,22,"female","R","moralSelf","moralSelf","Matching","Self","Self","Self","Good","m",791.7,0.7917,1
7302,1,2,8,22,"female","R","moralOther","moralOther","Matching","Other","Other","Stranger","Good","m",555.9,0.5559,1
7302,1,2,9,22,"female","R","immoralSelf","immoralOther","Nonmatching","Self","Self","Self","Bad","m",960,0.96,0
7302,1,2,10,22,"female","R","moralOther","moralOther","Matching","Other","Other","Stranger","Good","m",538.1,0.5381,1
7302,1,2,11,22,"female","R","immoralSelf","moralSelf","Nonmatching","Self","Self","Self","Bad",NA,1042,1.042,-1
7302,1,2,12,22,"female","R","moralSelf","immoralSelf","Nonmatching","Self","Self","Self","Good","m",826.4,0.8264,0
7302,1,2,13,22,"female","R","immoralSelf","immoralSelf","Matching","Self","Self","Self","Bad","m",712.5,0.7125,1
7302,1,2,14,22,"female","R","moralOther","immoralOther","Nonmatching","Other","Other","Stranger","Good","m",460.9,0.4609,0
7302,1,2,15,22,"female","R","moralOther","immoralOther","Nonmatching","Other","Other","Stranger","Good","n",802.7,0.8027,1
7302,1,2,16,22,"female","R","immoralSelf","immoralSelf","Matching","Self","Self","Self","Bad","m",780.8,0.7808,1
7302,1,2,17,22,"female","R","moralOther","immoralOther","Nonmatching","Other","Other","Stranger","Good","n",874.9,0.8749,1
7302,1,2,18,22,"female","R","moralSelf","immoralOther","Nonmatching","Self","Self","Self","Good","m",871,0.871,0
7302,1,2,19,22,"female","R","moralSelf","moralSelf","Matching","Self","Self","Self","Good","m",651.2,0.6512,1
7302,1,2,20,22,"female","R","immoralOther","moralOther","Nonmatching","Other","Other","Stranger","Bad","n",755.4,0.7554,1
7302,1,2,21,22,"female","R","immoralOther","immoralOther","Matching","Other","Other","Stranger","Bad","m",671.5,0.6715,1
7302,1,2,22,22,"female","R","immoralSelf","immoralSelf","Matching","Self","Self","Self","Bad","m",907.6,0.9076,1
7302,1,2,23,22,"female","R","immoralOther","moralOther","Nonmatching","Other","Other","Stranger","Bad","n",599.7,0.5997,1
7302,1,2,24,22,"female","R","moralOther","moralOther","Matching","Other","Other","Stranger","Good","m",521.8,0.5218,1
7302,1,3,1,22,"female","R","immoralOther","immoralOther","Matching","Other","Other","Stranger","Bad","m",731.9,0.7319,1
7302,1,3,2,22,"female","R","moralOther","immoralOther","Nonmatching","Other","Other","Stranger","Good","n",764,0.764,1
7302,1,3,3,22,"female","R","moralSelf","moralOther","Nonmatching","Self","Self","Self","Good",NA,1042,1.042,-1
7302,1,3,4,22,"female","R","immoralSelf","moralSelf","Nonmatching","Self","Self","Self","Bad","n",744.3,0.7443,1
7302,1,3,5,22,"female","R","moralOther","moralOther","Matching","Other","Other","Stranger","Good","m",510.4,0.5104,1
7302,1,3,6,22,"female","R","moralOther","moralOther","Matching","Other","Other","Stranger","Good","m",770.6,0.7706,1
7302,1,3,7,22,"female","R","immoralOther","immoralSelf","Nonmatching","Other","Other","Stranger","Bad","n",602.6,0.6026,1
7302,1,3,8,22,"female","R","moralSelf","immoralOther","Nonmatching","Self","Self","Self","Good","n",764.8,0.7648,1
7302,1,3,9,22,"female","R","immoralOther","immoralOther","Matching","Other","Other","Stranger","Bad","m",710.9,0.7109,1
7302,1,3,10,22,"female","R","moralSelf","moralOther","Nonmatching","Self","Self","Self","Good","n",827,0.827,1
7302,1,3,11,22,"female","R","immoralSelf","immoralSelf","Matching","Self","Self","Self","Bad","m",857.1,0.8571,1
7302,1,3,12,22,"female","R","moralSelf","moralSelf","Matching","Self","Self","Self","Good","n",809.2,0.8092,0
7302,1,3,13,22,"female","R","immoralSelf","immoralSelf","Matching","Self","Self","Self","Bad","m",721.3,0.7213,1
7302,1,3,14,22,"female","R","immoralOther","immoralSelf","Nonmatching","Other","Other","Stranger","Bad","n",819.5,0.8195,1
7302,1,3,15,22,"female","R","immoralSelf","moralSelf","Nonmatching","Self","Self","Self","Bad","n",889.6,0.8896,1
7302,1,3,16,22,"female","R","moralOther","moralOther","Matching","Other","Other","Stranger","Good","m",577.8,0.5778,1
7302,1,3,17,22,"female","R","immoralSelf","immoralSelf","Matching","Self","Self","Self","Bad","n",879.9,0.8799,0
7302,1,3,18,22,"female","R","moralOther","moralSelf","Nonmatching","Other","Other","Stranger","Good","n",666,0.666,1
7302,1,3,19,22,"female","R","immoralSelf","moralSelf","Nonmatching","Self","Self","Self","Bad","n",1008.1,1.0081,1
7302,1,3,20,22,"female","R","immoralOther","immoralSelf","Nonmatching","Other","Other","Stranger","Bad","n",856.2,0.8562,1
7302,1,3,21,22,"female","R","moralOther","moralSelf","Nonmatching","Other","Other","Stranger","Good","n",544.4,0.5444,1
7302,1,3,22,22,"female","R","moralSelf","moralSelf","Matching","Self","Self","Self","Good","m",662.5,0.6625,1
7302,1,3,23,22,"female","R","immoralOther","immoralOther","Matching","Other","Other","Stranger","Bad","n",684.6,0.6846,0
7302,1,3,24,22,"female","R","moralSelf","moralSelf","Matching","Self","Self","Self","Good","m",902.7,0.9027,1
7302,1,4,1,22,"female","R","immoralSelf","immoralSelf","Matching","Self","Self","Self","Bad","m",823.6,0.8236,1
7302,1,4,2,22,"female","R","moralOther","immoralOther","Nonmatching","Other","Other","Stranger","Good","n",613.7,0.6137,1
7302,1,4,3,22,"female","R","moralSelf","moralOther","Nonmatching","Self","Self","Self","Good","m",733.8,0.7338,0
7302,1,4,4,22,"female","R","moralSelf","moralSelf","Matching","Self","Self","Self","Good","n",741.9,0.7419,0
7302,1,4,5,22,"female","R","immoralOther","immoralOther","Matching","Other","Other","Stranger","Bad","m",684,0.684,1
7302,1,4,6,22,"female","R","immoralOther","immoralOther","Matching","Other","Other","Stranger","Bad","m",606.2,0.6062,1
7302,1,4,7,22,"female","R","immoralSelf","moralOther","Nonmatching","Self","Self","Self","Bad","n",784.2,0.7842,1
7302,1,4,8,22,"female","R","moralOther","moralOther","Matching","Other","Other","Stranger","Good","m",582.4,0.5824,1
7302,1,4,9,22,"female","R","moralOther","moralOther","Matching","Other","Other","Stranger","Good","m",412.6,0.4126,1
7302,1,4,10,22,"female","R","moralSelf","moralSelf","Matching","Self","Self","Self","Good","m",500.6,0.5006,1
7302,1,4,11,22,"female","R","immoralSelf","moralSelf","Nonmatching","Self","Self","Self","Bad","n",850.7,0.8507,1
7302,1,4,12,22,"female","R","moralSelf","moralOther","Nonmatching","Self","Self","Self","Good","n",906.9,0.9069,1
7302,1,4,13,22,"female","R","moralOther","moralSelf","Nonmatching","Other","Other","Stranger","Good","n",721,0.721,1
7302,1,4,14,22,"female","R","immoralOther","moralSelf","Nonmatching","Other","Other","Stranger","Bad","n",635.1,0.6351,1
7302,1,4,15,22,"female","R","immoralOther","moralOther","Nonmatching","Other","Other","Stranger","Bad","n",855.3,0.8553,1
7302,1,4,16,22,"female","R","immoralSelf","moralOther","Nonmatching","Self","Self","Self","Bad","n",719.4,0.7194,1
7302,1,4,17,22,"female","R","moralSelf","moralOther","Nonmatching","Self","Self","Self","Good","m",521.4,0.5214,0
7302,1,4,18,22,"female","R","moralSelf","moralSelf","Matching","Self","Self","Self","Good","m",659.7,0.6597,1
7302,1,4,19,22,"female","R","immoralSelf","immoralSelf","Matching","Self","Self","Self","Bad","m",809.7,0.8097,1
7302,1,4,20,22,"female","R","immoralOther","moralOther","Nonmatching","Other","Other","Stranger","Bad","n",673.8,0.6738,1
7302,1,4,21,22,"female","R","moralOther","moralOther","Matching","Other","Other","Stranger","Good","m",534,0.534,1
7302,1,4,22,22,"female","R","moralOther","immoralSelf","Nonmatching","Other","Other","Stranger","Good","n",614.1,0.6141,1
7302,1,4,23,22,"female","R","immoralOther","immoralOther","Matching","Other","Other","Stranger","Bad","m",646.2,0.6462,1
7302,1,4,24,22,"female","R","immoralSelf","immoralSelf","Matching","Self","Self","Self","Bad","m",776.3,0.7763,1
7302,1,5,1,22,"female","R","moralOther","immoralSelf","Nonmatching","Other","Other","Stranger","Good","n",696.4,0.6964,1
7302,1,5,2,22,"female","R","moralOther","moralOther","Matching","Other","Other","Stranger","Good","n",880.5,0.8805,0
7302,1,5,3,22,"female","R","immoralOther","immoralOther","Matching","Other","Other","Stranger","Bad","m",554.6,0.5546,1
7302,1,5,4,22,"female","R","moralSelf","moralSelf","Matching","Self","Self","Self","Good","m",974.7,0.9747,1
7302,1,5,5,22,"female","R","immoralSelf","immoralSelf","Matching","Self","Self","Self","Bad","m",614.9,0.6149,1
7302,1,5,6,22,"female","R","moralOther","moralOther","Matching","Other","Other","Stranger","Good","m",615,0.615,1
7302,1,5,7,22,"female","R","immoralOther","immoralSelf","Nonmatching","Other","Other","Stranger","Bad","m",655.2,0.6552,0
7302,1,5,8,22,"female","R","immoralOther","immoralOther","Matching","Other","Other","Stranger","Bad","m",655.2,0.6552,1
7302,1,5,9,22,"female","R","immoralOther","moralSelf","Nonmatching","Other","Other","Stranger","Bad","n",599.4,0.5994,1
7302,1,5,10,22,"female","R","moralSelf","immoralSelf","Nonmatching","Self","Self","Self","Good","m",649.5,0.6495,0
7302,1,5,11,22,"female","R","moralOther","immoralOther","Nonmatching","Other","Other","Stranger","Good","n",673.6,0.6736,1
7302,1,5,12,22,"female","R","immoralOther","moralSelf","Nonmatching","Other","Other","Stranger","Bad","n",773.7,0.7737,1
7302,1,5,13,22,"female","R","immoralSelf","moralOther","Nonmatching","Self","Self","Self","Bad","n",733.8,0.7338,1
7302,1,5,14,22,"female","R","moralSelf","immoralOther","Nonmatching","Self","Self","Self","Good","n",734,0.734,1
7302,1,5,15,22,"female","R","immoralSelf","immoralSelf","Matching","Self","Self","Self","Bad","m",622.1,0.6221,1
7302,1,5,16,22,"female","R","immoralSelf","immoralSelf","Matching","Self","Self","Self","Bad","m",548.2,0.5482,1
7302,1,5,17,22,"female","R","immoralSelf","moralOther","Nonmatching","Self","Self","Self","Bad","n",592.3,0.5923,1
7302,1,5,18,22,"female","R","moralOther","immoralOther","Nonmatching","Other","Other","Stranger","Good","n",644.5,0.6445,1
7302,1,5,19,22,"female","R","immoralSelf","immoralOther","Nonmatching","Self","Self","Self","Bad","n",438.5,0.4385,1
7302,1,5,20,22,"female","R","immoralOther","immoralOther","Matching","Other","Other","Stranger","Bad","m",776.6,0.7766,1
7302,1,5,21,22,"female","R","moralSelf","moralSelf","Matching","Self","Self","Self","Good","m",752.7,0.7527,1
7302,1,5,22,22,"female","R","moralSelf","moralSelf","Matching","Self","Self","Self","Good","m",516.9,0.5169,1
7302,1,5,23,22,"female","R","moralOther","moralOther","Matching","Other","Other","Stranger","Good","m",657,0.657,1
7302,1,5,24,22,"female","R","moralSelf","moralOther","Nonmatching","Self","Self","Self","Good","n",809.1,0.8091,1
7302,2,1,1,22,"female","R","moralOther","moralOther","Matching","Other","Other","Stranger","Good","m",723.3,0.7233,1
7302,2,1,2,22,"female","R","moralOther","immoralSelf","Nonmatching","Other","Other","Stranger","Good","n",917.5,0.9175,1
7302,2,1,3,22,"female","R","immoralSelf","moralOther","Nonmatching","Self","Self","Self","Bad","n",703.6,0.7036,1
7302,2,1,4,22,"female","R","immoralOther","moralOther","Nonmatching","Other","Other","Stranger","Bad","n",677.7,0.6777,1
7302,2,1,5,22,"female","R","immoralSelf","moralOther","Nonmatching","Self","Self","Self","Bad","n",727.8,0.7278,1
7302,2,1,6,22,"female","R","moralOther","immoralSelf","Nonmatching","Other","Other","Stranger","Good","n",696,0.696,1
7302,2,1,7,22,"female","R","immoralOther","moralSelf","Nonmatching","Other","Other","Stranger","Bad","n",840.1,0.8401,1
7302,2,1,8,22,"female","R","immoralSelf","moralSelf","Nonmatching","Self","Self","Self","Bad","n",754.3,0.7543,1
7302,2,1,9,22,"female","R","moralSelf","moralSelf","Matching","Self","Self","Self","Good","m",630.4,0.6304,1
7302,2,1,10,22,"female","R","moralOther","moralOther","Matching","Other","Other","Stranger","Good","m",522.4,0.5224,1
7302,2,1,11,22,"female","R","immoralSelf","immoralSelf","Matching","Self","Self","Self","Bad","n",644.6,0.6446,0
7302,2,1,12,22,"female","R","moralSelf","moralOther","Nonmatching","Self","Self","Self","Good","n",886.7,0.8867,1
7302,2,1,13,22,"female","R","immoralOther","immoralOther","Matching","Other","Other","Stranger","Bad","m",704.8,0.7048,1
7302,2,1,14,22,"female","R","immoralSelf","immoralSelf","Matching","Self","Self","Self","Bad","n",703,0.703,0
7302,2,1,15,22,"female","R","moralOther","moralSelf","Nonmatching","Other","Other","Stranger","Good","n",669,0.669,1
7302,2,1,16,22,"female","R","immoralSelf","immoralSelf","Matching","Self","Self","Self","Bad","m",617.2,0.6172,1
7302,2,1,17,22,"female","R","moralOther","moralOther","Matching","Other","Other","Stranger","Good","m",623.3,0.6233,1
7302,2,1,18,22,"female","R","immoralOther","immoralOther","Matching","Other","Other","Stranger","Bad","m",573.5,0.5735,1
7302,2,1,19,22,"female","R","moralSelf","moralSelf","Matching","Self","Self","Self","Good","m",693.6,0.6936,1
7302,2,1,20,22,"female","R","moralSelf","immoralSelf","Nonmatching","Self","Self","Self","Good","m",1013.6,1.0136,0
7302,2,1,21,22,"female","R","immoralOther","immoralSelf","Nonmatching","Other","Other","Stranger","Bad","n",821.8,0.8218,1
7302,2,1,22,22,"female","R","immoralOther","immoralOther","Matching","Other","Other","Stranger","Bad","m",643.9,0.6439,1
7302,2,1,23,22,"female","R","moralSelf","moralOther","Nonmatching","Self","Self","Self","Good","m",710,0.71,0
7302,2,1,24,22,"female","R","moralSelf","moralSelf","Matching","Self","Self","Self","Good","m",914.1,0.9141,1
7302,2,2,1,22,"female","R","immoralOther","moralSelf","Nonmatching","Other","Other","Stranger","Bad","n",734.3,0.7343,1
7302,2,2,2,22,"female","R","moralSelf","immoralOther","Nonmatching","Self","Self","Self","Good","n",646.4,0.6464,1
7302,2,2,3,22,"female","R","moralOther","immoralOther","Nonmatching","Other","Other","Stranger","Good","m",576.5,0.5765,0
7302,2,2,4,22,"female","R","moralSelf","moralSelf","Matching","Self","Self","Self","Good","m",656.6,0.6566,1
7302,2,2,5,22,"female","R","immoralSelf","immoralSelf","Matching","Self","Self","Self","Bad","m",808.9,0.8089,1
7302,2,2,6,22,"female","R","immoralOther","immoralOther","Matching","Other","Other","Stranger","Bad","m",624.8,0.6248,1
7302,2,2,7,22,"female","R","moralSelf","moralSelf","Matching","Self","Self","Self","Good","m",710.9,0.7109,1
7302,2,2,8,22,"female","R","moralOther","moralOther","Matching","Other","Other","Stranger","Good","m",619.1,0.6191,1
7302,2,2,9,22,"female","R","moralOther","moralOther","Matching","Other","Other","Stranger","Good","m",417.1,0.4171,1
7302,2,2,10,22,"female","R","moralOther","moralOther","Matching","Other","Other","Stranger","Good","m",433.3,0.4333,1
7302,2,2,11,22,"female","R","immoralSelf","immoralOther","Nonmatching","Self","Self","Self","Bad","n",693.4,0.6934,1
7302,2,2,12,22,"female","R","moralOther","moralSelf","Nonmatching","Other","Other","Stranger","Good","n",701.5,0.7015,1
7302,2,2,13,22,"female","R","immoralOther","immoralOther","Matching","Other","Other","Stranger","Bad","m",571.7,0.5717,1
7302,2,2,14,22,"female","R","immoralOther","moralOther","Nonmatching","Other","Other","Stranger","Bad","n",955.7,0.9557,1
7302,2,2,15,22,"female","R","moralSelf","moralOther","Nonmatching","Self","Self","Self","Good","n",783.8,0.7838,1
7302,2,2,16,22,"female","R","immoralSelf","moralSelf","Nonmatching","Self","Self","Self","Bad","n",854,0.854,1
7302,2,2,17,22,"female","R","immoralSelf","immoralSelf","Matching","Self","Self","Self","Bad","n",950.1,0.9501,0
7302,2,2,18,22,"female","R","moralSelf","immoralOther","Nonmatching","Self","Self","Self","Good","n",706.2,0.7062,1
7302,2,2,19,22,"female","R","immoralSelf","immoralSelf","Matching","Self","Self","Self","Bad","m",664.4,0.6644,1
7302,2,2,20,22,"female","R","moralSelf","moralSelf","Matching","Self","Self","Self","Good","m",766.4,0.7664,1
7302,2,2,21,22,"female","R","immoralSelf","moralOther","Nonmatching","Self","Self","Self","Bad","n",640.6,0.6406,1
7302,2,2,22,22,"female","R","moralOther","immoralSelf","Nonmatching","Other","Other","Stranger","Good","n",682.7,0.6827,1
7302,2,2,23,22,"female","R","immoralOther","immoralSelf","Nonmatching","Other","Other","Stranger","Bad","n",884.8,0.8848,1
7302,2,2,24,22,"female","R","immoralOther","immoralOther","Matching","Other","Other","Stranger","Bad","m",646.9,0.6469,1
7302,2,3,1,22,"female","R","immoralOther","immoralOther","Matching","Other","Other","Stranger","Bad","m",473.1,0.4731,1
7302,2,3,2,22,"female","R","moralOther","immoralOther","Nonmatching","Other","Other","Stranger","Good","m",381.2,0.3812,0
7302,2,3,3,22,"female","R","moralSelf","moralSelf","Matching","Self","Self","Self","Good","m",595.2,0.5952,1
7302,2,3,4,22,"female","R","immoralOther","immoralOther","Matching","Other","Other","Stranger","Bad","m",807.4,0.8074,1
7302,2,3,5,22,"female","R","immoralSelf","immoralOther","Nonmatching","Self","Self","Self","Bad","n",567.5,0.5675,1
7302,2,3,6,22,"female","R","moralSelf","immoralSelf","Nonmatching","Self","Self","Self","Good","n",847.6,0.8476,1
7302,2,3,7,22,"female","R","immoralOther","moralOther","Nonmatching","Other","Other","Stranger","Bad","n",727.8,0.7278,1
7302,2,3,8,22,"female","R","immoralSelf","immoralSelf","Matching","Self","Self","Self","Bad","m",607.9,0.6079,1
7302,2,3,9,22,"female","R","immoralSelf","immoralSelf","Matching","Self","Self","Self","Bad",NA,1042,1.042,-1
7302,2,3,10,22,"female","R","moralSelf","immoralOther","Nonmatching","Self","Self","Self","Good","n",690.1,0.6901,1
7302,2,3,11,22,"female","R","immoralOther","moralSelf","Nonmatching","Other","Other","Stranger","Bad","n",986.2,0.9862,1
7302,2,3,12,22,"female","R","moralOther","moralSelf","Nonmatching","Other","Other","Stranger","Good","n",792.4,0.7924,1
7302,2,3,13,22,"female","R","immoralSelf","immoralOther","Nonmatching","Self","Self","Self","Bad","n",732.5,0.7325,1
7302,2,3,14,22,"female","R","immoralOther","immoralOther","Matching","Other","Other","Stranger","Bad","n",572.7,0.5727,0
7302,2,3,15,22,"female","R","moralOther","immoralSelf","Nonmatching","Other","Other","Stranger","Good","n",804.8,0.8048,1
7302,2,3,16,22,"female","R","moralSelf","moralOther","Nonmatching","Self","Self","Self","Good","n",654.9,0.6549,1
7302,2,3,17,22,"female","R","moralSelf","moralSelf","Matching","Self","Self","Self","Good","m",663.1,0.6631,1
7302,2,3,18,22,"female","R","immoralOther","immoralSelf","Nonmatching","Other","Other","Stranger","Bad",NA,1042,1.042,-1
7302,2,3,19,22,"female","R","immoralSelf","immoralOther","Nonmatching","Self","Self","Self","Bad","n",767.2,0.7672,1
7302,2,3,20,22,"female","R","moralSelf","moralSelf","Matching","Self","Self","Self","Good","m",735.3,0.7353,1
7302,2,3,21,22,"female","R","moralOther","moralOther","Matching","Other","Other","Stranger","Good","m",551.5,0.5515,1
7302,2,3,22,22,"female","R","immoralSelf","immoralSelf","Matching","Self","Self","Self","Bad","m",627.6,0.6276,1
7302,2,3,23,22,"female","R","moralOther","moralOther","Matching","Other","Other","Stranger","Good","m",527.7,0.5277,1
7302,2,3,24,22,"female","R","moralOther","moralOther","Matching","Other","Other","Stranger","Good","m",487.8,0.4878,1
7302,2,4,1,22,"female","R","moralSelf","moralSelf","Matching","Self","Self","Self","Good","m",532.7,0.5327,1
7302,2,4,2,22,"female","R","immoralSelf","immoralSelf","Matching","Self","Self","Self","Bad","m",684.8,0.6848,1
7302,2,4,3,22,"female","R","moralOther","moralOther","Matching","Other","Other","Stranger","Good","m",454.9,0.4549,1
7302,2,4,4,22,"female","R","immoralOther","immoralOther","Matching","Other","Other","Stranger","Bad","m",535,0.535,1
7302,2,4,5,22,"female","R","moralOther","immoralOther","Nonmatching","Other","Other","Stranger","Good","n",583.1,0.5831,1
7302,2,4,6,22,"female","R","moralSelf","immoralSelf","Nonmatching","Self","Self","Self","Good","n",797.3,0.7973,1
7302,2,4,7,22,"female","R","immoralOther","immoralOther","Matching","Other","Other","Stranger","Bad","m",543.3,0.5433,1
7302,2,4,8,22,"female","R","moralSelf","immoralOther","Nonmatching","Self","Self","Self","Good","n",597.4,0.5974,1
7302,2,4,9,22,"female","R","immoralOther","moralSelf","Nonmatching","Other","Other","Stranger","Bad","n",679.6,0.6796,1
7302,2,4,10,22,"female","R","moralSelf","immoralOther","Nonmatching","Self","Self","Self","Good","n",833.7,0.8337,1
7302,2,4,11,22,"female","R","immoralSelf","moralSelf","Nonmatching","Self","Self","Self","Bad","m",589.8,0.5898,0
7302,2,4,12,22,"female","R","moralOther","immoralOther","Nonmatching","Other","Other","Stranger","Good","n",625.9,0.6259,1
7302,2,4,13,22,"female","R","immoralSelf","immoralSelf","Matching","Self","Self","Self","Bad","m",760,0.76,1
7302,2,4,14,22,"female","R","immoralOther","moralOther","Nonmatching","Other","Other","Stranger","Bad","n",666.2,0.6662,1
7302,2,4,15,22,"female","R","moralOther","moralOther","Matching","Other","Other","Stranger","Good","m",600.3,0.6003,1
7302,2,4,16,22,"female","R","moralSelf","moralSelf","Matching","Self","Self","Self","Good","n",714.4,0.7144,0
7302,2,4,17,22,"female","R","moralOther","moralOther","Matching","Other","Other","Stranger","Good","m",702.5,0.7025,1
7302,2,4,18,22,"female","R","immoralOther","moralSelf","Nonmatching","Other","Other","Stranger","Bad","n",676.6,0.6766,1
7302,2,4,19,22,"female","R","immoralSelf","immoralOther","Nonmatching","Self","Self","Self","Bad","n",832.7,0.8327,1
7302,2,4,20,22,"female","R","immoralOther","immoralOther","Matching","Other","Other","Stranger","Bad","m",764.9,0.7649,1
7302,2,4,21,22,"female","R","immoralSelf","immoralSelf","Matching","Self","Self","Self","Bad","m",799.1,0.7991,1
7302,2,4,22,22,"female","R","moralSelf","moralSelf","Matching","Self","Self","Self","Good","m",641.1,0.6411,1
7302,2,4,23,22,"female","R","immoralSelf","moralOther","Nonmatching","Self","Self","Self","Bad","n",691.2,0.6912,1
7302,2,4,24,22,"female","R","moralOther","immoralOther","Nonmatching","Other","Other","Stranger","Good","n",643.4,0.6434,1
7302,2,5,1,22,"female","R","moralOther","moralOther","Matching","Other","Other","Stranger","Good","m",821.5,0.8215,1
7302,2,5,2,22,"female","R","moralSelf","immoralSelf","Nonmatching","Self","Self","Self","Good","n",747.6,0.7476,1
7302,2,5,3,22,"female","R","moralSelf","immoralOther","Nonmatching","Self","Self","Self","Good","n",879.7,0.8797,1
7302,2,5,4,22,"female","R","moralOther","moralOther","Matching","Other","Other","Stranger","Good","m",625.8,0.6258,1
7302,2,5,5,22,"female","R","immoralOther","moralOther","Nonmatching","Other","Other","Stranger","Bad","m",616,0.616,0
7302,2,5,6,22,"female","R","immoralOther","immoralOther","Matching","Other","Other","Stranger","Bad","n",904.1,0.9041,0
7302,2,5,7,22,"female","R","moralOther","immoralSelf","Nonmatching","Other","Other","Stranger","Good","n",670.2,0.6702,1
7302,2,5,8,22,"female","R","moralSelf","moralSelf","Matching","Self","Self","Self","Good","m",642.3,0.6423,1
7302,2,5,9,22,"female","R","immoralSelf","moralSelf","Nonmatching","Self","Self","Self","Bad","n",716.4,0.7164,1
7302,2,5,10,22,"female","R","immoralSelf","immoralOther","Nonmatching","Self","Self","Self","Bad","n",824.5,0.8245,1
7302,2,5,11,22,"female","R","immoralSelf","moralOther","Nonmatching","Self","Self","Self","Bad","n",694.7,0.6947,1
7302,2,5,12,22,"female","R","immoralSelf","immoralSelf","Matching","Self","Self","Self","Bad","n",622.9,0.6229,0
7302,2,5,13,22,"female","R","immoralOther","moralSelf","Nonmatching","Other","Other","Stranger","Bad","n",684.9,0.6849,1
7302,2,5,14,22,"female","R","immoralOther","immoralOther","Matching","Other","Other","Stranger","Bad","m",751,0.751,1
7302,2,5,15,22,"female","R","immoralOther","moralSelf","Nonmatching","Other","Other","Stranger","Bad","n",811.1,0.8111,1
7302,2,5,16,22,"female","R","moralSelf","moralOther","Nonmatching","Self","Self","Self","Good","n",723.3,0.7233,1
7302,2,5,17,22,"female","R","moralOther","immoralSelf","Nonmatching","Other","Other","Stranger","Good","n",813.4,0.8134,1
7302,2,5,18,22,"female","R","moralOther","moralOther","Matching","Other","Other","Stranger","Good","m",733.5,0.7335,1
7302,2,5,19,22,"female","R","immoralSelf","immoralSelf","Matching","Self","Self","Self","Bad","m",781.6,0.7816,1
7302,2,5,20,22,"female","R","moralSelf","moralSelf","Matching","Self","Self","Self","Good","m",675.7,0.6757,1
7302,2,5,21,22,"female","R","moralSelf","moralSelf","Matching","Self","Self","Self","Good","m",551.6,0.5516,1
7302,2,5,22,22,"female","R","immoralSelf","immoralSelf","Matching","Self","Self","Self","Bad","m",780,0.78,1
7302,2,5,23,22,"female","R","moralOther","immoralOther","Nonmatching","Other","Other","Stranger","Good","n",842.1,0.8421,1
7302,2,5,24,22,"female","R","immoralOther","immoralOther","Matching","Other","Other","Stranger","Bad","m",652.3,0.6523,1
7302,3,1,1,22,"female","R","moralOther","moralOther","Matching","Other","Other","Stranger","Good","m",582.5,0.5825,1
7302,3,1,2,22,"female","R","immoralOther","immoralOther","Matching","Other","Other","Stranger","Bad","m",772.6,0.7726,1
7302,3,1,3,22,"female","R","immoralOther","immoralOther","Matching","Other","Other","Stranger","Bad","m",540.7,0.5407,1
7302,3,1,4,22,"female","R","moralSelf","moralOther","Nonmatching","Self","Self","Self","Good","n",754.8,0.7548,1
7302,3,1,5,22,"female","R","immoralSelf","immoralSelf","Matching","Self","Self","Self","Bad","m",823,0.823,1
7302,3,1,6,22,"female","R","immoralSelf","moralOther","Nonmatching","Self","Self","Self","Bad","n",805.1,0.8051,1
7302,3,1,7,22,"female","R","immoralOther","moralOther","Nonmatching","Other","Other","Stranger","Bad","n",735.2,0.7352,1
7302,3,1,8,22,"female","R","immoralSelf","immoralSelf","Matching","Self","Self","Self","Bad","m",663.4,0.6634,1
7302,3,1,9,22,"female","R","immoralOther","immoralSelf","Nonmatching","Other","Other","Stranger","Bad","n",725.5,0.7255,1
7302,3,1,10,22,"female","R","moralOther","moralSelf","Nonmatching","Other","Other","Stranger","Good","n",759.6,0.7596,1
7302,3,1,11,22,"female","R","immoralOther","immoralOther","Matching","Other","Other","Stranger","Bad","m",665.7,0.6657,1
7302,3,1,12,22,"female","R","moralSelf","immoralOther","Nonmatching","Self","Self","Self","Good","n",647.8,0.6478,1
7302,3,1,13,22,"female","R","moralOther","moralSelf","Nonmatching","Other","Other","Stranger","Good","n",855.9,0.8559,1
7302,3,1,14,22,"female","R","moralSelf","moralOther","Nonmatching","Self","Self","Self","Good","n",696.1,0.6961,1
7302,3,1,15,22,"female","R","moralSelf","moralSelf","Matching","Self","Self","Self","Good",NA,1042,1.042,-1
7302,3,1,16,22,"female","R","moralSelf","moralSelf","Matching","Self","Self","Self","Good","n",586.4,0.5864,0
7302,3,1,17,22,"female","R","moralOther","moralOther","Matching","Other","Other","Stranger","Good","m",648.4,0.6484,1
7302,3,1,18,22,"female","R","moralSelf","moralSelf","Matching","Self","Self","Self","Good","m",744.6,0.7446,1
7302,3,1,19,22,"female","R","immoralOther","immoralSelf","Nonmatching","Other","Other","Stranger","Bad","n",702.7,0.7027,1
7302,3,1,20,22,"female","R","immoralSelf","moralOther","Nonmatching","Self","Self","Self","Bad","n",692.8,0.6928,1
7302,3,1,21,22,"female","R","immoralSelf","immoralSelf","Matching","Self","Self","Self","Bad","m",484.9,0.4849,1
7302,3,1,22,22,"female","R","immoralSelf","moralOther","Nonmatching","Self","Self","Self","Bad","n",599,0.599,1
7302,3,1,23,22,"female","R","moralOther","moralSelf","Nonmatching","Other","Other","Stranger","Good","n",857.2,0.8572,1
7302,3,1,24,22,"female","R","moralOther","moralOther","Matching","Other","Other","Stranger","Good","n",543.3,0.5433,0
7302,3,2,1,22,"female","R","moralOther","immoralOther","Nonmatching","Other","Other","Stranger","Good","n",677.4,0.6774,1
7302,3,2,2,22,"female","R","moralSelf","moralSelf","Matching","Self","Self","Self","Good","m",591.5,0.5915,1
7302,3,2,3,22,"female","R","immoralOther","immoralSelf","Nonmatching","Other","Other","Stranger","Bad","n",715.6,0.7156,1
7302,3,2,4,22,"female","R","immoralOther","immoralOther","Matching","Other","Other","Stranger","Bad","m",575.7,0.5757,1
7302,3,2,5,22,"female","R","moralOther","moralOther","Matching","Other","Other","Stranger","Good","m",671.9,0.6719,1
7302,3,2,6,22,"female","R","moralSelf","moralSelf","Matching","Self","Self","Self","Good","m",635.9,0.6359,1
7302,3,2,7,22,"female","R","immoralSelf","immoralSelf","Matching","Self","Self","Self","Bad","m",504,0.504,1
7302,3,2,8,22,"female","R","moralOther","moralOther","Matching","Other","Other","Stranger","Good","m",574.2,0.5742,1
7302,3,2,9,22,"female","R","moralOther","immoralOther","Nonmatching","Other","Other","Stranger","Good","m",566.2,0.5662,0
7302,3,2,10,22,"female","R","immoralSelf","immoralSelf","Matching","Self","Self","Self","Bad","m",584.4,0.5844,1
7302,3,2,11,22,"female","R","moralOther","immoralSelf","Nonmatching","Other","Other","Stranger","Good","n",654.6,0.6546,1
7302,3,2,12,22,"female","R","immoralSelf","immoralSelf","Matching","Self","Self","Self","Bad","m",590.6,0.5906,1
7302,3,2,13,22,"female","R","moralSelf","immoralOther","Nonmatching","Self","Self","Self","Good","n",802.8,0.8028,1
7302,3,2,14,22,"female","R","immoralSelf","immoralOther","Nonmatching","Self","Self","Self","Bad","m",644.8,0.6448,0
7302,3,2,15,22,"female","R","moralSelf","moralOther","Nonmatching","Self","Self","Self","Good","n",702.9,0.7029,1
7302,3,2,16,22,"female","R","moralSelf","moralOther","Nonmatching","Self","Self","Self","Good","n",645.1,0.6451,1
7302,3,2,17,22,"female","R","immoralSelf","immoralOther","Nonmatching","Self","Self","Self","Bad","n",727.2,0.7272,1
7302,3,2,18,22,"female","R","moralOther","moralOther","Matching","Other","Other","Stranger","Good","m",623.3,0.6233,1
7302,3,2,19,22,"female","R","immoralOther","immoralSelf","Nonmatching","Other","Other","Stranger","Bad","m",693.5,0.6935,0
7302,3,2,20,22,"female","R","immoralOther","immoralOther","Matching","Other","Other","Stranger","Bad","m",645.5,0.6455,1
7302,3,2,21,22,"female","R","immoralOther","moralSelf","Nonmatching","Other","Other","Stranger","Bad","n",687.7,0.6877,1
7302,3,2,22,22,"female","R","immoralOther","immoralOther","Matching","Other","Other","Stranger","Bad","m",655.8,0.6558,1
7302,3,2,23,22,"female","R","immoralSelf","moralOther","Nonmatching","Self","Self","Self","Bad","n",687.9,0.6879,1
7302,3,2,24,22,"female","R","moralSelf","moralSelf","Matching","Self","Self","Self","Good","n",768.1,0.7681,0
7302,3,3,1,22,"female","R","immoralSelf","immoralOther","Nonmatching","Self","Self","Self","Bad","m",720.1,0.7201,0
7302,3,3,2,22,"female","R","immoralOther","immoralOther","Matching","Other","Other","Stranger","Bad","m",626.2,0.6262,1
7302,3,3,3,22,"female","R","immoralSelf","immoralSelf","Matching","Self","Self","Self","Bad","m",704.4,0.7044,1
7302,3,3,4,22,"female","R","immoralOther","immoralOther","Matching","Other","Other","Stranger","Bad","m",582.5,0.5825,1
7302,3,3,5,22,"female","R","moralOther","immoralOther","Nonmatching","Other","Other","Stranger","Good","n",836.6,0.8366,1
7302,3,3,6,22,"female","R","immoralOther","immoralSelf","Nonmatching","Other","Other","Stranger","Bad","n",768.7,0.7687,1
7302,3,3,7,22,"female","R","immoralOther","moralOther","Nonmatching","Other","Other","Stranger","Bad","n",664.8,0.6648,1
7302,3,3,8,22,"female","R","immoralSelf","immoralOther","Nonmatching","Self","Self","Self","Bad","m",623,0.623,0
7302,3,3,9,22,"female","R","immoralOther","immoralSelf","Nonmatching","Other","Other","Stranger","Bad","n",805.4,0.8054,1
7302,3,3,10,22,"female","R","immoralSelf","immoralOther","Nonmatching","Self","Self","Self","Bad","n",727.2,0.7272,1
7302,3,3,11,22,"female","R","immoralSelf","immoralSelf","Matching","Self","Self","Self","Bad","m",663.3,0.6633,1
7302,3,3,12,22,"female","R","moralOther","moralOther","Matching","Other","Other","Stranger","Good","m",677.4,0.6774,1
7302,3,3,13,22,"female","R","moralSelf","moralSelf","Matching","Self","Self","Self","Good","m",759.5,0.7595,1
7302,3,3,14,22,"female","R","moralOther","moralOther","Matching","Other","Other","Stranger","Good","m",641.6,0.6416,1
7302,3,3,15,22,"female","R","moralSelf","immoralOther","Nonmatching","Self","Self","Self","Good","n",787.8,0.7878,1
7302,3,3,16,22,"female","R","moralSelf","moralSelf","Matching","Self","Self","Self","Good","m",583.9,0.5839,1
7302,3,3,17,22,"female","R","moralSelf","moralSelf","Matching","Self","Self","Self","Good","m",614.1,0.6141,1
7302,3,3,18,22,"female","R","moralOther","moralOther","Matching","Other","Other","Stranger","Good","m",678.1,0.6781,1
7302,3,3,19,22,"female","R","immoralSelf","immoralSelf","Matching","Self","Self","Self","Bad","m",640.2,0.6402,1
7302,3,3,20,22,"female","R","moralSelf","immoralOther","Nonmatching","Self","Self","Self","Good","n",674.4,0.6744,1
7302,3,3,21,22,"female","R","immoralOther","immoralOther","Matching","Other","Other","Stranger","Bad","m",878.5,0.8785,1
7302,3,3,22,22,"female","R","moralOther","immoralSelf","Nonmatching","Other","Other","Stranger","Good","n",752.6,0.7526,1
7302,3,3,23,22,"female","R","moralOther","immoralSelf","Nonmatching","Other","Other","Stranger","Good","n",844.7,0.8447,1
7302,3,3,24,22,"female","R","moralSelf","immoralSelf","Nonmatching","Self","Self","Self","Good","m",622.9,0.6229,0
7302,3,4,1,22,"female","R","immoralOther","immoralOther","Matching","Other","Other","Stranger","Bad","n",767.5,0.7675,0
7302,3,4,2,22,"female","R","moralOther","moralOther","Matching","Other","Other","Stranger","Good","m",527.6,0.5276,1
7302,3,4,3,22,"female","R","immoralOther","immoralOther","Matching","Other","Other","Stranger","Bad","m",823.7,0.8237,1
7302,3,4,4,22,"female","R","immoralSelf","moralSelf","Nonmatching","Self","Self","Self","Bad","n",990,0.99,1
7302,3,4,5,22,"female","R","moralOther","moralOther","Matching","Other","Other","Stranger","Good","m",761.9,0.7619,1
7302,3,4,6,22,"female","R","moralSelf","moralOther","Nonmatching","Self","Self","Self","Good","n",708.2,0.7082,1
7302,3,4,7,22,"female","R","immoralOther","immoralOther","Matching","Other","Other","Stranger","Bad","m",752.2,0.7522,1
7302,3,4,8,22,"female","R","moralSelf","moralSelf","Matching","Self","Self","Self","Good","m",780.3,0.7803,1
7302,3,4,9,22,"female","R","immoralSelf","immoralSelf","Matching","Self","Self","Self","Bad","m",642.4,0.6424,1
7302,3,4,10,22,"female","R","moralSelf","moralOther","Nonmatching","Self","Self","Self","Good","n",676.5,0.6765,1
7302,3,4,11,22,"female","R","moralSelf","moralOther","Nonmatching","Self","Self","Self","Good","n",824.7,0.8247,1
7302,3,4,12,22,"female","R","moralSelf","moralSelf","Matching","Self","Self","Self","Good","m",654.9,0.6549,1
7302,3,4,13,22,"female","R","immoralSelf","immoralSelf","Matching","Self","Self","Self","Bad","m",662.9,0.6629,1
7302,3,4,14,22,"female","R","moralOther","moralSelf","Nonmatching","Other","Other","Stranger","Good","n",733,0.733,1
7302,3,4,15,22,"female","R","immoralSelf","immoralOther","Nonmatching","Self","Self","Self","Bad","n",789.1,0.7891,1
7302,3,4,16,22,"female","R","immoralOther","moralSelf","Nonmatching","Other","Other","Stranger","Bad",NA,1042,1.042,-1
7302,3,4,17,22,"female","R","immoralOther","immoralSelf","Nonmatching","Other","Other","Stranger","Bad",NA,1042,1.042,-1
7302,3,4,18,22,"female","R","immoralSelf","immoralSelf","Matching","Self","Self","Self","Bad","m",693.5,0.6935,1
7302,3,4,19,22,"female","R","immoralOther","moralOther","Nonmatching","Other","Other","Stranger","Bad","n",637.7,0.6377,1
7302,3,4,20,22,"female","R","moralOther","moralSelf","Nonmatching","Other","Other","Stranger","Good","n",751.8,0.7518,1
7302,3,4,21,22,"female","R","immoralSelf","moralSelf","Nonmatching","Self","Self","Self","Bad","n",723.9,0.7239,1
7302,3,4,22,22,"female","R","moralOther","immoralOther","Nonmatching","Other","Other","Stranger","Good","n",646,0.646,1
7302,3,4,23,22,"female","R","moralSelf","moralSelf","Matching","Self","Self","Self","Good","m",736.1,0.7361,1
7302,3,4,24,22,"female","R","moralOther","moralOther","Matching","Other","Other","Stranger","Good","m",632.3,0.6323,1
7302,3,5,1,22,"female","R","moralOther","immoralSelf","Nonmatching","Other","Other","Stranger","Good","n",716.3,0.7163,1
7302,3,5,2,22,"female","R","moralSelf","moralOther","Nonmatching","Self","Self","Self","Good","m",720.5,0.7205,0
7302,3,5,3,22,"female","R","moralOther","moralOther","Matching","Other","Other","Stranger","Good","m",698.6,0.6986,1
7302,3,5,4,22,"female","R","immoralOther","moralSelf","Nonmatching","Other","Other","Stranger","Bad","n",696.7,0.6967,1
7302,3,5,5,22,"female","R","immoralSelf","immoralOther","Nonmatching","Self","Self","Self","Bad","n",728.8,0.7288,1
7302,3,5,6,22,"female","R","moralSelf","moralSelf","Matching","Self","Self","Self","Good","m",601,0.601,1
7302,3,5,7,22,"female","R","immoralOther","immoralOther","Matching","Other","Other","Stranger","Bad","n",643.1,0.6431,0
7302,3,5,8,22,"female","R","moralOther","immoralOther","Nonmatching","Other","Other","Stranger","Good","n",629.2,0.6292,1
7302,3,5,9,22,"female","R","immoralSelf","immoralSelf","Matching","Self","Self","Self","Bad","m",737.3,0.7373,1
7302,3,5,10,22,"female","R","immoralSelf","moralOther","Nonmatching","Self","Self","Self","Bad","n",687.4,0.6874,1
7302,3,5,11,22,"female","R","moralOther","moralOther","Matching","Other","Other","Stranger","Good","m",647.5,0.6475,1
7302,3,5,12,22,"female","R","moralSelf","moralSelf","Matching","Self","Self","Self","Good","m",775.7,0.7757,1
7302,3,5,13,22,"female","R","moralSelf","moralSelf","Matching","Self","Self","Self","Good","m",647.8,0.6478,1
7302,3,5,14,22,"female","R","immoralOther","immoralOther","Matching","Other","Other","Stranger","Bad","m",639.9,0.6399,1
7302,3,5,15,22,"female","R","immoralOther","immoralOther","Matching","Other","Other","Stranger","Bad","m",570.1,0.5701,1
7302,3,5,16,22,"female","R","immoralOther","moralSelf","Nonmatching","Other","Other","Stranger","Bad","n",682.2,0.6822,1
7302,3,5,17,22,"female","R","moralSelf","immoralSelf","Nonmatching","Self","Self","Self","Good","n",940.2,0.9402,1
7302,3,5,18,22,"female","R","moralOther","moralOther","Matching","Other","Other","Stranger","Good","m",538.4,0.5384,1
7302,3,5,19,22,"female","R","immoralOther","immoralSelf","Nonmatching","Other","Other","Stranger","Bad","n",616.5,0.6165,1
7302,3,5,20,22,"female","R","moralOther","moralSelf","Nonmatching","Other","Other","Stranger","Good","n",680.6,0.6806,1
7302,3,5,21,22,"female","R","immoralSelf","immoralSelf","Matching","Self","Self","Self","Bad","m",730.7,0.7307,1
7302,3,5,22,22,"female","R","moralSelf","immoralSelf","Nonmatching","Self","Self","Self","Good","n",786.8,0.7868,1
7302,3,5,23,22,"female","R","immoralSelf","moralSelf","Nonmatching","Self","Self","Self","Bad","n",785,0.785,1
7302,3,5,24,22,"female","R","immoralSelf","immoralSelf","Matching","Self","Self","Self","Bad","m",655.1,0.6551,1
7303,1,1,1,28,"male","R","immoralSelf","immoralOther","Nonmatching","Self","Self","Self","Bad","n",680.4,0.6804,1
7303,1,1,2,28,"male","R","moralOther","moralSelf","Nonmatching","Other","Other","Stranger","Good","n",554,0.554,1
7303,1,1,3,28,"male","R","immoralOther","moralOther","Nonmatching","Other","Other","Stranger","Bad","n",652.8,0.6528,1
7303,1,1,4,28,"male","R","moralSelf","immoralSelf","Nonmatching","Self","Self","Self","Good","n",601.6,0.6016,1
7303,1,1,5,28,"male","R","immoralSelf","immoralSelf","Matching","Self","Self","Self","Bad","n",621.4,0.6214,0
7303,1,1,6,28,"male","R","immoralSelf","immoralSelf","Matching","Self","Self","Self","Bad","n",705.8,0.7058,0
7303,1,1,7,28,"male","R","moralOther","moralOther","Matching","Other","Other","Stranger","Good","m",691.8,0.6918,1
7303,1,1,8,28,"male","R","moralSelf","moralSelf","Matching","Self","Self","Self","Good","m",633.4,0.6334,1
7303,1,1,9,28,"male","R","moralOther","immoralSelf","Nonmatching","Other","Other","Stranger","Good","n",738,0.738,1
7303,1,1,10,28,"male","R","immoralSelf","moralOther","Nonmatching","Self","Self","Self","Bad","n",876.5,0.8765,1
7303,1,1,11,28,"male","R","moralOther","moralSelf","Nonmatching","Other","Other","Stranger","Good","m",609.7,0.6097,0
7303,1,1,12,28,"male","R","immoralOther","immoralOther","Matching","Other","Other","Stranger","Bad","m",705.8,0.7058,1
7303,1,1,13,28,"male","R","moralOther","moralOther","Matching","Other","Other","Stranger","Good","m",675.8,0.6758,1
7303,1,1,14,28,"male","R","moralSelf","immoralSelf","Nonmatching","Self","Self","Self","Good","m",625.1,0.6251,0
7303,1,1,15,28,"male","R","immoralOther","immoralOther","Matching","Other","Other","Stranger","Bad","n",917.3,0.9173,0
7303,1,1,16,28,"male","R","immoralSelf","moralSelf","Nonmatching","Self","Self","Self","Bad","m",683.5,0.6835,0
7303,1,1,17,28,"male","R","moralSelf","immoralSelf","Nonmatching","Self","Self","Self","Good","m",493,0.493,0
7303,1,1,18,28,"male","R","moralSelf","moralSelf","Matching","Self","Self","Self","Good","m",522.7,0.5227,1
7303,1,1,19,28,"male","R","immoralSelf","immoralSelf","Matching","Self","Self","Self","Bad","n",720.9,0.7209,0
7303,1,1,20,28,"male","R","moralOther","moralOther","Matching","Other","Other","Stranger","Good","m",639.2,0.6392,1
7303,1,1,21,28,"male","R","immoralOther","moralOther","Nonmatching","Other","Other","Stranger","Bad","n",663.7,0.6637,1
7303,1,1,22,28,"male","R","moralSelf","moralSelf","Matching","Self","Self","Self","Good","m",608.8,0.6088,1
7303,1,1,23,28,"male","R","immoralOther","immoralOther","Matching","Other","Other","Stranger","Bad","n",580.7,0.5807,0
7303,1,1,24,28,"male","R","immoralOther","moralOther","Nonmatching","Other","Other","Stranger","Bad","n",736,0.736,1
7303,1,2,1,28,"male","R","moralSelf","moralSelf","Matching","Self","Self","Self","Good","m",610.4,0.6104,1
7303,1,2,2,28,"male","R","moralSelf","immoralSelf","Nonmatching","Self","Self","Self","Good","n",666.5,0.6665,1
7303,1,2,3,28,"male","R","immoralOther","immoralOther","Matching","Other","Other","Stranger","Bad","m",651.5,0.6515,1
7303,1,2,4,28,"male","R","immoralOther","immoralSelf","Nonmatching","Other","Other","Stranger","Bad","m",624.3,0.6243,0
7303,1,2,5,28,"male","R","immoralSelf","immoralOther","Nonmatching","Self","Self","Self","Bad","n",828.6,0.8286,1
7303,1,2,6,28,"male","R","immoralOther","immoralOther","Matching","Other","Other","Stranger","Bad","m",721,0.721,1
7303,1,2,7,28,"male","R","moralSelf","moralSelf","Matching","Self","Self","Self","Good","m",655.2,0.6552,1
7303,1,2,8,28,"male","R","moralOther","moralOther","Matching","Other","Other","Stranger","Good","n",644,0.644,0
7303,1,2,9,28,"male","R","immoralSelf","immoralOther","Nonmatching","Self","Self","Self","Bad","m",796.5,0.7965,0
7303,1,2,10,28,"male","R","moralOther","moralOther","Matching","Other","Other","Stranger","Good","m",692.1,0.6921,1
7303,1,2,11,28,"male","R","immoralSelf","moralSelf","Nonmatching","Self","Self","Self","Bad","n",866,0.866,1
7303,1,2,12,28,"male","R","moralSelf","immoralSelf","Nonmatching","Self","Self","Self","Good","m",707,0.707,0
7303,1,2,13,28,"male","R","immoralSelf","immoralSelf","Matching","Self","Self","Self","Bad","n",732.9,0.7329,0
7303,1,2,14,28,"male","R","moralOther","immoralOther","Nonmatching","Other","Other","Stranger","Good","m",615.3,0.6153,0
7303,1,2,15,28,"male","R","moralOther","immoralOther","Nonmatching","Other","Other","Stranger","Good","n",751.3,0.7513,1
7303,1,2,16,28,"male","R","immoralSelf","immoralSelf","Matching","Self","Self","Self","Bad","m",866.3,0.8663,1
7303,1,2,17,28,"male","R","moralOther","immoralOther","Nonmatching","Other","Other","Stranger","Good","n",819.3,0.8193,1
7303,1,2,18,28,"male","R","moralSelf","immoralOther","Nonmatching","Self","Self","Self","Good","n",907.4,0.9074,1
7303,1,2,19,28,"male","R","moralSelf","moralSelf","Matching","Self","Self","Self","Good","m",661.4,0.6614,1
7303,1,2,20,28,"male","R","immoralOther","moralOther","Nonmatching","Other","Other","Stranger","Bad","m",926.4,0.9264,0
7303,1,2,21,28,"male","R","immoralOther","immoralOther","Matching","Other","Other","Stranger","Bad","m",680.8,0.6808,1
7303,1,2,22,28,"male","R","immoralSelf","immoralSelf","Matching","Self","Self","Self","Bad","m",762.5,0.7625,1
7303,1,2,23,28,"male","R","immoralOther","moralOther","Nonmatching","Other","Other","Stranger","Bad","n",873.5,0.8735,1
7303,1,2,24,28,"male","R","moralOther","moralOther","Matching","Other","Other","Stranger","Good","m",542.8,0.5428,1
7303,1,3,1,28,"male","R","immoralOther","immoralOther","Matching","Other","Other","Stranger","Bad","n",669.5,0.6695,0
7303,1,3,2,28,"male","R","moralOther","immoralOther","Nonmatching","Other","Other","Stranger","Good","n",627.1,0.6271,1
7303,1,3,3,28,"male","R","moralSelf","moralOther","Nonmatching","Self","Self","Self","Good","n",791,0.791,1
7303,1,3,4,28,"male","R","immoralSelf","moralSelf","Nonmatching","Self","Self","Self","Bad","n",710.7,0.7107,1
7303,1,3,5,28,"male","R","moralOther","moralOther","Matching","Other","Other","Stranger","Good","m",656.5,0.6565,1
7303,1,3,6,28,"male","R","moralOther","moralOther","Matching","Other","Other","Stranger","Good","m",617.7,0.6177,1
7303,1,3,7,28,"male","R","immoralOther","immoralSelf","Nonmatching","Other","Other","Stranger","Bad","n",841.7,0.8417,1
7303,1,3,8,28,"male","R","moralSelf","immoralOther","Nonmatching","Self","Self","Self","Good","n",658.2,0.6582,1
7303,1,3,9,28,"male","R","immoralOther","immoralOther","Matching","Other","Other","Stranger","Bad","n",707.4,0.7074,0
7303,1,3,10,28,"male","R","moralSelf","moralOther","Nonmatching","Self","Self","Self","Good","n",773.3,0.7733,1
7303,1,3,11,28,"male","R","immoralSelf","immoralSelf","Matching","Self","Self","Self","Bad","m",780.4,0.7804,1
7303,1,3,12,28,"male","R","moralSelf","moralSelf","Matching","Self","Self","Self","Good","m",719.8,0.7198,1
7303,1,3,13,28,"male","R","immoralSelf","immoralSelf","Matching","Self","Self","Self","Bad","n",846,0.846,0
7303,1,3,14,28,"male","R","immoralOther","immoralSelf","Nonmatching","Other","Other","Stranger","Bad","n",682.8,0.6828,1
7303,1,3,15,28,"male","R","immoralSelf","moralSelf","Nonmatching","Self","Self","Self","Bad","m",884.3,0.8843,0
7303,1,3,16,28,"male","R","moralOther","moralOther","Matching","Other","Other","Stranger","Good","m",669.9,0.6699,1
7303,1,3,17,28,"male","R","immoralSelf","immoralSelf","Matching","Self","Self","Self","Bad","m",691.1,0.6911,1
7303,1,3,18,28,"male","R","moralOther","moralSelf","Nonmatching","Other","Other","Stranger","Good","m",600.7,0.6007,0
7303,1,3,19,28,"male","R","immoralSelf","moralSelf","Nonmatching","Self","Self","Self","Bad","n",852.6,0.8526,1
7303,1,3,20,28,"male","R","immoralOther","immoralSelf","Nonmatching","Other","Other","Stranger","Bad","n",777.5,0.7775,1
7303,1,3,21,28,"male","R","moralOther","moralSelf","Nonmatching","Other","Other","Stranger","Good","n",804.8,0.8048,1
7303,1,3,22,28,"male","R","moralSelf","moralSelf","Matching","Self","Self","Self","Good","m",744.8,0.7448,1
7303,1,3,23,28,"male","R","immoralOther","immoralOther","Matching","Other","Other","Stranger","Bad","m",839.4,0.8394,1
7303,1,3,24,28,"male","R","moralSelf","moralSelf","Matching","Self","Self","Self","Good","m",599.9,0.5999,1
7303,1,4,1,28,"male","R","immoralSelf","immoralSelf","Matching","Self","Self","Self","Bad","m",655.5,0.6555,1
7303,1,4,2,28,"male","R","moralOther","immoralOther","Nonmatching","Other","Other","Stranger","Good","n",764.3,0.7643,1
7303,1,4,3,28,"male","R","moralSelf","moralOther","Nonmatching","Self","Self","Self","Good","m",587.5,0.5875,0
7303,1,4,4,28,"male","R","moralSelf","moralSelf","Matching","Self","Self","Self","Good","m",715,0.715,1
7303,1,4,5,28,"male","R","immoralOther","immoralOther","Matching","Other","Other","Stranger","Bad","m",969.2,0.9692,1
7303,1,4,6,28,"male","R","immoralOther","immoralOther","Matching","Other","Other","Stranger","Bad","m",568.4,0.5684,1
7303,1,4,7,28,"male","R","immoralSelf","moralOther","Nonmatching","Self","Self","Self","Bad","n",647.4,0.6474,1
7303,1,4,8,28,"male","R","moralOther","moralOther","Matching","Other","Other","Stranger","Good","m",692.3,0.6923,1
7303,1,4,9,28,"male","R","moralOther","moralOther","Matching","Other","Other","Stranger","Good","m",594.1,0.5941,1
7303,1,4,10,28,"male","R","moralSelf","moralSelf","Matching","Self","Self","Self","Good","m",649.7,0.6497,1
7303,1,4,11,28,"male","R","immoralSelf","moralSelf","Nonmatching","Self","Self","Self","Bad","n",886.5,0.8865,1
7303,1,4,12,28,"male","R","moralSelf","moralOther","Nonmatching","Self","Self","Self","Good","m",624,0.624,0
7303,1,4,13,28,"male","R","moralOther","moralSelf","Nonmatching","Other","Other","Stranger","Good","m",612.3,0.6123,0
7303,1,4,14,28,"male","R","immoralOther","moralSelf","Nonmatching","Other","Other","Stranger","Bad","n",780.5,0.7805,1
7303,1,4,15,28,"male","R","immoralOther","moralOther","Nonmatching","Other","Other","Stranger","Bad","n",855.7,0.8557,1
7303,1,4,16,28,"male","R","immoralSelf","moralOther","Nonmatching","Self","Self","Self","Bad","m",804.6,0.8046,0
7303,1,4,17,28,"male","R","moralSelf","moralOther","Nonmatching","Self","Self","Self","Good","m",640.3,0.6403,0
7303,1,4,18,28,"male","R","moralSelf","moralSelf","Matching","Self","Self","Self","Good","m",633,0.633,1
7303,1,4,19,28,"male","R","immoralSelf","immoralSelf","Matching","Self","Self","Self","Bad","n",649.5,0.6495,0
7303,1,4,20,28,"male","R","immoralOther","moralOther","Nonmatching","Other","Other","Stranger","Bad","n",902.3,0.9023,1
7303,1,4,21,28,"male","R","moralOther","moralOther","Matching","Other","Other","Stranger","Good","m",1028,1.028,1
7303,1,4,22,28,"male","R","moralOther","immoralSelf","Nonmatching","Other","Other","Stranger","Good","m",792.4,0.7924,0
7303,1,4,23,28,"male","R","immoralOther","immoralOther","Matching","Other","Other","Stranger","Bad","n",656,0.656,0
7303,1,4,24,28,"male","R","immoralSelf","immoralSelf","Matching","Self","Self","Self","Bad","n",833.1,0.8331,0
7303,1,5,1,28,"male","R","moralOther","immoralSelf","Nonmatching","Other","Other","Stranger","Good","n",785.7,0.7857,1
7303,1,5,2,28,"male","R","moralOther","moralOther","Matching","Other","Other","Stranger","Good","m",849.1,0.8491,1
7303,1,5,3,28,"male","R","immoralOther","immoralOther","Matching","Other","Other","Stranger","Bad","m",798,0.798,1
7303,1,5,4,28,"male","R","moralSelf","moralSelf","Matching","Self","Self","Self","Good","m",642,0.642,1
7303,1,5,5,28,"male","R","immoralSelf","immoralSelf","Matching","Self","Self","Self","Bad","m",722.4,0.7224,1
7303,1,5,6,28,"male","R","moralOther","moralOther","Matching","Other","Other","Stranger","Good","m",584.7,0.5847,1
7303,1,5,7,28,"male","R","immoralOther","immoralSelf","Nonmatching","Other","Other","Stranger","Bad","m",788,0.788,0
7303,1,5,8,28,"male","R","immoralOther","immoralOther","Matching","Other","Other","Stranger","Bad","m",843.6,0.8436,1
7303,1,5,9,28,"male","R","immoralOther","moralSelf","Nonmatching","Other","Other","Stranger","Bad","n",708.2,0.7082,1
7303,1,5,10,28,"male","R","moralSelf","immoralSelf","Nonmatching","Self","Self","Self","Good","m",574.1,0.5741,0
7303,1,5,11,28,"male","R","moralOther","immoralOther","Nonmatching","Other","Other","Stranger","Good","n",793.6,0.7936,1
7303,1,5,12,28,"male","R","immoralOther","moralSelf","Nonmatching","Other","Other","Stranger","Bad","n",809.2,0.8092,1
7303,1,5,13,28,"male","R","immoralSelf","moralOther","Nonmatching","Self","Self","Self","Bad","n",665.3,0.6653,1
7303,1,5,14,28,"male","R","moralSelf","immoralOther","Nonmatching","Self","Self","Self","Good","n",778.3,0.7783,1
7303,1,5,15,28,"male","R","immoralSelf","immoralSelf","Matching","Self","Self","Self","Bad","m",757.7,0.7577,1
7303,1,5,16,28,"male","R","immoralSelf","immoralSelf","Matching","Self","Self","Self","Bad","m",656.6,0.6566,1
7303,1,5,17,28,"male","R","immoralSelf","moralOther","Nonmatching","Self","Self","Self","Bad","n",745.7,0.7457,1
7303,1,5,18,28,"male","R","moralOther","immoralOther","Nonmatching","Other","Other","Stranger","Good","n",848.3,0.8483,1
7303,1,5,19,28,"male","R","immoralSelf","immoralOther","Nonmatching","Self","Self","Self","Bad","n",789,0.789,1
7303,1,5,20,28,"male","R","immoralOther","immoralOther","Matching","Other","Other","Stranger","Bad","m",620.7,0.6207,1
7303,1,5,21,28,"male","R","moralSelf","moralSelf","Matching","Self","Self","Self","Good","m",577,0.577,1
7303,1,5,22,28,"male","R","moralSelf","moralSelf","Matching","Self","Self","Self","Good","m",524.5,0.5245,1
7303,1,5,23,28,"male","R","moralOther","moralOther","Matching","Other","Other","Stranger","Good","m",634.6,0.6346,1
7303,1,5,24,28,"male","R","moralSelf","moralOther","Nonmatching","Self","Self","Self","Good","m",747.1,0.7471,0
7303,2,1,1,28,"male","R","moralOther","moralOther","Matching","Other","Other","Stranger","Good",NA,1041.1,1.0411,-1
7303,2,1,2,28,"male","R","moralOther","immoralSelf","Nonmatching","Other","Other","Stranger","Good","n",575.7,0.5757,1
7303,2,1,3,28,"male","R","immoralSelf","moralOther","Nonmatching","Self","Self","Self","Bad","n",667.1,0.6671,1
7303,2,1,4,28,"male","R","immoralOther","moralOther","Nonmatching","Other","Other","Stranger","Bad","n",812.1,0.8121,1
7303,2,1,5,28,"male","R","immoralSelf","moralOther","Nonmatching","Self","Self","Self","Bad","n",724.2,0.7242,1
7303,2,1,6,28,"male","R","moralOther","immoralSelf","Nonmatching","Other","Other","Stranger","Good","m",578.3,0.5783,0
7303,2,1,7,28,"male","R","immoralOther","moralSelf","Nonmatching","Other","Other","Stranger","Bad","n",645.7,0.6457,1
7303,2,1,8,28,"male","R","immoralSelf","moralSelf","Nonmatching","Self","Self","Self","Bad","n",610.5,0.6105,1
7303,2,1,9,28,"male","R","moralSelf","moralSelf","Matching","Self","Self","Self","Good","n",714.6,0.7146,0
7303,2,1,10,28,"male","R","moralOther","moralOther","Matching","Other","Other","Stranger","Good","m",616.8,0.6168,1
7303,2,1,11,28,"male","R","immoralSelf","immoralSelf","Matching","Self","Self","Self","Bad","m",712.9,0.7129,1
7303,2,1,12,28,"male","R","moralSelf","moralOther","Nonmatching","Self","Self","Self","Good","m",546.9,0.5469,0
7303,2,1,13,28,"male","R","immoralOther","immoralOther","Matching","Other","Other","Stranger","Bad","n",641.6,0.6416,0
7303,2,1,14,28,"male","R","immoralSelf","immoralSelf","Matching","Self","Self","Self","Bad","m",906.1,0.9061,1
7303,2,1,15,28,"male","R","moralOther","moralSelf","Nonmatching","Other","Other","Stranger","Good","n",892.1,0.8921,1
7303,2,1,16,28,"male","R","immoralSelf","immoralSelf","Matching","Self","Self","Self","Bad","m",777.8,0.7778,1
7303,2,1,17,28,"male","R","moralOther","moralOther","Matching","Other","Other","Stranger","Good","m",757.3,0.7573,1
7303,2,1,18,28,"male","R","immoralOther","immoralOther","Matching","Other","Other","Stranger","Bad","m",656.1,0.6561,1
7303,2,1,19,28,"male","R","moralSelf","moralSelf","Matching","Self","Self","Self","Good","m",665,0.665,1
7303,2,1,20,28,"male","R","moralSelf","immoralSelf","Nonmatching","Self","Self","Self","Good","n",810.3,0.8103,1
7303,2,1,21,28,"male","R","immoralOther","immoralSelf","Nonmatching","Other","Other","Stranger","Bad","n",706.3,0.7063,1
7303,2,1,22,28,"male","R","immoralOther","immoralOther","Matching","Other","Other","Stranger","Bad","m",564.2,0.5642,1
7303,2,1,23,28,"male","R","moralSelf","moralOther","Nonmatching","Self","Self","Self","Good","n",987.5,0.9875,1
7303,2,1,24,28,"male","R","moralSelf","moralSelf","Matching","Self","Self","Self","Good","m",811.1,0.8111,1
7303,2,2,1,28,"male","R","immoralOther","moralSelf","Nonmatching","Other","Other","Stranger","Bad","n",747.1,0.7471,1
7303,2,2,2,28,"male","R","moralSelf","immoralOther","Nonmatching","Self","Self","Self","Good","n",777.8,0.7778,1
7303,2,2,3,28,"male","R","moralOther","immoralOther","Nonmatching","Other","Other","Stranger","Good","n",765.1,0.7651,1
7303,2,2,4,28,"male","R","moralSelf","moralSelf","Matching","Self","Self","Self","Good","m",612.4,0.6124,1
7303,2,2,5,28,"male","R","immoralSelf","immoralSelf","Matching","Self","Self","Self","Bad","n",644.3,0.6443,0
7303,2,2,6,28,"male","R","immoralOther","immoralOther","Matching","Other","Other","Stranger","Bad","m",793.2,0.7932,1
7303,2,2,7,28,"male","R","moralSelf","moralSelf","Matching","Self","Self","Self","Good","m",704.8,0.7048,1
7303,2,2,8,28,"male","R","moralOther","moralOther","Matching","Other","Other","Stranger","Good","m",562.9,0.5629,1
7303,2,2,9,28,"male","R","moralOther","moralOther","Matching","Other","Other","Stranger","Good","m",569.9,0.5699,1
7303,2,2,10,28,"male","R","moralOther","moralOther","Matching","Other","Other","Stranger","Good","m",633,0.633,1
7303,2,2,11,28,"male","R","immoralSelf","immoralOther","Nonmatching","Self","Self","Self","Bad","n",609.6,0.6096,1
7303,2,2,12,28,"male","R","moralOther","moralSelf","Nonmatching","Other","Other","Stranger","Good","m",553.7,0.5537,0
7303,2,2,13,28,"male","R","immoralOther","immoralOther","Matching","Other","Other","Stranger","Bad","m",684.5,0.6845,1
7303,2,2,14,28,"male","R","immoralOther","moralOther","Nonmatching","Other","Other","Stranger","Bad","n",662,0.662,1
7303,2,2,15,28,"male","R","moralSelf","moralOther","Nonmatching","Self","Self","Self","Good","n",719.1,0.7191,1
7303,2,2,16,28,"male","R","immoralSelf","moralSelf","Nonmatching","Self","Self","Self","Bad","m",685.3,0.6853,0
7303,2,2,17,28,"male","R","immoralSelf","immoralSelf","Matching","Self","Self","Self","Bad","m",678.8,0.6788,1
7303,2,2,18,28,"male","R","moralSelf","immoralOther","Nonmatching","Self","Self","Self","Good","n",652.1,0.6521,1
7303,2,2,19,28,"male","R","immoralSelf","immoralSelf","Matching","Self","Self","Self","Bad","n",608.8,0.6088,0
7303,2,2,20,28,"male","R","moralSelf","moralSelf","Matching","Self","Self","Self","Good","m",648.9,0.6489,1
7303,2,2,21,28,"male","R","immoralSelf","moralOther","Nonmatching","Self","Self","Self","Bad","n",709.7,0.7097,1
7303,2,2,22,28,"male","R","moralOther","immoralSelf","Nonmatching","Other","Other","Stranger","Good","n",703.7,0.7037,1
7303,2,2,23,28,"male","R","immoralOther","immoralSelf","Nonmatching","Other","Other","Stranger","Bad","n",657.7,0.6577,1
7303,2,2,24,28,"male","R","immoralOther","immoralOther","Matching","Other","Other","Stranger","Bad","m",610.7,0.6107,1
7303,2,3,1,28,"male","R","immoralOther","immoralOther","Matching","Other","Other","Stranger","Bad","m",658.8,0.6588,1
7303,2,3,2,28,"male","R","moralOther","immoralOther","Nonmatching","Other","Other","Stranger","Good","n",755.8,0.7558,1
7303,2,3,3,28,"male","R","moralSelf","moralSelf","Matching","Self","Self","Self","Good","m",510.7,0.5107,1
7303,2,3,4,28,"male","R","immoralOther","immoralOther","Matching","Other","Other","Stranger","Bad","n",616.7,0.6167,0
7303,2,3,5,28,"male","R","immoralSelf","immoralOther","Nonmatching","Self","Self","Self","Bad","n",848.8,0.8488,1
7303,2,3,6,28,"male","R","moralSelf","immoralSelf","Nonmatching","Self","Self","Self","Good","m",645.6,0.6456,0
7303,2,3,7,28,"male","R","immoralOther","moralOther","Nonmatching","Other","Other","Stranger","Bad","n",818.7,0.8187,1
7303,2,3,8,28,"male","R","immoralSelf","immoralSelf","Matching","Self","Self","Self","Bad","m",970.4,0.9704,1
7303,2,3,9,28,"male","R","immoralSelf","immoralSelf","Matching","Self","Self","Self","Bad","m",593.6,0.5936,1
7303,2,3,10,28,"male","R","moralSelf","immoralOther","Nonmatching","Self","Self","Self","Good","n",777.1,0.7771,1
7303,2,3,11,28,"male","R","immoralOther","moralSelf","Nonmatching","Other","Other","Stranger","Bad","m",708.5,0.7085,0
7303,2,3,12,28,"male","R","moralOther","moralSelf","Nonmatching","Other","Other","Stranger","Good","m",718.5,0.7185,0
7303,2,3,13,28,"male","R","immoralSelf","immoralOther","Nonmatching","Self","Self","Self","Bad","n",764.8,0.7648,1
7303,2,3,14,28,"male","R","immoralOther","immoralOther","Matching","Other","Other","Stranger","Bad","m",731.9,0.7319,1
7303,2,3,15,28,"male","R","moralOther","immoralSelf","Nonmatching","Other","Other","Stranger","Good","n",734.4,0.7344,1
7303,2,3,16,28,"male","R","moralSelf","moralOther","Nonmatching","Self","Self","Self","Good","n",752.8,0.7528,1
7303,2,3,17,28,"male","R","moralSelf","moralSelf","Matching","Self","Self","Self","Good","m",539.7,0.5397,1
7303,2,3,18,28,"male","R","immoralOther","immoralSelf","Nonmatching","Other","Other","Stranger","Bad","n",698.3,0.6983,1
7303,2,3,19,28,"male","R","immoralSelf","immoralOther","Nonmatching","Self","Self","Self","Bad","m",1016,1.016,0
7303,2,3,20,28,"male","R","moralSelf","moralSelf","Matching","Self","Self","Self","Good","m",800.2,0.8002,1
7303,2,3,21,28,"male","R","moralOther","moralOther","Matching","Other","Other","Stranger","Good","m",764.1,0.7641,1
7303,2,3,22,28,"male","R","immoralSelf","immoralSelf","Matching","Self","Self","Self","Bad","m",731.2,0.7312,1
7303,2,3,23,28,"male","R","moralOther","moralOther","Matching","Other","Other","Stranger","Good","m",693.6,0.6936,1
7303,2,3,24,28,"male","R","moralOther","moralOther","Matching","Other","Other","Stranger","Good","m",651.4,0.6514,1
7303,2,4,1,28,"male","R","moralSelf","moralSelf","Matching","Self","Self","Self","Good","m",511.3,0.5113,1
7303,2,4,2,28,"male","R","immoralSelf","immoralSelf","Matching","Self","Self","Self","Bad","n",561.2,0.5612,0
7303,2,4,3,28,"male","R","moralOther","moralOther","Matching","Other","Other","Stranger","Good","m",620.1,0.6201,1
7303,2,4,4,28,"male","R","immoralOther","immoralOther","Matching","Other","Other","Stranger","Bad","m",628.1,0.6281,1
7303,2,4,5,28,"male","R","moralOther","immoralOther","Nonmatching","Other","Other","Stranger","Good","n",720.5,0.7205,1
7303,2,4,6,28,"male","R","moralSelf","immoralSelf","Nonmatching","Self","Self","Self","Good","m",582.8,0.5828,0
7303,2,4,7,28,"male","R","immoralOther","immoralOther","Matching","Other","Other","Stranger","Bad","m",674,0.674,1
7303,2,4,8,28,"male","R","moralSelf","immoralOther","Nonmatching","Self","Self","Self","Good","n",847.5,0.8475,1
7303,2,4,9,28,"male","R","immoralOther","moralSelf","Nonmatching","Other","Other","Stranger","Bad","n",716.1,0.7161,1
7303,2,4,10,28,"male","R","moralSelf","immoralOther","Nonmatching","Self","Self","Self","Good","n",658.3,0.6583,1
7303,2,4,11,28,"male","R","immoralSelf","moralSelf","Nonmatching","Self","Self","Self","Bad","n",819.4,0.8194,1
7303,2,4,12,28,"male","R","moralOther","immoralOther","Nonmatching","Other","Other","Stranger","Good","n",635.4,0.6354,1
7303,2,4,13,28,"male","R","immoralSelf","immoralSelf","Matching","Self","Self","Self","Bad","m",763.9,0.7639,1
7303,2,4,14,28,"male","R","immoralOther","moralOther","Nonmatching","Other","Other","Stranger","Bad","n",723.1,0.7231,1
7303,2,4,15,28,"male","R","moralOther","moralOther","Matching","Other","Other","Stranger","Good","m",649.4,0.6494,1
7303,2,4,16,28,"male","R","moralSelf","moralSelf","Matching","Self","Self","Self","Good","n",806.2,0.8062,0
7303,2,4,17,28,"male","R","moralOther","moralOther","Matching","Other","Other","Stranger","Good","n",754.1,0.7541,0
7303,2,4,18,28,"male","R","immoralOther","moralSelf","Nonmatching","Other","Other","Stranger","Bad","n",788.9,0.7889,1
7303,2,4,19,28,"male","R","immoralSelf","immoralOther","Nonmatching","Self","Self","Self","Bad","m",820.5,0.8205,0
7303,2,4,20,28,"male","R","immoralOther","immoralOther","Matching","Other","Other","Stranger","Bad","m",704.9,0.7049,1
7303,2,4,21,28,"male","R","immoralSelf","immoralSelf","Matching","Self","Self","Self","Bad","m",458.8,0.4588,1
7303,2,4,22,28,"male","R","moralSelf","moralSelf","Matching","Self","Self","Self","Good","m",692,0.692,1
7303,2,4,23,28,"male","R","immoralSelf","moralOther","Nonmatching","Self","Self","Self","Bad","n",773.9,0.7739,1
7303,2,4,24,28,"male","R","moralOther","immoralOther","Nonmatching","Other","Other","Stranger","Good","m",777.2,0.7772,0
7303,2,5,1,28,"male","R","moralOther","moralOther","Matching","Other","Other","Stranger","Good","m",564.7,0.5647,1
7303,2,5,2,28,"male","R","moralSelf","immoralSelf","Nonmatching","Self","Self","Self","Good","m",739.8,0.7398,0
7303,2,5,3,28,"male","R","moralSelf","immoralOther","Nonmatching","Self","Self","Self","Good","n",834.5,0.8345,1
7303,2,5,4,28,"male","R","moralOther","moralOther","Matching","Other","Other","Stranger","Good","m",739,0.739,1
7303,2,5,5,28,"male","R","immoralOther","moralOther","Nonmatching","Other","Other","Stranger","Bad","n",745.6,0.7456,1
7303,2,5,6,28,"male","R","immoralOther","immoralOther","Matching","Other","Other","Stranger","Bad","m",680.3,0.6803,1
7303,2,5,7,28,"male","R","moralOther","immoralSelf","Nonmatching","Other","Other","Stranger","Good","m",857.9,0.8579,0
7303,2,5,8,28,"male","R","moralSelf","moralSelf","Matching","Self","Self","Self","Good","m",530.9,0.5309,1
7303,2,5,9,28,"male","R","immoralSelf","moralSelf","Nonmatching","Self","Self","Self","Bad","m",917.3,0.9173,0
7303,2,5,10,28,"male","R","immoralSelf","immoralOther","Nonmatching","Self","Self","Self","Bad","n",819.6,0.8196,1
7303,2,5,11,28,"male","R","immoralSelf","moralOther","Nonmatching","Self","Self","Self","Bad","n",691.6,0.6916,1
7303,2,5,12,28,"male","R","immoralSelf","immoralSelf","Matching","Self","Self","Self","Bad","m",681.4,0.6814,1
7303,2,5,13,28,"male","R","immoralOther","moralSelf","Nonmatching","Other","Other","Stranger","Bad","n",722.8,0.7228,1
7303,2,5,14,28,"male","R","immoralOther","immoralOther","Matching","Other","Other","Stranger","Bad","m",633.1,0.6331,1
7303,2,5,15,28,"male","R","immoralOther","moralSelf","Nonmatching","Other","Other","Stranger","Bad","n",809.6,0.8096,1
7303,2,5,16,28,"male","R","moralSelf","moralOther","Nonmatching","Self","Self","Self","Good","n",729.8,0.7298,1
7303,2,5,17,28,"male","R","moralOther","immoralSelf","Nonmatching","Other","Other","Stranger","Good","n",588.2,0.5882,1
7303,2,5,18,28,"male","R","moralOther","moralOther","Matching","Other","Other","Stranger","Good","m",595.7,0.5957,1
7303,2,5,19,28,"male","R","immoralSelf","immoralSelf","Matching","Self","Self","Self","Bad","m",739.3,0.7393,1
7303,2,5,20,28,"male","R","moralSelf","moralSelf","Matching","Self","Self","Self","Good","m",626.1,0.6261,1
7303,2,5,21,28,"male","R","moralSelf","moralSelf","Matching","Self","Self","Self","Good","m",702.4,0.7024,1
7303,2,5,22,28,"male","R","immoralSelf","immoralSelf","Matching","Self","Self","Self","Bad","m",708,0.708,1
7303,2,5,23,28,"male","R","moralOther","immoralOther","Nonmatching","Other","Other","Stranger","Good","m",638.2,0.6382,0
7303,2,5,24,28,"male","R","immoralOther","immoralOther","Matching","Other","Other","Stranger","Bad","m",822.7,0.8227,1
7303,3,1,1,28,"male","R","moralOther","moralOther","Matching","Other","Other","Stranger","Good","m",999.8,0.9998,1
7303,3,1,2,28,"male","R","immoralOther","immoralOther","Matching","Other","Other","Stranger","Bad","m",675.6,0.6756,1
7303,3,1,3,28,"male","R","immoralOther","immoralOther","Matching","Other","Other","Stranger","Bad","n",792.9,0.7929,0
7303,3,1,4,28,"male","R","moralSelf","moralOther","Nonmatching","Self","Self","Self","Good","m",828.7,0.8287,0
7303,3,1,5,28,"male","R","immoralSelf","immoralSelf","Matching","Self","Self","Self","Bad","m",921.1,0.9211,1
7303,3,1,6,28,"male","R","immoralSelf","moralOther","Nonmatching","Self","Self","Self","Bad","n",1007.3,1.0073,1
7303,3,1,7,28,"male","R","immoralOther","moralOther","Nonmatching","Other","Other","Stranger","Bad","m",667.2,0.6672,0
7303,3,1,8,28,"male","R","immoralSelf","immoralSelf","Matching","Self","Self","Self","Bad","m",820.2,0.8202,1
7303,3,1,9,28,"male","R","immoralOther","immoralSelf","Nonmatching","Other","Other","Stranger","Bad","n",628.2,0.6282,1
7303,3,1,10,28,"male","R","moralOther","moralSelf","Nonmatching","Other","Other","Stranger","Good","m",696.7,0.6967,0
7303,3,1,11,28,"male","R","immoralOther","immoralOther","Matching","Other","Other","Stranger","Bad","m",774.3,0.7743,1
7303,3,1,12,28,"male","R","moralSelf","immoralOther","Nonmatching","Self","Self","Self","Good","n",929.6,0.9296,1
7303,3,1,13,28,"male","R","moralOther","moralSelf","Nonmatching","Other","Other","Stranger","Good","n",724.1,0.7241,1
7303,3,1,14,28,"male","R","moralSelf","moralOther","Nonmatching","Self","Self","Self","Good","n",818.3,0.8183,1
7303,3,1,15,28,"male","R","moralSelf","moralSelf","Matching","Self","Self","Self","Good","m",530.4,0.5304,1
7303,3,1,16,28,"male","R","moralSelf","moralSelf","Matching","Self","Self","Self","Good","m",468.9,0.4689,1
7303,3,1,17,28,"male","R","moralOther","moralOther","Matching","Other","Other","Stranger","Good","m",634.2,0.6342,1
7303,3,1,18,28,"male","R","moralSelf","moralSelf","Matching","Self","Self","Self","Good","m",802.7,0.8027,1
7303,3,1,19,28,"male","R","immoralOther","immoralSelf","Nonmatching","Other","Other","Stranger","Bad","n",958.5,0.9585,1
7303,3,1,20,28,"male","R","immoralSelf","moralOther","Nonmatching","Self","Self","Self","Bad","m",769.5,0.7695,0
7303,3,1,21,28,"male","R","immoralSelf","immoralSelf","Matching","Self","Self","Self","Bad","n",728.6,0.7286,0
7303,3,1,22,28,"male","R","immoralSelf","moralOther","Nonmatching","Self","Self","Self","Bad","n",771.1,0.7711,1
7303,3,1,23,28,"male","R","moralOther","moralSelf","Nonmatching","Other","Other","Stranger","Good","m",674.2,0.6742,0
7303,3,1,24,28,"male","R","moralOther","moralOther","Matching","Other","Other","Stranger","Good","m",1023.5,1.0235,1
7303,3,2,1,28,"male","R","moralOther","immoralOther","Nonmatching","Other","Other","Stranger","Good","n",691.9,0.6919,1
7303,3,2,2,28,"male","R","moralSelf","moralSelf","Matching","Self","Self","Self","Good","m",593.5,0.5935,1
7303,3,2,3,28,"male","R","immoralOther","immoralSelf","Nonmatching","Other","Other","Stranger","Bad","n",809.1,0.8091,1
7303,3,2,4,28,"male","R","immoralOther","immoralOther","Matching","Other","Other","Stranger","Bad","m",753.2,0.7532,1
7303,3,2,5,28,"male","R","moralOther","moralOther","Matching","Other","Other","Stranger","Good","m",772.3,0.7723,1
7303,3,2,6,28,"male","R","moralSelf","moralSelf","Matching","Self","Self","Self","Good","m",667.2,0.6672,1
7303,3,2,7,28,"male","R","immoralSelf","immoralSelf","Matching","Self","Self","Self","Bad","n",636.3,0.6363,0
7303,3,2,8,28,"male","R","moralOther","moralOther","Matching","Other","Other","Stranger","Good","m",604.9,0.6049,1
7303,3,2,9,28,"male","R","moralOther","immoralOther","Nonmatching","Other","Other","Stranger","Good","n",544.8,0.5448,1
7303,3,2,10,28,"male","R","immoralSelf","immoralSelf","Matching","Self","Self","Self","Bad","m",703.3,0.7033,1
7303,3,2,11,28,"male","R","moralOther","immoralSelf","Nonmatching","Other","Other","Stranger","Good","n",689.4,0.6894,1
7303,3,2,12,28,"male","R","immoralSelf","immoralSelf","Matching","Self","Self","Self","Bad","m",706.8,0.7068,1
7303,3,2,13,28,"male","R","moralSelf","immoralOther","Nonmatching","Self","Self","Self","Good","m",540.8,0.5408,0
7303,3,2,14,28,"male","R","immoralSelf","immoralOther","Nonmatching","Self","Self","Self","Bad","n",667.5,0.6675,1
7303,3,2,15,28,"male","R","moralSelf","moralOther","Nonmatching","Self","Self","Self","Good","n",748.5,0.7485,1
7303,3,2,16,28,"male","R","moralSelf","moralOther","Nonmatching","Self","Self","Self","Good","n",835.1,0.8351,1
7303,3,2,17,28,"male","R","immoralSelf","immoralOther","Nonmatching","Self","Self","Self","Bad","n",875.6,0.8756,1
7303,3,2,18,28,"male","R","moralOther","moralOther","Matching","Other","Other","Stranger","Good","n",721,0.721,0
7303,3,2,19,28,"male","R","immoralOther","immoralSelf","Nonmatching","Other","Other","Stranger","Bad","n",871.3,0.8713,1
7303,3,2,20,28,"male","R","immoralOther","immoralOther","Matching","Other","Other","Stranger","Bad","m",988.5,0.9885,1
7303,3,2,21,28,"male","R","immoralOther","moralSelf","Nonmatching","Other","Other","Stranger","Bad","n",724.1,0.7241,1
7303,3,2,22,28,"male","R","immoralOther","immoralOther","Matching","Other","Other","Stranger","Bad","m",810.4,0.8104,1
7303,3,2,23,28,"male","R","immoralSelf","moralOther","Nonmatching","Self","Self","Self","Bad","n",778.4,0.7784,1
7303,3,2,24,28,"male","R","moralSelf","moralSelf","Matching","Self","Self","Self","Good","m",661.8,0.6618,1
7303,3,3,1,28,"male","R","immoralSelf","immoralOther","Nonmatching","Self","Self","Self","Bad","n",774.8,0.7748,1
7303,3,3,2,28,"male","R","immoralOther","immoralOther","Matching","Other","Other","Stranger","Bad","m",642.2,0.6422,1
7303,3,3,3,28,"male","R","immoralSelf","immoralSelf","Matching","Self","Self","Self","Bad","m",666.8,0.6668,1
7303,3,3,4,28,"male","R","immoralOther","immoralOther","Matching","Other","Other","Stranger","Bad","n",755.8,0.7558,0
7303,3,3,5,28,"male","R","moralOther","immoralOther","Nonmatching","Other","Other","Stranger","Good","m",670.7,0.6707,0
7303,3,3,6,28,"male","R","immoralOther","immoralSelf","Nonmatching","Other","Other","Stranger","Bad","n",820,0.82,1
7303,3,3,7,28,"male","R","immoralOther","moralOther","Nonmatching","Other","Other","Stranger","Bad","n",820,0.82,1
7303,3,3,8,28,"male","R","immoralSelf","immoralOther","Nonmatching","Self","Self","Self","Bad","n",780.2,0.7802,1
7303,3,3,9,28,"male","R","immoralOther","immoralSelf","Nonmatching","Other","Other","Stranger","Bad","n",727.5,0.7275,1
7303,3,3,10,28,"male","R","immoralSelf","immoralOther","Nonmatching","Self","Self","Self","Bad","m",834,0.834,0
7303,3,3,11,28,"male","R","immoralSelf","immoralSelf","Matching","Self","Self","Self","Bad","m",858.5,0.8585,1
7303,3,3,12,28,"male","R","moralOther","moralOther","Matching","Other","Other","Stranger","Good","m",931.6,0.9316,1
7303,3,3,13,28,"male","R","moralSelf","moralSelf","Matching","Self","Self","Self","Good","n",686,0.686,0
7303,3,3,14,28,"male","R","moralOther","moralOther","Matching","Other","Other","Stranger","Good","m",903.5,0.9035,1
7303,3,3,15,28,"male","R","moralSelf","immoralOther","Nonmatching","Self","Self","Self","Good","n",809.5,0.8095,1
7303,3,3,16,28,"male","R","moralSelf","moralSelf","Matching","Self","Self","Self","Good","m",865.5,0.8655,1
7303,3,3,17,28,"male","R","moralSelf","moralSelf","Matching","Self","Self","Self","Good","m",730.7,0.7307,1
7303,3,3,18,28,"male","R","moralOther","moralOther","Matching","Other","Other","Stranger","Good","m",876.9,0.8769,1
7303,3,3,19,28,"male","R","immoralSelf","immoralSelf","Matching","Self","Self","Self","Bad","m",962.2,0.9622,1
7303,3,3,20,28,"male","R","moralSelf","immoralOther","Nonmatching","Self","Self","Self","Good","n",697.5,0.6975,1
7303,3,3,21,28,"male","R","immoralOther","immoralOther","Matching","Other","Other","Stranger","Bad","m",767.2,0.7672,1
7303,3,3,22,28,"male","R","moralOther","immoralSelf","Nonmatching","Other","Other","Stranger","Good","n",766.4,0.7664,1
7303,3,3,23,28,"male","R","moralOther","immoralSelf","Nonmatching","Other","Other","Stranger","Good","n",749.6,0.7496,1
7303,3,3,24,28,"male","R","moralSelf","immoralSelf","Nonmatching","Self","Self","Self","Good","n",844.2,0.8442,1
7303,3,4,1,28,"male","R","immoralOther","immoralOther","Matching","Other","Other","Stranger","Bad","m",840.2,0.8402,1
7303,3,4,2,28,"male","R","moralOther","moralOther","Matching","Other","Other","Stranger","Good","m",728.8,0.7288,1
7303,3,4,3,28,"male","R","immoralOther","immoralOther","Matching","Other","Other","Stranger","Bad","m",803.3,0.8033,1
7303,3,4,4,28,"male","R","immoralSelf","moralSelf","Nonmatching","Self","Self","Self","Bad","n",767.1,0.7671,1
7303,3,4,5,28,"male","R","moralOther","moralOther","Matching","Other","Other","Stranger","Good","m",646.3,0.6463,1
7303,3,4,6,28,"male","R","moralSelf","moralOther","Nonmatching","Self","Self","Self","Good","m",747.1,0.7471,0
7303,3,4,7,28,"male","R","immoralOther","immoralOther","Matching","Other","Other","Stranger","Bad","m",705.7,0.7057,1
7303,3,4,8,28,"male","R","moralSelf","moralSelf","Matching","Self","Self","Self","Good","m",747.7,0.7477,1
7303,3,4,9,28,"male","R","immoralSelf","immoralSelf","Matching","Self","Self","Self","Bad","m",722.4,0.7224,1
7303,3,4,10,28,"male","R","moralSelf","moralOther","Nonmatching","Self","Self","Self","Good","n",832.5,0.8325,1
7303,3,4,11,28,"male","R","moralSelf","moralOther","Nonmatching","Self","Self","Self","Good","m",809.1,0.8091,0
7303,3,4,12,28,"male","R","moralSelf","moralSelf","Matching","Self","Self","Self","Good","m",737.3,0.7373,1
7303,3,4,13,28,"male","R","immoralSelf","immoralSelf","Matching","Self","Self","Self","Bad","m",691.6,0.6916,1
7303,3,4,14,28,"male","R","moralOther","moralSelf","Nonmatching","Other","Other","Stranger","Good","n",785.4,0.7854,1
7303,3,4,15,28,"male","R","immoralSelf","immoralOther","Nonmatching","Self","Self","Self","Bad","n",761.1,0.7611,1
7303,3,4,16,28,"male","R","immoralOther","moralSelf","Nonmatching","Other","Other","Stranger","Bad","n",740,0.74,1
7303,3,4,17,28,"male","R","immoralOther","immoralSelf","Nonmatching","Other","Other","Stranger","Bad","n",762.6,0.7626,1
7303,3,4,18,28,"male","R","immoralSelf","immoralSelf","Matching","Self","Self","Self","Bad","n",705.8,0.7058,0
7303,3,4,19,28,"male","R","immoralOther","moralOther","Nonmatching","Other","Other","Stranger","Bad","n",827.6,0.8276,1
7303,3,4,20,28,"male","R","moralOther","moralSelf","Nonmatching","Other","Other","Stranger","Good","n",840.1,0.8401,1
7303,3,4,21,28,"male","R","immoralSelf","moralSelf","Nonmatching","Self","Self","Self","Bad","n",728.7,0.7287,1
7303,3,4,22,28,"male","R","moralOther","immoralOther","Nonmatching","Other","Other","Stranger","Good","n",843.1,0.8431,1
7303,3,4,23,28,"male","R","moralSelf","moralSelf","Matching","Self","Self","Self","Good","m",747.6,0.7476,1
7303,3,4,24,28,"male","R","moralOther","moralOther","Matching","Other","Other","Stranger","Good","n",834.3,0.8343,0
7303,3,5,1,28,"male","R","moralOther","immoralSelf","Nonmatching","Other","Other","Stranger","Good","n",722.9,0.7229,1
7303,3,5,2,28,"male","R","moralSelf","moralOther","Nonmatching","Self","Self","Self","Good","m",985,0.985,0
7303,3,5,3,28,"male","R","moralOther","moralOther","Matching","Other","Other","Stranger","Good","m",908.4,0.9084,1
7303,3,5,4,28,"male","R","immoralOther","moralSelf","Nonmatching","Other","Other","Stranger","Bad","n",686.4,0.6864,1
7303,3,5,5,28,"male","R","immoralSelf","immoralOther","Nonmatching","Self","Self","Self","Bad","n",863.9,0.8639,1
7303,3,5,6,28,"male","R","moralSelf","moralSelf","Matching","Self","Self","Self","Good","m",609,0.609,1
7303,3,5,7,28,"male","R","immoralOther","immoralOther","Matching","Other","Other","Stranger","Bad","m",745,0.745,1
7303,3,5,8,28,"male","R","moralOther","immoralOther","Nonmatching","Other","Other","Stranger","Good","n",575.7,0.5757,1
7303,3,5,9,28,"male","R","immoralSelf","immoralSelf","Matching","Self","Self","Self","Bad","m",659.1,0.6591,1
7303,3,5,10,28,"male","R","immoralSelf","moralOther","Nonmatching","Self","Self","Self","Bad","n",756.2,0.7562,1
7303,3,5,11,28,"male","R","moralOther","moralOther","Matching","Other","Other","Stranger","Good","m",895.1,0.8951,1
7303,3,5,12,28,"male","R","moralSelf","moralSelf","Matching","Self","Self","Self","Good","m",604.9,0.6049,1
7303,3,5,13,28,"male","R","moralSelf","moralSelf","Matching","Self","Self","Self","Good","m",680.6,0.6806,1
7303,3,5,14,28,"male","R","immoralOther","immoralOther","Matching","Other","Other","Stranger","Bad","n",534.4,0.5344,0
7303,3,5,15,28,"male","R","immoralOther","immoralOther","Matching","Other","Other","Stranger","Bad","m",632.8,0.6328,1
7303,3,5,16,28,"male","R","immoralOther","moralSelf","Nonmatching","Other","Other","Stranger","Bad","n",721.4,0.7214,1
7303,3,5,17,28,"male","R","moralSelf","immoralSelf","Nonmatching","Self","Self","Self","Good","n",687.6,0.6876,1
7303,3,5,18,28,"male","R","moralOther","moralOther","Matching","Other","Other","Stranger","Good","n",673,0.673,0
7303,3,5,19,28,"male","R","immoralOther","immoralSelf","Nonmatching","Other","Other","Stranger","Bad","n",582.3,0.5823,1
7303,3,5,20,28,"male","R","moralOther","moralSelf","Nonmatching","Other","Other","Stranger","Good","m",505.7,0.5057,0
7303,3,5,21,28,"male","R","immoralSelf","immoralSelf","Matching","Self","Self","Self","Bad","m",547.7,0.5477,1
7303,3,5,22,28,"male","R","moralSelf","immoralSelf","Nonmatching","Self","Self","Self","Good","n",802.3,0.8023,1
7303,3,5,23,28,"male","R","immoralSelf","moralSelf","Nonmatching","Self","Self","Self","Bad","n",766.2,0.7662,1
7303,3,5,24,28,"male","R","immoralSelf","immoralSelf","Matching","Self","Self","Self","Bad","m",741.4,0.7414,1
7304,1,1,1,25,"female","R","immoralOther","immoralSelf","Nonmatching","Other","Other","Stranger","Bad","n",724.7,0.7247,0
7304,1,1,1,25,"female","R","immoralSelf","immoralSelf","Matching","Self","Self","Self","Bad","h",948.7,0.9487,2
7304,1,1,1,25,"female","R","moralSelf","moralOther","Nonmatching","Self","Self","Self","Good","u",717.3,0.7173,2
7304,1,1,1,25,"female","R","moralOther","immoralOther","Nonmatching","Other","Other","Stranger","Good","m",742.3,0.7423,1
7304,1,1,1,25,"female","R","immoralSelf","immoralSelf","Matching","Self","Self","Self","Bad","n",751.6,0.7516,1
7304,1,1,1,25,"female","R","immoralOther","moralOther","Nonmatching","Other","Other","Stranger","Bad","m",724.3,0.7243,1
7304,1,1,2,25,"female","R","immoralSelf","moralSelf","Nonmatching","Self","Self","Self","Bad","m",878.6,0.8786,1
7304,1,1,2,25,"female","R","immoralSelf","moralSelf","Nonmatching","Self","Self","Self","Bad","h",392.9,0.3929,2
7304,1,1,2,25,"female","R","immoralOther","moralSelf","Nonmatching","Other","Other","Stranger","Bad",NA,1033,1.033,-1
7304,1,1,2,25,"female","R","immoralOther","immoralOther","Matching","Other","Other","Stranger","Bad","n",780.4,0.7804,1
7304,1,1,2,25,"female","R","immoralSelf","immoralSelf","Matching","Self","Self","Self","Bad","m",627.7,0.6277,0
7304,1,1,2,25,"female","R","immoralOther","immoralOther","Matching","Other","Other","Stranger","Bad","n",782.4,0.7824,1
7304,1,1,3,25,"female","R","moralOther","moralOther","Matching","Other","Other","Stranger","Good","n",816.7,0.8167,1
7304,1,1,3,25,"female","R","immoralOther","immoralOther","Matching","Other","Other","Stranger","Bad","h",133.1,0.1331,2
7304,1,1,3,25,"female","R","immoralOther","immoralSelf","Nonmatching","Other","Other","Stranger","Bad","m",1003.4,1.0034,1
7304,1,1,3,25,"female","R","immoralSelf","moralSelf","Nonmatching","Self","Self","Self","Bad","n",522.6,0.5226,0
7304,1,1,3,25,"female","R","moralOther","immoralSelf","Nonmatching","Other","Other","Stranger","Good",NA,1033,1.033,-1
7304,1,1,3,25,"female","R","moralOther","moralOther","Matching","Other","Other","Stranger","Good","n",892.5,0.8925,1
7304,1,1,4,25,"female","R","immoralOther","immoralOther","Matching","Other","Other","Stranger","Bad","m",872.8,0.8728,0
7304,1,1,4,25,"female","R","immoralOther","immoralOther","Matching","Other","Other","Stranger","Bad","m",533,0.533,0
7304,1,1,4,25,"female","R","immoralOther","immoralOther","Matching","Other","Other","Stranger","Bad","n",917.6,0.9176,1
7304,1,1,4,25,"female","R","immoralOther","immoralSelf","Nonmatching","Other","Other","Stranger","Bad",NA,1033,1.033,-1
7304,1,1,4,25,"female","R","immoralOther","immoralOther","Matching","Other","Other","Stranger","Bad","n",811.9,0.8119,1
7304,1,1,4,25,"female","R","immoralSelf","immoralSelf","Matching","Self","Self","Self","Bad","n",628.7,0.6287,1
7304,1,1,5,25,"female","R","moralOther","moralSelf","Nonmatching","Other","Other","Stranger","Good","n",684.9,0.6849,0
7304,1,1,5,25,"female","R","immoralOther","moralOther","Nonmatching","Other","Other","Stranger","Bad","m",661.2,0.6612,1
7304,1,1,5,25,"female","R","immoralSelf","immoralSelf","Matching","Self","Self","Self","Bad","n",911.7,0.9117,1
7304,1,1,5,25,"female","R","immoralSelf","moralSelf","Nonmatching","Self","Self","Self","Bad","m",650.9,0.6509,1
7304,1,1,5,25,"female","R","moralOther","immoralOther","Nonmatching","Other","Other","Stranger","Good","n",684.1,0.6841,0
7304,1,1,5,25,"female","R","moralSelf","moralSelf","Matching","Self","Self","Self","Good","n",424.8,0.4248,1
7304,1,1,6,25,"female","R","immoralSelf","moralSelf","Nonmatching","Self","Self","Self","Bad","n",695.1,0.6951,0
7304,1,1,6,25,"female","R","moralSelf","moralSelf","Matching","Self","Self","Self","Good","n",443.3,0.4433,1
7304,1,1,6,25,"female","R","moralOther","moralSelf","Nonmatching","Other","Other","Stranger","Good","m",603.8,0.6038,1
7304,1,1,6,25,"female","R","immoralOther","immoralOther","Matching","Other","Other","Stranger","Bad","n",699,0.699,1
7304,1,1,6,25,"female","R","moralSelf","moralSelf","Matching","Self","Self","Self","Good","n",542.2,0.5422,1
7304,1,1,6,25,"female","R","moralSelf","moralSelf","Matching","Self","Self","Self","Good","n",574.9,0.5749,1
7304,1,1,7,25,"female","R","moralSelf","moralSelf","Matching","Self","Self","Self","Good","n",495.1,0.4951,1
7304,1,1,7,25,"female","R","moralSelf","moralSelf","Matching","Self","Self","Self","Good","n",549.3,0.5493,1
7304,1,1,7,25,"female","R","immoralSelf","moralSelf","Nonmatching","Self","Self","Self","Bad","n",798,0.798,0
7304,1,1,7,25,"female","R","moralSelf","immoralSelf","Nonmatching","Self","Self","Self","Good","n",873.1,0.8731,0
7304,1,1,7,25,"female","R","immoralSelf","immoralOther","Nonmatching","Self","Self","Self","Bad","m",676.3,0.6763,1
7304,1,1,7,25,"female","R","immoralOther","immoralOther","Matching","Other","Other","Stranger","Bad","m",655,0.655,0
7304,1,1,8,25,"female","R","immoralOther","immoralOther","Matching","Other","Other","Stranger","Bad","m",871.3,0.8713,0
7304,1,1,8,25,"female","R","immoralSelf","moralSelf","Nonmatching","Self","Self","Self","Bad","m",785.5,0.7855,1
7304,1,1,8,25,"female","R","immoralSelf","moralOther","Nonmatching","Self","Self","Self","Bad","m",888.1,0.8881,1
7304,1,1,8,25,"female","R","moralSelf","moralSelf","Matching","Self","Self","Self","Good","n",581.2,0.5812,1
7304,1,1,8,25,"female","R","immoralOther","moralOther","Nonmatching","Other","Other","Stranger","Bad","n",800.4,0.8004,0
7304,1,1,8,25,"female","R","moralOther","immoralSelf","Nonmatching","Other","Other","Stranger","Good","m",833.1,0.8331,1
7304,1,1,9,25,"female","R","moralSelf","moralSelf","Matching","Self","Self","Self","Good","n",595.4,0.5954,1
7304,1,1,9,25,"female","R","immoralSelf","immoralSelf","Matching","Self","Self","Self","Bad","n",655.6,0.6556,1
7304,1,1,9,25,"female","R","moralOther","moralOther","Matching","Other","Other","Stranger","Good","n",728.3,0.7283,1
7304,1,1,9,25,"female","R","moralSelf","moralOther","Nonmatching","Self","Self","Self","Good","m",723.3,0.7233,1
7304,1,1,9,25,"female","R","moralSelf","moralSelf","Matching","Self","Self","Self","Good","n",530.6,0.5306,1
7304,1,1,9,25,"female","R","immoralOther","immoralOther","Matching","Other","Other","Stranger","Bad","n",653.2,0.6532,1
7304,1,1,10,25,"female","R","immoralOther","immoralOther","Matching","Other","Other","Stranger","Bad","n",687.5,0.6875,1
7304,1,1,10,25,"female","R","moralSelf","immoralSelf","Nonmatching","Self","Self","Self","Good","n",671.7,0.6717,0
7304,1,1,10,25,"female","R","moralSelf","moralSelf","Matching","Self","Self","Self","Good","n",528.4,0.5284,1
7304,1,1,10,25,"female","R","immoralOther","immoralOther","Matching","Other","Other","Stranger","Bad","n",733.4,0.7334,1
7304,1,1,10,25,"female","R","moralOther","moralSelf","Nonmatching","Other","Other","Stranger","Good","m",778.7,0.7787,1
7304,1,1,10,25,"female","R","immoralSelf","moralSelf","Nonmatching","Self","Self","Self","Bad","m",821.3,0.8213,1
7304,1,1,11,25,"female","R","moralSelf","immoralSelf","Nonmatching","Self","Self","Self","Good","m",679.6,0.6796,1
7304,1,1,11,25,"female","R","moralOther","moralOther","Matching","Other","Other","Stranger","Good","n",763.8,0.7638,1
7304,1,1,11,25,"female","R","immoralOther","immoralOther","Matching","Other","Other","Stranger","Bad","n",808.4,0.8084,1
7304,1,1,11,25,"female","R","immoralSelf","immoralSelf","Matching","Self","Self","Self","Bad","n",637.5,0.6375,1
7304,1,1,11,25,"female","R","moralOther","moralOther","Matching","Other","Other","Stranger","Good","n",680.7,0.6807,1
7304,1,1,11,25,"female","R","immoralOther","moralSelf","Nonmatching","Other","Other","Stranger","Bad","m",739.4,0.7394,1
7304,1,1,12,25,"female","R","moralOther","immoralSelf","Nonmatching","Other","Other","Stranger","Good","n",817.7,0.8177,0
7304,1,1,12,25,"female","R","immoralSelf","immoralSelf","Matching","Self","Self","Self","Bad","n",621.9,0.6219,1
7304,1,1,12,25,"female","R","immoralOther","moralOther","Nonmatching","Other","Other","Stranger","Bad","n",696.6,0.6966,0
7304,1,1,12,25,"female","R","immoralSelf","immoralSelf","Matching","Self","Self","Self","Bad","n",807.6,0.8076,1
7304,1,1,12,25,"female","R","immoralSelf","immoralOther","Nonmatching","Self","Self","Self","Bad","m",714.9,0.7149,1
7304,1,1,12,25,"female","R","immoralSelf","immoralSelf","Matching","Self","Self","Self","Bad","n",561.6,0.5616,1
7304,1,1,13,25,"female","R","immoralSelf","immoralSelf","Matching","Self","Self","Self","Bad","m",743.9,0.7439,0
7304,1,1,13,25,"female","R","moralOther","moralOther","Matching","Other","Other","Stranger","Good","n",756.1,0.7561,1
7304,1,1,13,25,"female","R","moralOther","moralSelf","Nonmatching","Other","Other","Stranger","Good","m",784.7,0.7847,1
7304,1,1,13,25,"female","R","moralSelf","immoralOther","Nonmatching","Self","Self","Self","Good","m",663.8,0.6638,1
7304,1,1,13,25,"female","R","moralOther","moralOther","Matching","Other","Other","Stranger","Good","n",847,0.847,1
7304,1,1,13,25,"female","R","moralSelf","moralSelf","Matching","Self","Self","Self","Good","n",475.8,0.4758,1
7304,1,1,14,25,"female","R","moralSelf","immoralSelf","Nonmatching","Self","Self","Self","Good","n",350,0.35,0
7304,1,1,14,25,"female","R","immoralOther","moralSelf","Nonmatching","Other","Other","Stranger","Bad","n",800.2,0.8002,0
7304,1,1,14,25,"female","R","moralSelf","immoralSelf","Nonmatching","Self","Self","Self","Good","n",822.8,0.8228,0
7304,1,1,14,25,"female","R","immoralSelf","moralOther","Nonmatching","Self","Self","Self","Bad","m",877.9,0.8779,1
7304,1,1,14,25,"female","R","immoralOther","immoralOther","Matching","Other","Other","Stranger","Bad","n",705.1,0.7051,1
7304,1,1,14,25,"female","R","moralOther","moralOther","Matching","Other","Other","Stranger","Good","n",751.8,0.7518,1
7304,1,1,15,25,"female","R","immoralSelf","immoralOther","Nonmatching","Self","Self","Self","Bad",NA,1033,1.033,-1
7304,1,1,15,25,"female","R","moralOther","moralOther","Matching","Other","Other","Stranger","Good","n",634.4,0.6344,1
7304,1,1,15,25,"female","R","moralSelf","moralSelf","Matching","Self","Self","Self","Good","n",540.9,0.5409,1
7304,1,1,15,25,"female","R","moralSelf","moralSelf","Matching","Self","Self","Self","Good","n",528.1,0.5281,1
7304,1,1,15,25,"female","R","moralSelf","immoralOther","Nonmatching","Self","Self","Self","Good","m",647.3,0.6473,1
7304,1,1,15,25,"female","R","moralSelf","immoralOther","Nonmatching","Self","Self","Self","Good","m",731.8,0.7318,1
7304,1,1,16,25,"female","R","immoralOther","moralSelf","Nonmatching","Other","Other","Stranger","Bad","n",758.2,0.7582,0
7304,1,1,16,25,"female","R","moralOther","moralSelf","Nonmatching","Other","Other","Stranger","Good","n",846.4,0.8464,0
7304,1,1,16,25,"female","R","immoralSelf","immoralSelf","Matching","Self","Self","Self","Bad","m",811,0.811,0
7304,1,1,16,25,"female","R","moralOther","moralOther","Matching","Other","Other","Stranger","Good","m",728.1,0.7281,0
7304,1,1,16,25,"female","R","moralSelf","moralOther","Nonmatching","Self","Self","Self","Good","m",695.4,0.6954,1
7304,1,1,16,25,"female","R","moralSelf","immoralOther","Nonmatching","Self","Self","Self","Good","m",812,0.812,1
7304,1,1,17,25,"female","R","moralSelf","immoralOther","Nonmatching","Self","Self","Self","Good","m",736.3,0.7363,1
7304,1,1,17,25,"female","R","moralOther","immoralSelf","Nonmatching","Other","Other","Stranger","Good","m",832.5,0.8325,1
7304,1,1,17,25,"female","R","moralOther","moralOther","Matching","Other","Other","Stranger","Good","n",859.2,0.8592,1
7304,1,1,17,25,"female","R","moralSelf","moralSelf","Matching","Self","Self","Self","Good","n",704.3,0.7043,1
7304,1,1,17,25,"female","R","immoralSelf","immoralOther","Nonmatching","Self","Self","Self","Bad","m",703.5,0.7035,1
7304,1,1,17,25,"female","R","moralOther","immoralOther","Nonmatching","Other","Other","Stranger","Good","n",788.1,0.7881,0
7304,1,1,18,25,"female","R","immoralOther","moralOther","Nonmatching","Other","Other","Stranger","Bad",NA,1033,1.033,-1
7304,1,1,18,25,"female","R","moralOther","immoralSelf","Nonmatching","Other","Other","Stranger","Good","m",748.6,0.7486,1
7304,1,1,18,25,"female","R","moralOther","moralOther","Matching","Other","Other","Stranger","Good","n",769.3,0.7693,1
7304,1,1,18,25,"female","R","immoralOther","immoralSelf","Nonmatching","Other","Other","Stranger","Bad","m",854.4,0.8544,1
7304,1,1,18,25,"female","R","moralSelf","immoralOther","Nonmatching","Self","Self","Self","Good","m",565.5,0.5655,1
7304,1,1,18,25,"female","R","immoralSelf","immoralOther","Nonmatching","Self","Self","Self","Bad","m",952.3,0.9523,1
7304,1,1,19,25,"female","R","immoralSelf","immoralSelf","Matching","Self","Self","Self","Bad","m",892.6,0.8926,0
7304,1,1,19,25,"female","R","moralSelf","moralOther","Nonmatching","Self","Self","Self","Good","m",768.8,0.7688,1
7304,1,1,19,25,"female","R","immoralOther","immoralOther","Matching","Other","Other","Stranger","Bad","n",929.4,0.9294,1
7304,1,1,19,25,"female","R","moralOther","moralOther","Matching","Other","Other","Stranger","Good","n",726.5,0.7265,1
7304,1,1,19,25,"female","R","immoralOther","moralOther","Nonmatching","Other","Other","Stranger","Bad","m",711.7,0.7117,1
7304,1,1,19,25,"female","R","immoralSelf","moralSelf","Nonmatching","Self","Self","Self","Bad","m",716.5,0.7165,1
7304,1,1,20,25,"female","R","moralOther","moralOther","Matching","Other","Other","Stranger","Good","m",852.7,0.8527,0
7304,1,1,20,25,"female","R","moralSelf","moralSelf","Matching","Self","Self","Self","Good","n",601,0.601,1
7304,1,1,20,25,"female","R","immoralSelf","immoralSelf","Matching","Self","Self","Self","Bad","n",673.6,0.6736,1
7304,1,1,20,25,"female","R","moralOther","immoralOther","Nonmatching","Other","Other","Stranger","Good","m",728.6,0.7286,1
7304,1,1,20,25,"female","R","immoralSelf","immoralSelf","Matching","Self","Self","Self","Bad","n",643.8,0.6438,1
7304,1,1,20,25,"female","R","moralSelf","moralOther","Nonmatching","Self","Self","Self","Good","m",616.6,0.6166,1
7304,1,1,21,25,"female","R","moralOther","immoralOther","Nonmatching","Other","Other","Stranger","Good","n",684.8,0.6848,0
7304,1,1,21,25,"female","R","moralSelf","immoralOther","Nonmatching","Self","Self","Self","Good","m",827.1,0.8271,1
7304,1,1,21,25,"female","R","moralOther","moralSelf","Nonmatching","Other","Other","Stranger","Good","m",837.6,0.8376,1
7304,1,1,21,25,"female","R","moralOther","moralOther","Matching","Other","Other","Stranger","Good","n",672.7,0.6727,1
7304,1,1,21,25,"female","R","immoralOther","moralSelf","Nonmatching","Other","Other","Stranger","Bad","m",653.9,0.6539,1
7304,1,1,21,25,"female","R","immoralOther","moralOther","Nonmatching","Other","Other","Stranger","Bad","n",944.6,0.9446,0
7304,1,1,22,25,"female","R","immoralSelf","immoralSelf","Matching","Self","Self","Self","Bad","m",407,0.407,0
7304,1,1,22,25,"female","R","immoralSelf","moralSelf","Nonmatching","Self","Self","Self","Bad","n",641.2,0.6412,0
7304,1,1,22,25,"female","R","moralSelf","moralOther","Nonmatching","Self","Self","Self","Good","m",623.8,0.6238,1
7304,1,1,22,25,"female","R","moralOther","immoralOther","Nonmatching","Other","Other","Stranger","Good","m",732.9,0.7329,1
7304,1,1,22,25,"female","R","immoralOther","immoralOther","Matching","Other","Other","Stranger","Bad","n",694,0.694,1
7304,1,1,22,25,"female","R","immoralSelf","immoralSelf","Matching","Self","Self","Self","Bad","n",830.7,0.8307,1
7304,1,1,23,25,"female","R","moralSelf","moralSelf","Matching","Self","Self","Self","Good","n",361.1,0.3611,1
7304,1,1,23,25,"female","R","immoralOther","moralOther","Nonmatching","Other","Other","Stranger","Bad","m",659.2,0.6592,1
7304,1,1,23,25,"female","R","moralSelf","moralSelf","Matching","Self","Self","Self","Good","n",549.9,0.5499,1
7304,1,1,23,25,"female","R","immoralSelf","immoralSelf","Matching","Self","Self","Self","Bad","n",653,0.653,1
7304,1,1,23,25,"female","R","moralOther","moralOther","Matching","Other","Other","Stranger","Good","n",894.1,0.8941,1
7304,1,1,23,25,"female","R","moralOther","moralOther","Matching","Other","Other","Stranger","Good","n",618.8,0.6188,1
7304,1,1,24,25,"female","R","moralOther","moralOther","Matching","Other","Other","Stranger","Good","n",963.1,0.9631,1
7304,1,1,24,25,"female","R","immoralOther","immoralOther","Matching","Other","Other","Stranger","Bad","n",745.4,0.7454,1
7304,1,1,24,25,"female","R","immoralSelf","moralSelf","Nonmatching","Self","Self","Self","Bad","n",810,0.81,0
7304,1,1,24,25,"female","R","immoralOther","moralOther","Nonmatching","Other","Other","Stranger","Bad","m",765,0.765,1
7304,1,1,24,25,"female","R","moralSelf","moralSelf","Matching","Self","Self","Self","Good","n",566.3,0.5663,1
7304,1,1,24,25,"female","R","moralOther","immoralOther","Nonmatching","Other","Other","Stranger","Good","m",641,0.641,1
