"","Subject","Block","Bin","Trial","Age","Gender","Handedness","Shape","Label","Matching","Origin_Identity","English_Identity","Standarlized_Identity","Morality","Response","RT_ms","RT_sec","ACC"
"1",7302,1,1,1,22,"female","R","immoralSelf","immoralOther","Nonmatching","Self","Self","Self","Bad","m",756.1,0.7561,0
"2",7302,1,1,2,22,"female","R","moralOther","moralSelf","Nonmatching","Other","Other","Stranger","Good","n",704.3,0.7043,1
"3",7302,1,1,3,22,"female","R","immoralOther","moralOther","Nonmatching","Other","Other","Stranger","Bad","n",990.3,0.9903,1
"4",7302,1,1,4,22,"female","R","moralSelf","immoralSelf","Nonmatching","Self","Self","Self","Good",NA,1042,1.042,-1
"5",7302,1,1,5,22,"female","R","immoralSelf","immoralSelf","Matching","Self","Self","Self","Bad","m",820.7,0.8207,1
"6",7302,1,1,6,22,"female","R","immoralSelf","immoralSelf","Matching","Self","Self","Self","Bad","m",754.7,0.7547,1
"7",7302,1,1,7,22,"female","R","moralOther","moralOther","Matching","Other","Other","Stranger","Good","m",542.9,0.5429,1
"8",7302,1,1,8,22,"female","R","moralSelf","moralSelf","Matching","Self","Self","Self","Good","m",900.9,0.9009,1
"9",7302,1,1,9,22,"female","R","moralOther","immoralSelf","Nonmatching","Other","Other","Stranger","Good","n",955.1,0.9551,1
"10",7302,1,1,10,22,"female","R","immoralSelf","moralOther","Nonmatching","Self","Self","Self","Bad","n",695.2,0.6952,1
"11",7302,1,1,11,22,"female","R","moralOther","moralSelf","Nonmatching","Other","Other","Stranger","Good","n",759.3,0.7593,1
"12",7302,1,1,12,22,"female","R","immoralOther","immoralOther","Matching","Other","Other","Stranger","Bad","m",713.5,0.7135,1
"13",7302,1,1,13,22,"female","R","moralOther","moralOther","Matching","Other","Other","Stranger","Good","m",565.6,0.5656,1
"14",7302,1,1,14,22,"female","R","moralSelf","immoralSelf","Nonmatching","Self","Self","Self","Good","m",535.7,0.5357,0
"15",7302,1,1,15,22,"female","R","immoralOther","immoralOther","Matching","Other","Other","Stranger","Bad","m",807.8,0.8078,1
"16",7302,1,1,16,22,"female","R","immoralSelf","moralSelf","Nonmatching","Self","Self","Self","Bad","n",960,0.96,1
"17",7302,1,1,17,22,"female","R","moralSelf","immoralSelf","Nonmatching","Self","Self","Self","Good","n",666.1,0.6661,1
"18",7302,1,1,18,22,"female","R","moralSelf","moralSelf","Matching","Self","Self","Self","Good","m",696.2,0.6962,1
"19",7302,1,1,19,22,"female","R","immoralSelf","immoralSelf","Matching","Self","Self","Self","Bad","n",880.3,0.8803,0
"20",7302,1,1,20,22,"female","R","moralOther","moralOther","Matching","Other","Other","Stranger","Good","m",578.5,0.5785,1
"21",7302,1,1,21,22,"female","R","immoralOther","moralOther","Nonmatching","Other","Other","Stranger","Bad","n",784.5,0.7845,1
"22",7302,1,1,22,22,"female","R","moralSelf","moralSelf","Matching","Self","Self","Self","Good","m",814.6,0.8146,1
"23",7302,1,1,23,22,"female","R","immoralOther","immoralOther","Matching","Other","Other","Stranger","Bad","m",654.8,0.6548,1
"24",7302,1,1,24,22,"female","R","immoralOther","moralOther","Nonmatching","Other","Other","Stranger","Bad","n",878.9,0.8789,1
"25",7302,1,2,1,22,"female","R","moralSelf","moralSelf","Matching","Self","Self","Self","Good","m",713.1,0.7131,1
"26",7302,1,2,2,22,"female","R","moralSelf","immoralSelf","Nonmatching","Self","Self","Self","Good","m",821.1,0.8211,0
"27",7302,1,2,3,22,"female","R","immoralOther","immoralOther","Matching","Other","Other","Stranger","Bad","m",803.3,0.8033,1
"28",7302,1,2,4,22,"female","R","immoralOther","immoralSelf","Nonmatching","Other","Other","Stranger","Bad","m",629.4,0.6294,0
"29",7302,1,2,5,22,"female","R","immoralSelf","immoralOther","Nonmatching","Self","Self","Self","Bad","n",809.5,0.8095,1
"30",7302,1,2,6,22,"female","R","immoralOther","immoralOther","Matching","Other","Other","Stranger","Bad","m",617.6,0.6176,1
"31",7302,1,2,7,22,"female","R","moralSelf","moralSelf","Matching","Self","Self","Self","Good","m",791.7,0.7917,1
"32",7302,1,2,8,22,"female","R","moralOther","moralOther","Matching","Other","Other","Stranger","Good","m",555.9,0.5559,1
"33",7302,1,2,9,22,"female","R","immoralSelf","immoralOther","Nonmatching","Self","Self","Self","Bad","m",960,0.96,0
"34",7302,1,2,10,22,"female","R","moralOther","moralOther","Matching","Other","Other","Stranger","Good","m",538.1,0.5381,1
"35",7302,1,2,11,22,"female","R","immoralSelf","moralSelf","Nonmatching","Self","Self","Self","Bad",NA,1042,1.042,-1
"36",7302,1,2,12,22,"female","R","moralSelf","immoralSelf","Nonmatching","Self","Self","Self","Good","m",826.4,0.8264,0
"37",7302,1,2,13,22,"female","R","immoralSelf","immoralSelf","Matching","Self","Self","Self","Bad","m",712.5,0.7125,1
"38",7302,1,2,14,22,"female","R","moralOther","immoralOther","Nonmatching","Other","Other","Stranger","Good","m",460.9,0.4609,0
"39",7302,1,2,15,22,"female","R","moralOther","immoralOther","Nonmatching","Other","Other","Stranger","Good","n",802.7,0.8027,1
"40",7302,1,2,16,22,"female","R","immoralSelf","immoralSelf","Matching","Self","Self","Self","Bad","m",780.8,0.7808,1
"41",7302,1,2,17,22,"female","R","moralOther","immoralOther","Nonmatching","Other","Other","Stranger","Good","n",874.9,0.8749,1
"42",7302,1,2,18,22,"female","R","moralSelf","immoralOther","Nonmatching","Self","Self","Self","Good","m",871,0.871,0
"43",7302,1,2,19,22,"female","R","moralSelf","moralSelf","Matching","Self","Self","Self","Good","m",651.2,0.6512,1
"44",7302,1,2,20,22,"female","R","immoralOther","moralOther","Nonmatching","Other","Other","Stranger","Bad","n",755.4,0.7554,1
"45",7302,1,2,21,22,"female","R","immoralOther","immoralOther","Matching","Other","Other","Stranger","Bad","m",671.5,0.6715,1
"46",7302,1,2,22,22,"female","R","immoralSelf","immoralSelf","Matching","Self","Self","Self","Bad","m",907.6,0.9076,1
"47",7302,1,2,23,22,"female","R","immoralOther","moralOther","Nonmatching","Other","Other","Stranger","Bad","n",599.7,0.5997,1
"48",7302,1,2,24,22,"female","R","moralOther","moralOther","Matching","Other","Other","Stranger","Good","m",521.8,0.5218,1
"49",7302,1,3,1,22,"female","R","immoralOther","immoralOther","Matching","Other","Other","Stranger","Bad","m",731.9,0.7319,1
"50",7302,1,3,2,22,"female","R","moralOther","immoralOther","Nonmatching","Other","Other","Stranger","Good","n",764,0.764,1
"51",7302,1,3,3,22,"female","R","moralSelf","moralOther","Nonmatching","Self","Self","Self","Good",NA,1042,1.042,-1
"52",7302,1,3,4,22,"female","R","immoralSelf","moralSelf","Nonmatching","Self","Self","Self","Bad","n",744.3,0.7443,1
"53",7302,1,3,5,22,"female","R","moralOther","moralOther","Matching","Other","Other","Stranger","Good","m",510.4,0.5104,1
"54",7302,1,3,6,22,"female","R","moralOther","moralOther","Matching","Other","Other","Stranger","Good","m",770.6,0.7706,1
"55",7302,1,3,7,22,"female","R","immoralOther","immoralSelf","Nonmatching","Other","Other","Stranger","Bad","n",602.6,0.6026,1
"56",7302,1,3,8,22,"female","R","moralSelf","immoralOther","Nonmatching","Self","Self","Self","Good","n",764.8,0.7648,1
"57",7302,1,3,9,22,"female","R","immoralOther","immoralOther","Matching","Other","Other","Stranger","Bad","m",710.9,0.7109,1
"58",7302,1,3,10,22,"female","R","moralSelf","moralOther","Nonmatching","Self","Self","Self","Good","n",827,0.827,1
"59",7302,1,3,11,22,"female","R","immoralSelf","immoralSelf","Matching","Self","Self","Self","Bad","m",857.1,0.8571,1
"60",7302,1,3,12,22,"female","R","moralSelf","moralSelf","Matching","Self","Self","Self","Good","n",809.2,0.8092,0
"61",7302,1,3,13,22,"female","R","immoralSelf","immoralSelf","Matching","Self","Self","Self","Bad","m",721.3,0.7213,1
"62",7302,1,3,14,22,"female","R","immoralOther","immoralSelf","Nonmatching","Other","Other","Stranger","Bad","n",819.5,0.8195,1
"63",7302,1,3,15,22,"female","R","immoralSelf","moralSelf","Nonmatching","Self","Self","Self","Bad","n",889.6,0.8896,1
"64",7302,1,3,16,22,"female","R","moralOther","moralOther","Matching","Other","Other","Stranger","Good","m",577.8,0.5778,1
"65",7302,1,3,17,22,"female","R","immoralSelf","immoralSelf","Matching","Self","Self","Self","Bad","n",879.9,0.8799,0
"66",7302,1,3,18,22,"female","R","moralOther","moralSelf","Nonmatching","Other","Other","Stranger","Good","n",666,0.666,1
"67",7302,1,3,19,22,"female","R","immoralSelf","moralSelf","Nonmatching","Self","Self","Self","Bad","n",1008.1,1.0081,1
"68",7302,1,3,20,22,"female","R","immoralOther","immoralSelf","Nonmatching","Other","Other","Stranger","Bad","n",856.2,0.8562,1
"69",7302,1,3,21,22,"female","R","moralOther","moralSelf","Nonmatching","Other","Other","Stranger","Good","n",544.4,0.5444,1
"70",7302,1,3,22,22,"female","R","moralSelf","moralSelf","Matching","Self","Self","Self","Good","m",662.5,0.6625,1
"71",7302,1,3,23,22,"female","R","immoralOther","immoralOther","Matching","Other","Other","Stranger","Bad","n",684.6,0.6846,0
"72",7302,1,3,24,22,"female","R","moralSelf","moralSelf","Matching","Self","Self","Self","Good","m",902.7,0.9027,1
"73",7302,1,4,1,22,"female","R","immoralSelf","immoralSelf","Matching","Self","Self","Self","Bad","m",823.6,0.8236,1
"74",7302,1,4,2,22,"female","R","moralOther","immoralOther","Nonmatching","Other","Other","Stranger","Good","n",613.7,0.6137,1
"75",7302,1,4,3,22,"female","R","moralSelf","moralOther","Nonmatching","Self","Self","Self","Good","m",733.8,0.7338,0
"76",7302,1,4,4,22,"female","R","moralSelf","moralSelf","Matching","Self","Self","Self","Good","n",741.9,0.7419,0
"77",7302,1,4,5,22,"female","R","immoralOther","immoralOther","Matching","Other","Other","Stranger","Bad","m",684,0.684,1
"78",7302,1,4,6,22,"female","R","immoralOther","immoralOther","Matching","Other","Other","Stranger","Bad","m",606.2,0.6062,1
"79",7302,1,4,7,22,"female","R","immoralSelf","moralOther","Nonmatching","Self","Self","Self","Bad","n",784.2,0.7842,1
"80",7302,1,4,8,22,"female","R","moralOther","moralOther","Matching","Other","Other","Stranger","Good","m",582.4,0.5824,1
"81",7302,1,4,9,22,"female","R","moralOther","moralOther","Matching","Other","Other","Stranger","Good","m",412.6,0.4126,1
"82",7302,1,4,10,22,"female","R","moralSelf","moralSelf","Matching","Self","Self","Self","Good","m",500.6,0.5006,1
"83",7302,1,4,11,22,"female","R","immoralSelf","moralSelf","Nonmatching","Self","Self","Self","Bad","n",850.7,0.8507,1
"84",7302,1,4,12,22,"female","R","moralSelf","moralOther","Nonmatching","Self","Self","Self","Good","n",906.9,0.9069,1
"85",7302,1,4,13,22,"female","R","moralOther","moralSelf","Nonmatching","Other","Other","Stranger","Good","n",721,0.721,1
"86",7302,1,4,14,22,"female","R","immoralOther","moralSelf","Nonmatching","Other","Other","Stranger","Bad","n",635.1,0.6351,1
"87",7302,1,4,15,22,"female","R","immoralOther","moralOther","Nonmatching","Other","Other","Stranger","Bad","n",855.3,0.8553,1
"88",7302,1,4,16,22,"female","R","immoralSelf","moralOther","Nonmatching","Self","Self","Self","Bad","n",719.4,0.7194,1
"89",7302,1,4,17,22,"female","R","moralSelf","moralOther","Nonmatching","Self","Self","Self","Good","m",521.4,0.5214,0
"90",7302,1,4,18,22,"female","R","moralSelf","moralSelf","Matching","Self","Self","Self","Good","m",659.7,0.6597,1
"91",7302,1,4,19,22,"female","R","immoralSelf","immoralSelf","Matching","Self","Self","Self","Bad","m",809.7,0.8097,1
"92",7302,1,4,20,22,"female","R","immoralOther","moralOther","Nonmatching","Other","Other","Stranger","Bad","n",673.8,0.6738,1
"93",7302,1,4,21,22,"female","R","moralOther","moralOther","Matching","Other","Other","Stranger","Good","m",534,0.534,1
"94",7302,1,4,22,22,"female","R","moralOther","immoralSelf","Nonmatching","Other","Other","Stranger","Good","n",614.1,0.6141,1
"95",7302,1,4,23,22,"female","R","immoralOther","immoralOther","Matching","Other","Other","Stranger","Bad","m",646.2,0.6462,1
"96",7302,1,4,24,22,"female","R","immoralSelf","immoralSelf","Matching","Self","Self","Self","Bad","m",776.3,0.7763,1
"97",7302,1,5,1,22,"female","R","moralOther","immoralSelf","Nonmatching","Other","Other","Stranger","Good","n",696.4,0.6964,1
"98",7302,1,5,2,22,"female","R","moralOther","moralOther","Matching","Other","Other","Stranger","Good","n",880.5,0.8805,0
"99",7302,1,5,3,22,"female","R","immoralOther","immoralOther","Matching","Other","Other","Stranger","Bad","m",554.6,0.5546,1
"100",7302,1,5,4,22,"female","R","moralSelf","moralSelf","Matching","Self","Self","Self","Good","m",974.7,0.9747,1
"101",7302,1,5,5,22,"female","R","immoralSelf","immoralSelf","Matching","Self","Self","Self","Bad","m",614.9,0.6149,1
"102",7302,1,5,6,22,"female","R","moralOther","moralOther","Matching","Other","Other","Stranger","Good","m",615,0.615,1
"103",7302,1,5,7,22,"female","R","immoralOther","immoralSelf","Nonmatching","Other","Other","Stranger","Bad","m",655.2,0.6552,0
"104",7302,1,5,8,22,"female","R","immoralOther","immoralOther","Matching","Other","Other","Stranger","Bad","m",655.2,0.6552,1
"105",7302,1,5,9,22,"female","R","immoralOther","moralSelf","Nonmatching","Other","Other","Stranger","Bad","n",599.4,0.5994,1
"106",7302,1,5,10,22,"female","R","moralSelf","immoralSelf","Nonmatching","Self","Self","Self","Good","m",649.5,0.6495,0
"107",7302,1,5,11,22,"female","R","moralOther","immoralOther","Nonmatching","Other","Other","Stranger","Good","n",673.6,0.6736,1
"108",7302,1,5,12,22,"female","R","immoralOther","moralSelf","Nonmatching","Other","Other","Stranger","Bad","n",773.7,0.7737,1
"109",7302,1,5,13,22,"female","R","immoralSelf","moralOther","Nonmatching","Self","Self","Self","Bad","n",733.8,0.7338,1
"110",7302,1,5,14,22,"female","R","moralSelf","immoralOther","Nonmatching","Self","Self","Self","Good","n",734,0.734,1
"111",7302,1,5,15,22,"female","R","immoralSelf","immoralSelf","Matching","Self","Self","Self","Bad","m",622.1,0.6221,1
"112",7302,1,5,16,22,"female","R","immoralSelf","immoralSelf","Matching","Self","Self","Self","Bad","m",548.2,0.5482,1
"113",7302,1,5,17,22,"female","R","immoralSelf","moralOther","Nonmatching","Self","Self","Self","Bad","n",592.3,0.5923,1
"114",7302,1,5,18,22,"female","R","moralOther","immoralOther","Nonmatching","Other","Other","Stranger","Good","n",644.5,0.6445,1
"115",7302,1,5,19,22,"female","R","immoralSelf","immoralOther","Nonmatching","Self","Self","Self","Bad","n",438.5,0.4385,1
"116",7302,1,5,20,22,"female","R","immoralOther","immoralOther","Matching","Other","Other","Stranger","Bad","m",776.6,0.7766,1
"117",7302,1,5,21,22,"female","R","moralSelf","moralSelf","Matching","Self","Self","Self","Good","m",752.7,0.7527,1
"118",7302,1,5,22,22,"female","R","moralSelf","moralSelf","Matching","Self","Self","Self","Good","m",516.9,0.5169,1
"119",7302,1,5,23,22,"female","R","moralOther","moralOther","Matching","Other","Other","Stranger","Good","m",657,0.657,1
"120",7302,1,5,24,22,"female","R","moralSelf","moralOther","Nonmatching","Self","Self","Self","Good","n",809.1,0.8091,1
"121",7302,2,1,1,22,"female","R","moralOther","moralOther","Matching","Other","Other","Stranger","Good","m",723.3,0.7233,1
"122",7302,2,1,2,22,"female","R","moralOther","immoralSelf","Nonmatching","Other","Other","Stranger","Good","n",917.5,0.9175,1
"123",7302,2,1,3,22,"female","R","immoralSelf","moralOther","Nonmatching","Self","Self","Self","Bad","n",703.6,0.7036,1
"124",7302,2,1,4,22,"female","R","immoralOther","moralOther","Nonmatching","Other","Other","Stranger","Bad","n",677.7,0.6777,1
"125",7302,2,1,5,22,"female","R","immoralSelf","moralOther","Nonmatching","Self","Self","Self","Bad","n",727.8,0.7278,1
"126",7302,2,1,6,22,"female","R","moralOther","immoralSelf","Nonmatching","Other","Other","Stranger","Good","n",696,0.696,1
"127",7302,2,1,7,22,"female","R","immoralOther","moralSelf","Nonmatching","Other","Other","Stranger","Bad","n",840.1,0.8401,1
"128",7302,2,1,8,22,"female","R","immoralSelf","moralSelf","Nonmatching","Self","Self","Self","Bad","n",754.3,0.7543,1
"129",7302,2,1,9,22,"female","R","moralSelf","moralSelf","Matching","Self","Self","Self","Good","m",630.4,0.6304,1
"130",7302,2,1,10,22,"female","R","moralOther","moralOther","Matching","Other","Other","Stranger","Good","m",522.4,0.5224,1
"131",7302,2,1,11,22,"female","R","immoralSelf","immoralSelf","Matching","Self","Self","Self","Bad","n",644.6,0.6446,0
"132",7302,2,1,12,22,"female","R","moralSelf","moralOther","Nonmatching","Self","Self","Self","Good","n",886.7,0.8867,1
"133",7302,2,1,13,22,"female","R","immoralOther","immoralOther","Matching","Other","Other","Stranger","Bad","m",704.8,0.7048,1
"134",7302,2,1,14,22,"female","R","immoralSelf","immoralSelf","Matching","Self","Self","Self","Bad","n",703,0.703,0
"135",7302,2,1,15,22,"female","R","moralOther","moralSelf","Nonmatching","Other","Other","Stranger","Good","n",669,0.669,1
"136",7302,2,1,16,22,"female","R","immoralSelf","immoralSelf","Matching","Self","Self","Self","Bad","m",617.2,0.6172,1
"137",7302,2,1,17,22,"female","R","moralOther","moralOther","Matching","Other","Other","Stranger","Good","m",623.3,0.6233,1
"138",7302,2,1,18,22,"female","R","immoralOther","immoralOther","Matching","Other","Other","Stranger","Bad","m",573.5,0.5735,1
"139",7302,2,1,19,22,"female","R","moralSelf","moralSelf","Matching","Self","Self","Self","Good","m",693.6,0.6936,1
"140",7302,2,1,20,22,"female","R","moralSelf","immoralSelf","Nonmatching","Self","Self","Self","Good","m",1013.6,1.0136,0
"141",7302,2,1,21,22,"female","R","immoralOther","immoralSelf","Nonmatching","Other","Other","Stranger","Bad","n",821.8,0.8218,1
"142",7302,2,1,22,22,"female","R","immoralOther","immoralOther","Matching","Other","Other","Stranger","Bad","m",643.9,0.6439,1
"143",7302,2,1,23,22,"female","R","moralSelf","moralOther","Nonmatching","Self","Self","Self","Good","m",710,0.71,0
"144",7302,2,1,24,22,"female","R","moralSelf","moralSelf","Matching","Self","Self","Self","Good","m",914.1,0.9141,1
"145",7302,2,2,1,22,"female","R","immoralOther","moralSelf","Nonmatching","Other","Other","Stranger","Bad","n",734.3,0.7343,1
"146",7302,2,2,2,22,"female","R","moralSelf","immoralOther","Nonmatching","Self","Self","Self","Good","n",646.4,0.6464,1
"147",7302,2,2,3,22,"female","R","moralOther","immoralOther","Nonmatching","Other","Other","Stranger","Good","m",576.5,0.5765,0
"148",7302,2,2,4,22,"female","R","moralSelf","moralSelf","Matching","Self","Self","Self","Good","m",656.6,0.6566,1
"149",7302,2,2,5,22,"female","R","immoralSelf","immoralSelf","Matching","Self","Self","Self","Bad","m",808.9,0.8089,1
"150",7302,2,2,6,22,"female","R","immoralOther","immoralOther","Matching","Other","Other","Stranger","Bad","m",624.8,0.6248,1
"151",7302,2,2,7,22,"female","R","moralSelf","moralSelf","Matching","Self","Self","Self","Good","m",710.9,0.7109,1
"152",7302,2,2,8,22,"female","R","moralOther","moralOther","Matching","Other","Other","Stranger","Good","m",619.1,0.6191,1
"153",7302,2,2,9,22,"female","R","moralOther","moralOther","Matching","Other","Other","Stranger","Good","m",417.1,0.4171,1
"154",7302,2,2,10,22,"female","R","moralOther","moralOther","Matching","Other","Other","Stranger","Good","m",433.3,0.4333,1
"155",7302,2,2,11,22,"female","R","immoralSelf","immoralOther","Nonmatching","Self","Self","Self","Bad","n",693.4,0.6934,1
"156",7302,2,2,12,22,"female","R","moralOther","moralSelf","Nonmatching","Other","Other","Stranger","Good","n",701.5,0.7015,1
"157",7302,2,2,13,22,"female","R","immoralOther","immoralOther","Matching","Other","Other","Stranger","Bad","m",571.7,0.5717,1
"158",7302,2,2,14,22,"female","R","immoralOther","moralOther","Nonmatching","Other","Other","Stranger","Bad","n",955.7,0.9557,1
"159",7302,2,2,15,22,"female","R","moralSelf","moralOther","Nonmatching","Self","Self","Self","Good","n",783.8,0.7838,1
"160",7302,2,2,16,22,"female","R","immoralSelf","moralSelf","Nonmatching","Self","Self","Self","Bad","n",854,0.854,1
"161",7302,2,2,17,22,"female","R","immoralSelf","immoralSelf","Matching","Self","Self","Self","Bad","n",950.1,0.9501,0
"162",7302,2,2,18,22,"female","R","moralSelf","immoralOther","Nonmatching","Self","Self","Self","Good","n",706.2,0.7062,1
"163",7302,2,2,19,22,"female","R","immoralSelf","immoralSelf","Matching","Self","Self","Self","Bad","m",664.4,0.6644,1
"164",7302,2,2,20,22,"female","R","moralSelf","moralSelf","Matching","Self","Self","Self","Good","m",766.4,0.7664,1
"165",7302,2,2,21,22,"female","R","immoralSelf","moralOther","Nonmatching","Self","Self","Self","Bad","n",640.6,0.6406,1
"166",7302,2,2,22,22,"female","R","moralOther","immoralSelf","Nonmatching","Other","Other","Stranger","Good","n",682.7,0.6827,1
"167",7302,2,2,23,22,"female","R","immoralOther","immoralSelf","Nonmatching","Other","Other","Stranger","Bad","n",884.8,0.8848,1
"168",7302,2,2,24,22,"female","R","immoralOther","immoralOther","Matching","Other","Other","Stranger","Bad","m",646.9,0.6469,1
"169",7302,2,3,1,22,"female","R","immoralOther","immoralOther","Matching","Other","Other","Stranger","Bad","m",473.1,0.4731,1
"170",7302,2,3,2,22,"female","R","moralOther","immoralOther","Nonmatching","Other","Other","Stranger","Good","m",381.2,0.3812,0
"171",7302,2,3,3,22,"female","R","moralSelf","moralSelf","Matching","Self","Self","Self","Good","m",595.2,0.5952,1
"172",7302,2,3,4,22,"female","R","immoralOther","immoralOther","Matching","Other","Other","Stranger","Bad","m",807.4,0.8074,1
"173",7302,2,3,5,22,"female","R","immoralSelf","immoralOther","Nonmatching","Self","Self","Self","Bad","n",567.5,0.5675,1
"174",7302,2,3,6,22,"female","R","moralSelf","immoralSelf","Nonmatching","Self","Self","Self","Good","n",847.6,0.8476,1
"175",7302,2,3,7,22,"female","R","immoralOther","moralOther","Nonmatching","Other","Other","Stranger","Bad","n",727.8,0.7278,1
"176",7302,2,3,8,22,"female","R","immoralSelf","immoralSelf","Matching","Self","Self","Self","Bad","m",607.9,0.6079,1
"177",7302,2,3,9,22,"female","R","immoralSelf","immoralSelf","Matching","Self","Self","Self","Bad",NA,1042,1.042,-1
"178",7302,2,3,10,22,"female","R","moralSelf","immoralOther","Nonmatching","Self","Self","Self","Good","n",690.1,0.6901,1
"179",7302,2,3,11,22,"female","R","immoralOther","moralSelf","Nonmatching","Other","Other","Stranger","Bad","n",986.2,0.9862,1
"180",7302,2,3,12,22,"female","R","moralOther","moralSelf","Nonmatching","Other","Other","Stranger","Good","n",792.4,0.7924,1
"181",7302,2,3,13,22,"female","R","immoralSelf","immoralOther","Nonmatching","Self","Self","Self","Bad","n",732.5,0.7325,1
"182",7302,2,3,14,22,"female","R","immoralOther","immoralOther","Matching","Other","Other","Stranger","Bad","n",572.7,0.5727,0
"183",7302,2,3,15,22,"female","R","moralOther","immoralSelf","Nonmatching","Other","Other","Stranger","Good","n",804.8,0.8048,1
"184",7302,2,3,16,22,"female","R","moralSelf","moralOther","Nonmatching","Self","Self","Self","Good","n",654.9,0.6549,1
"185",7302,2,3,17,22,"female","R","moralSelf","moralSelf","Matching","Self","Self","Self","Good","m",663.1,0.6631,1
"186",7302,2,3,18,22,"female","R","immoralOther","immoralSelf","Nonmatching","Other","Other","Stranger","Bad",NA,1042,1.042,-1
"187",7302,2,3,19,22,"female","R","immoralSelf","immoralOther","Nonmatching","Self","Self","Self","Bad","n",767.2,0.7672,1
"188",7302,2,3,20,22,"female","R","moralSelf","moralSelf","Matching","Self","Self","Self","Good","m",735.3,0.7353,1
"189",7302,2,3,21,22,"female","R","moralOther","moralOther","Matching","Other","Other","Stranger","Good","m",551.5,0.5515,1
"190",7302,2,3,22,22,"female","R","immoralSelf","immoralSelf","Matching","Self","Self","Self","Bad","m",627.6,0.6276,1
"191",7302,2,3,23,22,"female","R","moralOther","moralOther","Matching","Other","Other","Stranger","Good","m",527.7,0.5277,1
"192",7302,2,3,24,22,"female","R","moralOther","moralOther","Matching","Other","Other","Stranger","Good","m",487.8,0.4878,1
"193",7302,2,4,1,22,"female","R","moralSelf","moralSelf","Matching","Self","Self","Self","Good","m",532.7,0.5327,1
"194",7302,2,4,2,22,"female","R","immoralSelf","immoralSelf","Matching","Self","Self","Self","Bad","m",684.8,0.6848,1
"195",7302,2,4,3,22,"female","R","moralOther","moralOther","Matching","Other","Other","Stranger","Good","m",454.9,0.4549,1
"196",7302,2,4,4,22,"female","R","immoralOther","immoralOther","Matching","Other","Other","Stranger","Bad","m",535,0.535,1
"197",7302,2,4,5,22,"female","R","moralOther","immoralOther","Nonmatching","Other","Other","Stranger","Good","n",583.1,0.5831,1
"198",7302,2,4,6,22,"female","R","moralSelf","immoralSelf","Nonmatching","Self","Self","Self","Good","n",797.3,0.7973,1
"199",7302,2,4,7,22,"female","R","immoralOther","immoralOther","Matching","Other","Other","Stranger","Bad","m",543.3,0.5433,1
"200",7302,2,4,8,22,"female","R","moralSelf","immoralOther","Nonmatching","Self","Self","Self","Good","n",597.4,0.5974,1
"201",7302,2,4,9,22,"female","R","immoralOther","moralSelf","Nonmatching","Other","Other","Stranger","Bad","n",679.6,0.6796,1
"202",7302,2,4,10,22,"female","R","moralSelf","immoralOther","Nonmatching","Self","Self","Self","Good","n",833.7,0.8337,1
"203",7302,2,4,11,22,"female","R","immoralSelf","moralSelf","Nonmatching","Self","Self","Self","Bad","m",589.8,0.5898,0
"204",7302,2,4,12,22,"female","R","moralOther","immoralOther","Nonmatching","Other","Other","Stranger","Good","n",625.9,0.6259,1
"205",7302,2,4,13,22,"female","R","immoralSelf","immoralSelf","Matching","Self","Self","Self","Bad","m",760,0.76,1
"206",7302,2,4,14,22,"female","R","immoralOther","moralOther","Nonmatching","Other","Other","Stranger","Bad","n",666.2,0.6662,1
"207",7302,2,4,15,22,"female","R","moralOther","moralOther","Matching","Other","Other","Stranger","Good","m",600.3,0.6003,1
"208",7302,2,4,16,22,"female","R","moralSelf","moralSelf","Matching","Self","Self","Self","Good","n",714.4,0.7144,0
"209",7302,2,4,17,22,"female","R","moralOther","moralOther","Matching","Other","Other","Stranger","Good","m",702.5,0.7025,1
"210",7302,2,4,18,22,"female","R","immoralOther","moralSelf","Nonmatching","Other","Other","Stranger","Bad","n",676.6,0.6766,1
"211",7302,2,4,19,22,"female","R","immoralSelf","immoralOther","Nonmatching","Self","Self","Self","Bad","n",832.7,0.8327,1
"212",7302,2,4,20,22,"female","R","immoralOther","immoralOther","Matching","Other","Other","Stranger","Bad","m",764.9,0.7649,1
"213",7302,2,4,21,22,"female","R","immoralSelf","immoralSelf","Matching","Self","Self","Self","Bad","m",799.1,0.7991,1
"214",7302,2,4,22,22,"female","R","moralSelf","moralSelf","Matching","Self","Self","Self","Good","m",641.1,0.6411,1
"215",7302,2,4,23,22,"female","R","immoralSelf","moralOther","Nonmatching","Self","Self","Self","Bad","n",691.2,0.6912,1
"216",7302,2,4,24,22,"female","R","moralOther","immoralOther","Nonmatching","Other","Other","Stranger","Good","n",643.4,0.6434,1
"217",7302,2,5,1,22,"female","R","moralOther","moralOther","Matching","Other","Other","Stranger","Good","m",821.5,0.8215,1
"218",7302,2,5,2,22,"female","R","moralSelf","immoralSelf","Nonmatching","Self","Self","Self","Good","n",747.6,0.7476,1
"219",7302,2,5,3,22,"female","R","moralSelf","immoralOther","Nonmatching","Self","Self","Self","Good","n",879.7,0.8797,1
"220",7302,2,5,4,22,"female","R","moralOther","moralOther","Matching","Other","Other","Stranger","Good","m",625.8,0.6258,1
"221",7302,2,5,5,22,"female","R","immoralOther","moralOther","Nonmatching","Other","Other","Stranger","Bad","m",616,0.616,0
"222",7302,2,5,6,22,"female","R","immoralOther","immoralOther","Matching","Other","Other","Stranger","Bad","n",904.1,0.9041,0
"223",7302,2,5,7,22,"female","R","moralOther","immoralSelf","Nonmatching","Other","Other","Stranger","Good","n",670.2,0.6702,1
"224",7302,2,5,8,22,"female","R","moralSelf","moralSelf","Matching","Self","Self","Self","Good","m",642.3,0.6423,1
"225",7302,2,5,9,22,"female","R","immoralSelf","moralSelf","Nonmatching","Self","Self","Self","Bad","n",716.4,0.7164,1
"226",7302,2,5,10,22,"female","R","immoralSelf","immoralOther","Nonmatching","Self","Self","Self","Bad","n",824.5,0.8245,1
"227",7302,2,5,11,22,"female","R","immoralSelf","moralOther","Nonmatching","Self","Self","Self","Bad","n",694.7,0.6947,1
"228",7302,2,5,12,22,"female","R","immoralSelf","immoralSelf","Matching","Self","Self","Self","Bad","n",622.9,0.6229,0
"229",7302,2,5,13,22,"female","R","immoralOther","moralSelf","Nonmatching","Other","Other","Stranger","Bad","n",684.9,0.6849,1
"230",7302,2,5,14,22,"female","R","immoralOther","immoralOther","Matching","Other","Other","Stranger","Bad","m",751,0.751,1
"231",7302,2,5,15,22,"female","R","immoralOther","moralSelf","Nonmatching","Other","Other","Stranger","Bad","n",811.1,0.8111,1
"232",7302,2,5,16,22,"female","R","moralSelf","moralOther","Nonmatching","Self","Self","Self","Good","n",723.3,0.7233,1
"233",7302,2,5,17,22,"female","R","moralOther","immoralSelf","Nonmatching","Other","Other","Stranger","Good","n",813.4,0.8134,1
"234",7302,2,5,18,22,"female","R","moralOther","moralOther","Matching","Other","Other","Stranger","Good","m",733.5,0.7335,1
"235",7302,2,5,19,22,"female","R","immoralSelf","immoralSelf","Matching","Self","Self","Self","Bad","m",781.6,0.7816,1
"236",7302,2,5,20,22,"female","R","moralSelf","moralSelf","Matching","Self","Self","Self","Good","m",675.7,0.6757,1
"237",7302,2,5,21,22,"female","R","moralSelf","moralSelf","Matching","Self","Self","Self","Good","m",551.6,0.5516,1
"238",7302,2,5,22,22,"female","R","immoralSelf","immoralSelf","Matching","Self","Self","Self","Bad","m",780,0.78,1
"239",7302,2,5,23,22,"female","R","moralOther","immoralOther","Nonmatching","Other","Other","Stranger","Good","n",842.1,0.8421,1
"240",7302,2,5,24,22,"female","R","immoralOther","immoralOther","Matching","Other","Other","Stranger","Bad","m",652.3,0.6523,1
"241",7302,3,1,1,22,"female","R","moralOther","moralOther","Matching","Other","Other","Stranger","Good","m",582.5,0.5825,1
"242",7302,3,1,2,22,"female","R","immoralOther","immoralOther","Matching","Other","Other","Stranger","Bad","m",772.6,0.7726,1
"243",7302,3,1,3,22,"female","R","immoralOther","immoralOther","Matching","Other","Other","Stranger","Bad","m",540.7,0.5407,1
"244",7302,3,1,4,22,"female","R","moralSelf","moralOther","Nonmatching","Self","Self","Self","Good","n",754.8,0.7548,1
"245",7302,3,1,5,22,"female","R","immoralSelf","immoralSelf","Matching","Self","Self","Self","Bad","m",823,0.823,1
"246",7302,3,1,6,22,"female","R","immoralSelf","moralOther","Nonmatching","Self","Self","Self","Bad","n",805.1,0.8051,1
"247",7302,3,1,7,22,"female","R","immoralOther","moralOther","Nonmatching","Other","Other","Stranger","Bad","n",735.2,0.7352,1
"248",7302,3,1,8,22,"female","R","immoralSelf","immoralSelf","Matching","Self","Self","Self","Bad","m",663.4,0.6634,1
"249",7302,3,1,9,22,"female","R","immoralOther","immoralSelf","Nonmatching","Other","Other","Stranger","Bad","n",725.5,0.7255,1
"250",7302,3,1,10,22,"female","R","moralOther","moralSelf","Nonmatching","Other","Other","Stranger","Good","n",759.6,0.7596,1
"251",7302,3,1,11,22,"female","R","immoralOther","immoralOther","Matching","Other","Other","Stranger","Bad","m",665.7,0.6657,1
"252",7302,3,1,12,22,"female","R","moralSelf","immoralOther","Nonmatching","Self","Self","Self","Good","n",647.8,0.6478,1
"253",7302,3,1,13,22,"female","R","moralOther","moralSelf","Nonmatching","Other","Other","Stranger","Good","n",855.9,0.8559,1
"254",7302,3,1,14,22,"female","R","moralSelf","moralOther","Nonmatching","Self","Self","Self","Good","n",696.1,0.6961,1
"255",7302,3,1,15,22,"female","R","moralSelf","moralSelf","Matching","Self","Self","Self","Good",NA,1042,1.042,-1
"256",7302,3,1,16,22,"female","R","moralSelf","moralSelf","Matching","Self","Self","Self","Good","n",586.4,0.5864,0
"257",7302,3,1,17,22,"female","R","moralOther","moralOther","Matching","Other","Other","Stranger","Good","m",648.4,0.6484,1
"258",7302,3,1,18,22,"female","R","moralSelf","moralSelf","Matching","Self","Self","Self","Good","m",744.6,0.7446,1
"259",7302,3,1,19,22,"female","R","immoralOther","immoralSelf","Nonmatching","Other","Other","Stranger","Bad","n",702.7,0.7027,1
"260",7302,3,1,20,22,"female","R","immoralSelf","moralOther","Nonmatching","Self","Self","Self","Bad","n",692.8,0.6928,1
"261",7302,3,1,21,22,"female","R","immoralSelf","immoralSelf","Matching","Self","Self","Self","Bad","m",484.9,0.4849,1
"262",7302,3,1,22,22,"female","R","immoralSelf","moralOther","Nonmatching","Self","Self","Self","Bad","n",599,0.599,1
"263",7302,3,1,23,22,"female","R","moralOther","moralSelf","Nonmatching","Other","Other","Stranger","Good","n",857.2,0.8572,1
"264",7302,3,1,24,22,"female","R","moralOther","moralOther","Matching","Other","Other","Stranger","Good","n",543.3,0.5433,0
"265",7302,3,2,1,22,"female","R","moralOther","immoralOther","Nonmatching","Other","Other","Stranger","Good","n",677.4,0.6774,1
"266",7302,3,2,2,22,"female","R","moralSelf","moralSelf","Matching","Self","Self","Self","Good","m",591.5,0.5915,1
"267",7302,3,2,3,22,"female","R","immoralOther","immoralSelf","Nonmatching","Other","Other","Stranger","Bad","n",715.6,0.7156,1
"268",7302,3,2,4,22,"female","R","immoralOther","immoralOther","Matching","Other","Other","Stranger","Bad","m",575.7,0.5757,1
"269",7302,3,2,5,22,"female","R","moralOther","moralOther","Matching","Other","Other","Stranger","Good","m",671.9,0.6719,1
"270",7302,3,2,6,22,"female","R","moralSelf","moralSelf","Matching","Self","Self","Self","Good","m",635.9,0.6359,1
"271",7302,3,2,7,22,"female","R","immoralSelf","immoralSelf","Matching","Self","Self","Self","Bad","m",504,0.504,1
"272",7302,3,2,8,22,"female","R","moralOther","moralOther","Matching","Other","Other","Stranger","Good","m",574.2,0.5742,1
"273",7302,3,2,9,22,"female","R","moralOther","immoralOther","Nonmatching","Other","Other","Stranger","Good","m",566.2,0.5662,0
"274",7302,3,2,10,22,"female","R","immoralSelf","immoralSelf","Matching","Self","Self","Self","Bad","m",584.4,0.5844,1
"275",7302,3,2,11,22,"female","R","moralOther","immoralSelf","Nonmatching","Other","Other","Stranger","Good","n",654.6,0.6546,1
"276",7302,3,2,12,22,"female","R","immoralSelf","immoralSelf","Matching","Self","Self","Self","Bad","m",590.6,0.5906,1
"277",7302,3,2,13,22,"female","R","moralSelf","immoralOther","Nonmatching","Self","Self","Self","Good","n",802.8,0.8028,1
"278",7302,3,2,14,22,"female","R","immoralSelf","immoralOther","Nonmatching","Self","Self","Self","Bad","m",644.8,0.6448,0
"279",7302,3,2,15,22,"female","R","moralSelf","moralOther","Nonmatching","Self","Self","Self","Good","n",702.9,0.7029,1
"280",7302,3,2,16,22,"female","R","moralSelf","moralOther","Nonmatching","Self","Self","Self","Good","n",645.1,0.6451,1
"281",7302,3,2,17,22,"female","R","immoralSelf","immoralOther","Nonmatching","Self","Self","Self","Bad","n",727.2,0.7272,1
"282",7302,3,2,18,22,"female","R","moralOther","moralOther","Matching","Other","Other","Stranger","Good","m",623.3,0.6233,1
"283",7302,3,2,19,22,"female","R","immoralOther","immoralSelf","Nonmatching","Other","Other","Stranger","Bad","m",693.5,0.6935,0
"284",7302,3,2,20,22,"female","R","immoralOther","immoralOther","Matching","Other","Other","Stranger","Bad","m",645.5,0.6455,1
"285",7302,3,2,21,22,"female","R","immoralOther","moralSelf","Nonmatching","Other","Other","Stranger","Bad","n",687.7,0.6877,1
"286",7302,3,2,22,22,"female","R","immoralOther","immoralOther","Matching","Other","Other","Stranger","Bad","m",655.8,0.6558,1
"287",7302,3,2,23,22,"female","R","immoralSelf","moralOther","Nonmatching","Self","Self","Self","Bad","n",687.9,0.6879,1
"288",7302,3,2,24,22,"female","R","moralSelf","moralSelf","Matching","Self","Self","Self","Good","n",768.1,0.7681,0
"289",7302,3,3,1,22,"female","R","immoralSelf","immoralOther","Nonmatching","Self","Self","Self","Bad","m",720.1,0.7201,0
"290",7302,3,3,2,22,"female","R","immoralOther","immoralOther","Matching","Other","Other","Stranger","Bad","m",626.2,0.6262,1
"291",7302,3,3,3,22,"female","R","immoralSelf","immoralSelf","Matching","Self","Self","Self","Bad","m",704.4,0.7044,1
"292",7302,3,3,4,22,"female","R","immoralOther","immoralOther","Matching","Other","Other","Stranger","Bad","m",582.5,0.5825,1
"293",7302,3,3,5,22,"female","R","moralOther","immoralOther","Nonmatching","Other","Other","Stranger","Good","n",836.6,0.8366,1
"294",7302,3,3,6,22,"female","R","immoralOther","immoralSelf","Nonmatching","Other","Other","Stranger","Bad","n",768.7,0.7687,1
"295",7302,3,3,7,22,"female","R","immoralOther","moralOther","Nonmatching","Other","Other","Stranger","Bad","n",664.8,0.6648,1
"296",7302,3,3,8,22,"female","R","immoralSelf","immoralOther","Nonmatching","Self","Self","Self","Bad","m",623,0.623,0
"297",7302,3,3,9,22,"female","R","immoralOther","immoralSelf","Nonmatching","Other","Other","Stranger","Bad","n",805.4,0.8054,1
"298",7302,3,3,10,22,"female","R","immoralSelf","immoralOther","Nonmatching","Self","Self","Self","Bad","n",727.2,0.7272,1
"299",7302,3,3,11,22,"female","R","immoralSelf","immoralSelf","Matching","Self","Self","Self","Bad","m",663.3,0.6633,1
"300",7302,3,3,12,22,"female","R","moralOther","moralOther","Matching","Other","Other","Stranger","Good","m",677.4,0.6774,1
"301",7302,3,3,13,22,"female","R","moralSelf","moralSelf","Matching","Self","Self","Self","Good","m",759.5,0.7595,1
"302",7302,3,3,14,22,"female","R","moralOther","moralOther","Matching","Other","Other","Stranger","Good","m",641.6,0.6416,1
"303",7302,3,3,15,22,"female","R","moralSelf","immoralOther","Nonmatching","Self","Self","Self","Good","n",787.8,0.7878,1
"304",7302,3,3,16,22,"female","R","moralSelf","moralSelf","Matching","Self","Self","Self","Good","m",583.9,0.5839,1
"305",7302,3,3,17,22,"female","R","moralSelf","moralSelf","Matching","Self","Self","Self","Good","m",614.1,0.6141,1
"306",7302,3,3,18,22,"female","R","moralOther","moralOther","Matching","Other","Other","Stranger","Good","m",678.1,0.6781,1
"307",7302,3,3,19,22,"female","R","immoralSelf","immoralSelf","Matching","Self","Self","Self","Bad","m",640.2,0.6402,1
"308",7302,3,3,20,22,"female","R","moralSelf","immoralOther","Nonmatching","Self","Self","Self","Good","n",674.4,0.6744,1
"309",7302,3,3,21,22,"female","R","immoralOther","immoralOther","Matching","Other","Other","Stranger","Bad","m",878.5,0.8785,1
"310",7302,3,3,22,22,"female","R","moralOther","immoralSelf","Nonmatching","Other","Other","Stranger","Good","n",752.6,0.7526,1
"311",7302,3,3,23,22,"female","R","moralOther","immoralSelf","Nonmatching","Other","Other","Stranger","Good","n",844.7,0.8447,1
"312",7302,3,3,24,22,"female","R","moralSelf","immoralSelf","Nonmatching","Self","Self","Self","Good","m",622.9,0.6229,0
"313",7302,3,4,1,22,"female","R","immoralOther","immoralOther","Matching","Other","Other","Stranger","Bad","n",767.5,0.7675,0
"314",7302,3,4,2,22,"female","R","moralOther","moralOther","Matching","Other","Other","Stranger","Good","m",527.6,0.5276,1
"315",7302,3,4,3,22,"female","R","immoralOther","immoralOther","Matching","Other","Other","Stranger","Bad","m",823.7,0.8237,1
"316",7302,3,4,4,22,"female","R","immoralSelf","moralSelf","Nonmatching","Self","Self","Self","Bad","n",990,0.99,1
"317",7302,3,4,5,22,"female","R","moralOther","moralOther","Matching","Other","Other","Stranger","Good","m",761.9,0.7619,1
"318",7302,3,4,6,22,"female","R","moralSelf","moralOther","Nonmatching","Self","Self","Self","Good","n",708.2,0.7082,1
"319",7302,3,4,7,22,"female","R","immoralOther","immoralOther","Matching","Other","Other","Stranger","Bad","m",752.2,0.7522,1
"320",7302,3,4,8,22,"female","R","moralSelf","moralSelf","Matching","Self","Self","Self","Good","m",780.3,0.7803,1
"321",7302,3,4,9,22,"female","R","immoralSelf","immoralSelf","Matching","Self","Self","Self","Bad","m",642.4,0.6424,1
"322",7302,3,4,10,22,"female","R","moralSelf","moralOther","Nonmatching","Self","Self","Self","Good","n",676.5,0.6765,1
"323",7302,3,4,11,22,"female","R","moralSelf","moralOther","Nonmatching","Self","Self","Self","Good","n",824.7,0.8247,1
"324",7302,3,4,12,22,"female","R","moralSelf","moralSelf","Matching","Self","Self","Self","Good","m",654.9,0.6549,1
"325",7302,3,4,13,22,"female","R","immoralSelf","immoralSelf","Matching","Self","Self","Self","Bad","m",662.9,0.6629,1
"326",7302,3,4,14,22,"female","R","moralOther","moralSelf","Nonmatching","Other","Other","Stranger","Good","n",733,0.733,1
"327",7302,3,4,15,22,"female","R","immoralSelf","immoralOther","Nonmatching","Self","Self","Self","Bad","n",789.1,0.7891,1
"328",7302,3,4,16,22,"female","R","immoralOther","moralSelf","Nonmatching","Other","Other","Stranger","Bad",NA,1042,1.042,-1
"329",7302,3,4,17,22,"female","R","immoralOther","immoralSelf","Nonmatching","Other","Other","Stranger","Bad",NA,1042,1.042,-1
"330",7302,3,4,18,22,"female","R","immoralSelf","immoralSelf","Matching","Self","Self","Self","Bad","m",693.5,0.6935,1
"331",7302,3,4,19,22,"female","R","immoralOther","moralOther","Nonmatching","Other","Other","Stranger","Bad","n",637.7,0.6377,1
"332",7302,3,4,20,22,"female","R","moralOther","moralSelf","Nonmatching","Other","Other","Stranger","Good","n",751.8,0.7518,1
"333",7302,3,4,21,22,"female","R","immoralSelf","moralSelf","Nonmatching","Self","Self","Self","Bad","n",723.9,0.7239,1
"334",7302,3,4,22,22,"female","R","moralOther","immoralOther","Nonmatching","Other","Other","Stranger","Good","n",646,0.646,1
"335",7302,3,4,23,22,"female","R","moralSelf","moralSelf","Matching","Self","Self","Self","Good","m",736.1,0.7361,1
"336",7302,3,4,24,22,"female","R","moralOther","moralOther","Matching","Other","Other","Stranger","Good","m",632.3,0.6323,1
"337",7302,3,5,1,22,"female","R","moralOther","immoralSelf","Nonmatching","Other","Other","Stranger","Good","n",716.3,0.7163,1
"338",7302,3,5,2,22,"female","R","moralSelf","moralOther","Nonmatching","Self","Self","Self","Good","m",720.5,0.7205,0
"339",7302,3,5,3,22,"female","R","moralOther","moralOther","Matching","Other","Other","Stranger","Good","m",698.6,0.6986,1
"340",7302,3,5,4,22,"female","R","immoralOther","moralSelf","Nonmatching","Other","Other","Stranger","Bad","n",696.7,0.6967,1
"341",7302,3,5,5,22,"female","R","immoralSelf","immoralOther","Nonmatching","Self","Self","Self","Bad","n",728.8,0.7288,1
"342",7302,3,5,6,22,"female","R","moralSelf","moralSelf","Matching","Self","Self","Self","Good","m",601,0.601,1
"343",7302,3,5,7,22,"female","R","immoralOther","immoralOther","Matching","Other","Other","Stranger","Bad","n",643.1,0.6431,0
"344",7302,3,5,8,22,"female","R","moralOther","immoralOther","Nonmatching","Other","Other","Stranger","Good","n",629.2,0.6292,1
"345",7302,3,5,9,22,"female","R","immoralSelf","immoralSelf","Matching","Self","Self","Self","Bad","m",737.3,0.7373,1
"346",7302,3,5,10,22,"female","R","immoralSelf","moralOther","Nonmatching","Self","Self","Self","Bad","n",687.4,0.6874,1
"347",7302,3,5,11,22,"female","R","moralOther","moralOther","Matching","Other","Other","Stranger","Good","m",647.5,0.6475,1
"348",7302,3,5,12,22,"female","R","moralSelf","moralSelf","Matching","Self","Self","Self","Good","m",775.7,0.7757,1
"349",7302,3,5,13,22,"female","R","moralSelf","moralSelf","Matching","Self","Self","Self","Good","m",647.8,0.6478,1
"350",7302,3,5,14,22,"female","R","immoralOther","immoralOther","Matching","Other","Other","Stranger","Bad","m",639.9,0.6399,1
"351",7302,3,5,15,22,"female","R","immoralOther","immoralOther","Matching","Other","Other","Stranger","Bad","m",570.1,0.5701,1
"352",7302,3,5,16,22,"female","R","immoralOther","moralSelf","Nonmatching","Other","Other","Stranger","Bad","n",682.2,0.6822,1
"353",7302,3,5,17,22,"female","R","moralSelf","immoralSelf","Nonmatching","Self","Self","Self","Good","n",940.2,0.9402,1
"354",7302,3,5,18,22,"female","R","moralOther","moralOther","Matching","Other","Other","Stranger","Good","m",538.4,0.5384,1
"355",7302,3,5,19,22,"female","R","immoralOther","immoralSelf","Nonmatching","Other","Other","Stranger","Bad","n",616.5,0.6165,1
"356",7302,3,5,20,22,"female","R","moralOther","moralSelf","Nonmatching","Other","Other","Stranger","Good","n",680.6,0.6806,1
"357",7302,3,5,21,22,"female","R","immoralSelf","immoralSelf","Matching","Self","Self","Self","Bad","m",730.7,0.7307,1
"358",7302,3,5,22,22,"female","R","moralSelf","immoralSelf","Nonmatching","Self","Self","Self","Good","n",786.8,0.7868,1
"359",7302,3,5,23,22,"female","R","immoralSelf","moralSelf","Nonmatching","Self","Self","Self","Bad","n",785,0.785,1
"360",7302,3,5,24,22,"female","R","immoralSelf","immoralSelf","Matching","Self","Self","Self","Bad","m",655.1,0.6551,1
"361",7303,1,1,1,28,"male","R","immoralSelf","immoralOther","Nonmatching","Self","Self","Self","Bad","n",680.4,0.6804,1
"362",7303,1,1,2,28,"male","R","moralOther","moralSelf","Nonmatching","Other","Other","Stranger","Good","n",554,0.554,1
"363",7303,1,1,3,28,"male","R","immoralOther","moralOther","Nonmatching","Other","Other","Stranger","Bad","n",652.8,0.6528,1
"364",7303,1,1,4,28,"male","R","moralSelf","immoralSelf","Nonmatching","Self","Self","Self","Good","n",601.6,0.6016,1
"365",7303,1,1,5,28,"male","R","immoralSelf","immoralSelf","Matching","Self","Self","Self","Bad","n",621.4,0.6214,0
"366",7303,1,1,6,28,"male","R","immoralSelf","immoralSelf","Matching","Self","Self","Self","Bad","n",705.8,0.7058,0
"367",7303,1,1,7,28,"male","R","moralOther","moralOther","Matching","Other","Other","Stranger","Good","m",691.8,0.6918,1
"368",7303,1,1,8,28,"male","R","moralSelf","moralSelf","Matching","Self","Self","Self","Good","m",633.4,0.6334,1
"369",7303,1,1,9,28,"male","R","moralOther","immoralSelf","Nonmatching","Other","Other","Stranger","Good","n",738,0.738,1
"370",7303,1,1,10,28,"male","R","immoralSelf","moralOther","Nonmatching","Self","Self","Self","Bad","n",876.5,0.8765,1
"371",7303,1,1,11,28,"male","R","moralOther","moralSelf","Nonmatching","Other","Other","Stranger","Good","m",609.7,0.6097,0
"372",7303,1,1,12,28,"male","R","immoralOther","immoralOther","Matching","Other","Other","Stranger","Bad","m",705.8,0.7058,1
"373",7303,1,1,13,28,"male","R","moralOther","moralOther","Matching","Other","Other","Stranger","Good","m",675.8,0.6758,1
"374",7303,1,1,14,28,"male","R","moralSelf","immoralSelf","Nonmatching","Self","Self","Self","Good","m",625.1,0.6251,0
"375",7303,1,1,15,28,"male","R","immoralOther","immoralOther","Matching","Other","Other","Stranger","Bad","n",917.3,0.9173,0
"376",7303,1,1,16,28,"male","R","immoralSelf","moralSelf","Nonmatching","Self","Self","Self","Bad","m",683.5,0.6835,0
"377",7303,1,1,17,28,"male","R","moralSelf","immoralSelf","Nonmatching","Self","Self","Self","Good","m",493,0.493,0
"378",7303,1,1,18,28,"male","R","moralSelf","moralSelf","Matching","Self","Self","Self","Good","m",522.7,0.5227,1
"379",7303,1,1,19,28,"male","R","immoralSelf","immoralSelf","Matching","Self","Self","Self","Bad","n",720.9,0.7209,0
"380",7303,1,1,20,28,"male","R","moralOther","moralOther","Matching","Other","Other","Stranger","Good","m",639.2,0.6392,1
"381",7303,1,1,21,28,"male","R","immoralOther","moralOther","Nonmatching","Other","Other","Stranger","Bad","n",663.7,0.6637,1
"382",7303,1,1,22,28,"male","R","moralSelf","moralSelf","Matching","Self","Self","Self","Good","m",608.8,0.6088,1
"383",7303,1,1,23,28,"male","R","immoralOther","immoralOther","Matching","Other","Other","Stranger","Bad","n",580.7,0.5807,0
"384",7303,1,1,24,28,"male","R","immoralOther","moralOther","Nonmatching","Other","Other","Stranger","Bad","n",736,0.736,1
"385",7303,1,2,1,28,"male","R","moralSelf","moralSelf","Matching","Self","Self","Self","Good","m",610.4,0.6104,1
"386",7303,1,2,2,28,"male","R","moralSelf","immoralSelf","Nonmatching","Self","Self","Self","Good","n",666.5,0.6665,1
"387",7303,1,2,3,28,"male","R","immoralOther","immoralOther","Matching","Other","Other","Stranger","Bad","m",651.5,0.6515,1
"388",7303,1,2,4,28,"male","R","immoralOther","immoralSelf","Nonmatching","Other","Other","Stranger","Bad","m",624.3,0.6243,0
"389",7303,1,2,5,28,"male","R","immoralSelf","immoralOther","Nonmatching","Self","Self","Self","Bad","n",828.6,0.8286,1
"390",7303,1,2,6,28,"male","R","immoralOther","immoralOther","Matching","Other","Other","Stranger","Bad","m",721,0.721,1
"391",7303,1,2,7,28,"male","R","moralSelf","moralSelf","Matching","Self","Self","Self","Good","m",655.2,0.6552,1
"392",7303,1,2,8,28,"male","R","moralOther","moralOther","Matching","Other","Other","Stranger","Good","n",644,0.644,0
"393",7303,1,2,9,28,"male","R","immoralSelf","immoralOther","Nonmatching","Self","Self","Self","Bad","m",796.5,0.7965,0
"394",7303,1,2,10,28,"male","R","moralOther","moralOther","Matching","Other","Other","Stranger","Good","m",692.1,0.6921,1
"395",7303,1,2,11,28,"male","R","immoralSelf","moralSelf","Nonmatching","Self","Self","Self","Bad","n",866,0.866,1
"396",7303,1,2,12,28,"male","R","moralSelf","immoralSelf","Nonmatching","Self","Self","Self","Good","m",707,0.707,0
"397",7303,1,2,13,28,"male","R","immoralSelf","immoralSelf","Matching","Self","Self","Self","Bad","n",732.9,0.7329,0
"398",7303,1,2,14,28,"male","R","moralOther","immoralOther","Nonmatching","Other","Other","Stranger","Good","m",615.3,0.6153,0
"399",7303,1,2,15,28,"male","R","moralOther","immoralOther","Nonmatching","Other","Other","Stranger","Good","n",751.3,0.7513,1
"400",7303,1,2,16,28,"male","R","immoralSelf","immoralSelf","Matching","Self","Self","Self","Bad","m",866.3,0.8663,1
"401",7303,1,2,17,28,"male","R","moralOther","immoralOther","Nonmatching","Other","Other","Stranger","Good","n",819.3,0.8193,1
"402",7303,1,2,18,28,"male","R","moralSelf","immoralOther","Nonmatching","Self","Self","Self","Good","n",907.4,0.9074,1
"403",7303,1,2,19,28,"male","R","moralSelf","moralSelf","Matching","Self","Self","Self","Good","m",661.4,0.6614,1
"404",7303,1,2,20,28,"male","R","immoralOther","moralOther","Nonmatching","Other","Other","Stranger","Bad","m",926.4,0.9264,0
"405",7303,1,2,21,28,"male","R","immoralOther","immoralOther","Matching","Other","Other","Stranger","Bad","m",680.8,0.6808,1
"406",7303,1,2,22,28,"male","R","immoralSelf","immoralSelf","Matching","Self","Self","Self","Bad","m",762.5,0.7625,1
"407",7303,1,2,23,28,"male","R","immoralOther","moralOther","Nonmatching","Other","Other","Stranger","Bad","n",873.5,0.8735,1
"408",7303,1,2,24,28,"male","R","moralOther","moralOther","Matching","Other","Other","Stranger","Good","m",542.8,0.5428,1
"409",7303,1,3,1,28,"male","R","immoralOther","immoralOther","Matching","Other","Other","Stranger","Bad","n",669.5,0.6695,0
"410",7303,1,3,2,28,"male","R","moralOther","immoralOther","Nonmatching","Other","Other","Stranger","Good","n",627.1,0.6271,1
"411",7303,1,3,3,28,"male","R","moralSelf","moralOther","Nonmatching","Self","Self","Self","Good","n",791,0.791,1
"412",7303,1,3,4,28,"male","R","immoralSelf","moralSelf","Nonmatching","Self","Self","Self","Bad","n",710.7,0.7107,1
"413",7303,1,3,5,28,"male","R","moralOther","moralOther","Matching","Other","Other","Stranger","Good","m",656.5,0.6565,1
"414",7303,1,3,6,28,"male","R","moralOther","moralOther","Matching","Other","Other","Stranger","Good","m",617.7,0.6177,1
"415",7303,1,3,7,28,"male","R","immoralOther","immoralSelf","Nonmatching","Other","Other","Stranger","Bad","n",841.7,0.8417,1
"416",7303,1,3,8,28,"male","R","moralSelf","immoralOther","Nonmatching","Self","Self","Self","Good","n",658.2,0.6582,1
"417",7303,1,3,9,28,"male","R","immoralOther","immoralOther","Matching","Other","Other","Stranger","Bad","n",707.4,0.7074,0
"418",7303,1,3,10,28,"male","R","moralSelf","moralOther","Nonmatching","Self","Self","Self","Good","n",773.3,0.7733,1
"419",7303,1,3,11,28,"male","R","immoralSelf","immoralSelf","Matching","Self","Self","Self","Bad","m",780.4,0.7804,1
"420",7303,1,3,12,28,"male","R","moralSelf","moralSelf","Matching","Self","Self","Self","Good","m",719.8,0.7198,1
"421",7303,1,3,13,28,"male","R","immoralSelf","immoralSelf","Matching","Self","Self","Self","Bad","n",846,0.846,0
"422",7303,1,3,14,28,"male","R","immoralOther","immoralSelf","Nonmatching","Other","Other","Stranger","Bad","n",682.8,0.6828,1
"423",7303,1,3,15,28,"male","R","immoralSelf","moralSelf","Nonmatching","Self","Self","Self","Bad","m",884.3,0.8843,0
"424",7303,1,3,16,28,"male","R","moralOther","moralOther","Matching","Other","Other","Stranger","Good","m",669.9,0.6699,1
"425",7303,1,3,17,28,"male","R","immoralSelf","immoralSelf","Matching","Self","Self","Self","Bad","m",691.1,0.6911,1
"426",7303,1,3,18,28,"male","R","moralOther","moralSelf","Nonmatching","Other","Other","Stranger","Good","m",600.7,0.6007,0
"427",7303,1,3,19,28,"male","R","immoralSelf","moralSelf","Nonmatching","Self","Self","Self","Bad","n",852.6,0.8526,1
"428",7303,1,3,20,28,"male","R","immoralOther","immoralSelf","Nonmatching","Other","Other","Stranger","Bad","n",777.5,0.7775,1
"429",7303,1,3,21,28,"male","R","moralOther","moralSelf","Nonmatching","Other","Other","Stranger","Good","n",804.8,0.8048,1
"430",7303,1,3,22,28,"male","R","moralSelf","moralSelf","Matching","Self","Self","Self","Good","m",744.8,0.7448,1
"431",7303,1,3,23,28,"male","R","immoralOther","immoralOther","Matching","Other","Other","Stranger","Bad","m",839.4,0.8394,1
"432",7303,1,3,24,28,"male","R","moralSelf","moralSelf","Matching","Self","Self","Self","Good","m",599.9,0.5999,1
"433",7303,1,4,1,28,"male","R","immoralSelf","immoralSelf","Matching","Self","Self","Self","Bad","m",655.5,0.6555,1
"434",7303,1,4,2,28,"male","R","moralOther","immoralOther","Nonmatching","Other","Other","Stranger","Good","n",764.3,0.7643,1
"435",7303,1,4,3,28,"male","R","moralSelf","moralOther","Nonmatching","Self","Self","Self","Good","m",587.5,0.5875,0
"436",7303,1,4,4,28,"male","R","moralSelf","moralSelf","Matching","Self","Self","Self","Good","m",715,0.715,1
"437",7303,1,4,5,28,"male","R","immoralOther","immoralOther","Matching","Other","Other","Stranger","Bad","m",969.2,0.9692,1
"438",7303,1,4,6,28,"male","R","immoralOther","immoralOther","Matching","Other","Other","Stranger","Bad","m",568.4,0.5684,1
"439",7303,1,4,7,28,"male","R","immoralSelf","moralOther","Nonmatching","Self","Self","Self","Bad","n",647.4,0.6474,1
"440",7303,1,4,8,28,"male","R","moralOther","moralOther","Matching","Other","Other","Stranger","Good","m",692.3,0.6923,1
"441",7303,1,4,9,28,"male","R","moralOther","moralOther","Matching","Other","Other","Stranger","Good","m",594.1,0.5941,1
"442",7303,1,4,10,28,"male","R","moralSelf","moralSelf","Matching","Self","Self","Self","Good","m",649.7,0.6497,1
"443",7303,1,4,11,28,"male","R","immoralSelf","moralSelf","Nonmatching","Self","Self","Self","Bad","n",886.5,0.8865,1
"444",7303,1,4,12,28,"male","R","moralSelf","moralOther","Nonmatching","Self","Self","Self","Good","m",624,0.624,0
"445",7303,1,4,13,28,"male","R","moralOther","moralSelf","Nonmatching","Other","Other","Stranger","Good","m",612.3,0.6123,0
"446",7303,1,4,14,28,"male","R","immoralOther","moralSelf","Nonmatching","Other","Other","Stranger","Bad","n",780.5,0.7805,1
"447",7303,1,4,15,28,"male","R","immoralOther","moralOther","Nonmatching","Other","Other","Stranger","Bad","n",855.7,0.8557,1
"448",7303,1,4,16,28,"male","R","immoralSelf","moralOther","Nonmatching","Self","Self","Self","Bad","m",804.6,0.8046,0
"449",7303,1,4,17,28,"male","R","moralSelf","moralOther","Nonmatching","Self","Self","Self","Good","m",640.3,0.6403,0
"450",7303,1,4,18,28,"male","R","moralSelf","moralSelf","Matching","Self","Self","Self","Good","m",633,0.633,1
"451",7303,1,4,19,28,"male","R","immoralSelf","immoralSelf","Matching","Self","Self","Self","Bad","n",649.5,0.6495,0
"452",7303,1,4,20,28,"male","R","immoralOther","moralOther","Nonmatching","Other","Other","Stranger","Bad","n",902.3,0.9023,1
"453",7303,1,4,21,28,"male","R","moralOther","moralOther","Matching","Other","Other","Stranger","Good","m",1028,1.028,1
"454",7303,1,4,22,28,"male","R","moralOther","immoralSelf","Nonmatching","Other","Other","Stranger","Good","m",792.4,0.7924,0
"455",7303,1,4,23,28,"male","R","immoralOther","immoralOther","Matching","Other","Other","Stranger","Bad","n",656,0.656,0
"456",7303,1,4,24,28,"male","R","immoralSelf","immoralSelf","Matching","Self","Self","Self","Bad","n",833.1,0.8331,0
"457",7303,1,5,1,28,"male","R","moralOther","immoralSelf","Nonmatching","Other","Other","Stranger","Good","n",785.7,0.7857,1
"458",7303,1,5,2,28,"male","R","moralOther","moralOther","Matching","Other","Other","Stranger","Good","m",849.1,0.8491,1
"459",7303,1,5,3,28,"male","R","immoralOther","immoralOther","Matching","Other","Other","Stranger","Bad","m",798,0.798,1
"460",7303,1,5,4,28,"male","R","moralSelf","moralSelf","Matching","Self","Self","Self","Good","m",642,0.642,1
"461",7303,1,5,5,28,"male","R","immoralSelf","immoralSelf","Matching","Self","Self","Self","Bad","m",722.4,0.7224,1
"462",7303,1,5,6,28,"male","R","moralOther","moralOther","Matching","Other","Other","Stranger","Good","m",584.7,0.5847,1
"463",7303,1,5,7,28,"male","R","immoralOther","immoralSelf","Nonmatching","Other","Other","Stranger","Bad","m",788,0.788,0
"464",7303,1,5,8,28,"male","R","immoralOther","immoralOther","Matching","Other","Other","Stranger","Bad","m",843.6,0.8436,1
"465",7303,1,5,9,28,"male","R","immoralOther","moralSelf","Nonmatching","Other","Other","Stranger","Bad","n",708.2,0.7082,1
"466",7303,1,5,10,28,"male","R","moralSelf","immoralSelf","Nonmatching","Self","Self","Self","Good","m",574.1,0.5741,0
"467",7303,1,5,11,28,"male","R","moralOther","immoralOther","Nonmatching","Other","Other","Stranger","Good","n",793.6,0.7936,1
"468",7303,1,5,12,28,"male","R","immoralOther","moralSelf","Nonmatching","Other","Other","Stranger","Bad","n",809.2,0.8092,1
"469",7303,1,5,13,28,"male","R","immoralSelf","moralOther","Nonmatching","Self","Self","Self","Bad","n",665.3,0.6653,1
"470",7303,1,5,14,28,"male","R","moralSelf","immoralOther","Nonmatching","Self","Self","Self","Good","n",778.3,0.7783,1
"471",7303,1,5,15,28,"male","R","immoralSelf","immoralSelf","Matching","Self","Self","Self","Bad","m",757.7,0.7577,1
"472",7303,1,5,16,28,"male","R","immoralSelf","immoralSelf","Matching","Self","Self","Self","Bad","m",656.6,0.6566,1
"473",7303,1,5,17,28,"male","R","immoralSelf","moralOther","Nonmatching","Self","Self","Self","Bad","n",745.7,0.7457,1
"474",7303,1,5,18,28,"male","R","moralOther","immoralOther","Nonmatching","Other","Other","Stranger","Good","n",848.3,0.8483,1
"475",7303,1,5,19,28,"male","R","immoralSelf","immoralOther","Nonmatching","Self","Self","Self","Bad","n",789,0.789,1
"476",7303,1,5,20,28,"male","R","immoralOther","immoralOther","Matching","Other","Other","Stranger","Bad","m",620.7,0.6207,1
"477",7303,1,5,21,28,"male","R","moralSelf","moralSelf","Matching","Self","Self","Self","Good","m",577,0.577,1
"478",7303,1,5,22,28,"male","R","moralSelf","moralSelf","Matching","Self","Self","Self","Good","m",524.5,0.5245,1
"479",7303,1,5,23,28,"male","R","moralOther","moralOther","Matching","Other","Other","Stranger","Good","m",634.6,0.6346,1
"480",7303,1,5,24,28,"male","R","moralSelf","moralOther","Nonmatching","Self","Self","Self","Good","m",747.1,0.7471,0
"481",7303,2,1,1,28,"male","R","moralOther","moralOther","Matching","Other","Other","Stranger","Good",NA,1041.1,1.0411,-1
"482",7303,2,1,2,28,"male","R","moralOther","immoralSelf","Nonmatching","Other","Other","Stranger","Good","n",575.7,0.5757,1
"483",7303,2,1,3,28,"male","R","immoralSelf","moralOther","Nonmatching","Self","Self","Self","Bad","n",667.1,0.6671,1
"484",7303,2,1,4,28,"male","R","immoralOther","moralOther","Nonmatching","Other","Other","Stranger","Bad","n",812.1,0.8121,1
"485",7303,2,1,5,28,"male","R","immoralSelf","moralOther","Nonmatching","Self","Self","Self","Bad","n",724.2,0.7242,1
"486",7303,2,1,6,28,"male","R","moralOther","immoralSelf","Nonmatching","Other","Other","Stranger","Good","m",578.3,0.5783,0
"487",7303,2,1,7,28,"male","R","immoralOther","moralSelf","Nonmatching","Other","Other","Stranger","Bad","n",645.7,0.6457,1
"488",7303,2,1,8,28,"male","R","immoralSelf","moralSelf","Nonmatching","Self","Self","Self","Bad","n",610.5,0.6105,1
"489",7303,2,1,9,28,"male","R","moralSelf","moralSelf","Matching","Self","Self","Self","Good","n",714.6,0.7146,0
"490",7303,2,1,10,28,"male","R","moralOther","moralOther","Matching","Other","Other","Stranger","Good","m",616.8,0.6168,1
"491",7303,2,1,11,28,"male","R","immoralSelf","immoralSelf","Matching","Self","Self","Self","Bad","m",712.9,0.7129,1
"492",7303,2,1,12,28,"male","R","moralSelf","moralOther","Nonmatching","Self","Self","Self","Good","m",546.9,0.5469,0
"493",7303,2,1,13,28,"male","R","immoralOther","immoralOther","Matching","Other","Other","Stranger","Bad","n",641.6,0.6416,0
"494",7303,2,1,14,28,"male","R","immoralSelf","immoralSelf","Matching","Self","Self","Self","Bad","m",906.1,0.9061,1
"495",7303,2,1,15,28,"male","R","moralOther","moralSelf","Nonmatching","Other","Other","Stranger","Good","n",892.1,0.8921,1
"496",7303,2,1,16,28,"male","R","immoralSelf","immoralSelf","Matching","Self","Self","Self","Bad","m",777.8,0.7778,1
"497",7303,2,1,17,28,"male","R","moralOther","moralOther","Matching","Other","Other","Stranger","Good","m",757.3,0.7573,1
"498",7303,2,1,18,28,"male","R","immoralOther","immoralOther","Matching","Other","Other","Stranger","Bad","m",656.1,0.6561,1
"499",7303,2,1,19,28,"male","R","moralSelf","moralSelf","Matching","Self","Self","Self","Good","m",665,0.665,1
"500",7303,2,1,20,28,"male","R","moralSelf","immoralSelf","Nonmatching","Self","Self","Self","Good","n",810.3,0.8103,1
"501",7303,2,1,21,28,"male","R","immoralOther","immoralSelf","Nonmatching","Other","Other","Stranger","Bad","n",706.3,0.7063,1
"502",7303,2,1,22,28,"male","R","immoralOther","immoralOther","Matching","Other","Other","Stranger","Bad","m",564.2,0.5642,1
"503",7303,2,1,23,28,"male","R","moralSelf","moralOther","Nonmatching","Self","Self","Self","Good","n",987.5,0.9875,1
"504",7303,2,1,24,28,"male","R","moralSelf","moralSelf","Matching","Self","Self","Self","Good","m",811.1,0.8111,1
"505",7303,2,2,1,28,"male","R","immoralOther","moralSelf","Nonmatching","Other","Other","Stranger","Bad","n",747.1,0.7471,1
"506",7303,2,2,2,28,"male","R","moralSelf","immoralOther","Nonmatching","Self","Self","Self","Good","n",777.8,0.7778,1
"507",7303,2,2,3,28,"male","R","moralOther","immoralOther","Nonmatching","Other","Other","Stranger","Good","n",765.1,0.7651,1
"508",7303,2,2,4,28,"male","R","moralSelf","moralSelf","Matching","Self","Self","Self","Good","m",612.4,0.6124,1
"509",7303,2,2,5,28,"male","R","immoralSelf","immoralSelf","Matching","Self","Self","Self","Bad","n",644.3,0.6443,0
"510",7303,2,2,6,28,"male","R","immoralOther","immoralOther","Matching","Other","Other","Stranger","Bad","m",793.2,0.7932,1
"511",7303,2,2,7,28,"male","R","moralSelf","moralSelf","Matching","Self","Self","Self","Good","m",704.8,0.7048,1
"512",7303,2,2,8,28,"male","R","moralOther","moralOther","Matching","Other","Other","Stranger","Good","m",562.9,0.5629,1
"513",7303,2,2,9,28,"male","R","moralOther","moralOther","Matching","Other","Other","Stranger","Good","m",569.9,0.5699,1
"514",7303,2,2,10,28,"male","R","moralOther","moralOther","Matching","Other","Other","Stranger","Good","m",633,0.633,1
"515",7303,2,2,11,28,"male","R","immoralSelf","immoralOther","Nonmatching","Self","Self","Self","Bad","n",609.6,0.6096,1
"516",7303,2,2,12,28,"male","R","moralOther","moralSelf","Nonmatching","Other","Other","Stranger","Good","m",553.7,0.5537,0
"517",7303,2,2,13,28,"male","R","immoralOther","immoralOther","Matching","Other","Other","Stranger","Bad","m",684.5,0.6845,1
"518",7303,2,2,14,28,"male","R","immoralOther","moralOther","Nonmatching","Other","Other","Stranger","Bad","n",662,0.662,1
"519",7303,2,2,15,28,"male","R","moralSelf","moralOther","Nonmatching","Self","Self","Self","Good","n",719.1,0.7191,1
"520",7303,2,2,16,28,"male","R","immoralSelf","moralSelf","Nonmatching","Self","Self","Self","Bad","m",685.3,0.6853,0
"521",7303,2,2,17,28,"male","R","immoralSelf","immoralSelf","Matching","Self","Self","Self","Bad","m",678.8,0.6788,1
"522",7303,2,2,18,28,"male","R","moralSelf","immoralOther","Nonmatching","Self","Self","Self","Good","n",652.1,0.6521,1
"523",7303,2,2,19,28,"male","R","immoralSelf","immoralSelf","Matching","Self","Self","Self","Bad","n",608.8,0.6088,0
"524",7303,2,2,20,28,"male","R","moralSelf","moralSelf","Matching","Self","Self","Self","Good","m",648.9,0.6489,1
"525",7303,2,2,21,28,"male","R","immoralSelf","moralOther","Nonmatching","Self","Self","Self","Bad","n",709.7,0.7097,1
"526",7303,2,2,22,28,"male","R","moralOther","immoralSelf","Nonmatching","Other","Other","Stranger","Good","n",703.7,0.7037,1
"527",7303,2,2,23,28,"male","R","immoralOther","immoralSelf","Nonmatching","Other","Other","Stranger","Bad","n",657.7,0.6577,1
"528",7303,2,2,24,28,"male","R","immoralOther","immoralOther","Matching","Other","Other","Stranger","Bad","m",610.7,0.6107,1
"529",7303,2,3,1,28,"male","R","immoralOther","immoralOther","Matching","Other","Other","Stranger","Bad","m",658.8,0.6588,1
"530",7303,2,3,2,28,"male","R","moralOther","immoralOther","Nonmatching","Other","Other","Stranger","Good","n",755.8,0.7558,1
"531",7303,2,3,3,28,"male","R","moralSelf","moralSelf","Matching","Self","Self","Self","Good","m",510.7,0.5107,1
"532",7303,2,3,4,28,"male","R","immoralOther","immoralOther","Matching","Other","Other","Stranger","Bad","n",616.7,0.6167,0
"533",7303,2,3,5,28,"male","R","immoralSelf","immoralOther","Nonmatching","Self","Self","Self","Bad","n",848.8,0.8488,1
"534",7303,2,3,6,28,"male","R","moralSelf","immoralSelf","Nonmatching","Self","Self","Self","Good","m",645.6,0.6456,0
"535",7303,2,3,7,28,"male","R","immoralOther","moralOther","Nonmatching","Other","Other","Stranger","Bad","n",818.7,0.8187,1
"536",7303,2,3,8,28,"male","R","immoralSelf","immoralSelf","Matching","Self","Self","Self","Bad","m",970.4,0.9704,1
"537",7303,2,3,9,28,"male","R","immoralSelf","immoralSelf","Matching","Self","Self","Self","Bad","m",593.6,0.5936,1
"538",7303,2,3,10,28,"male","R","moralSelf","immoralOther","Nonmatching","Self","Self","Self","Good","n",777.1,0.7771,1
"539",7303,2,3,11,28,"male","R","immoralOther","moralSelf","Nonmatching","Other","Other","Stranger","Bad","m",708.5,0.7085,0
"540",7303,2,3,12,28,"male","R","moralOther","moralSelf","Nonmatching","Other","Other","Stranger","Good","m",718.5,0.7185,0
"541",7303,2,3,13,28,"male","R","immoralSelf","immoralOther","Nonmatching","Self","Self","Self","Bad","n",764.8,0.7648,1
"542",7303,2,3,14,28,"male","R","immoralOther","immoralOther","Matching","Other","Other","Stranger","Bad","m",731.9,0.7319,1
"543",7303,2,3,15,28,"male","R","moralOther","immoralSelf","Nonmatching","Other","Other","Stranger","Good","n",734.4,0.7344,1
"544",7303,2,3,16,28,"male","R","moralSelf","moralOther","Nonmatching","Self","Self","Self","Good","n",752.8,0.7528,1
"545",7303,2,3,17,28,"male","R","moralSelf","moralSelf","Matching","Self","Self","Self","Good","m",539.7,0.5397,1
"546",7303,2,3,18,28,"male","R","immoralOther","immoralSelf","Nonmatching","Other","Other","Stranger","Bad","n",698.3,0.6983,1
"547",7303,2,3,19,28,"male","R","immoralSelf","immoralOther","Nonmatching","Self","Self","Self","Bad","m",1016,1.016,0
"548",7303,2,3,20,28,"male","R","moralSelf","moralSelf","Matching","Self","Self","Self","Good","m",800.2,0.8002,1
"549",7303,2,3,21,28,"male","R","moralOther","moralOther","Matching","Other","Other","Stranger","Good","m",764.1,0.7641,1
"550",7303,2,3,22,28,"male","R","immoralSelf","immoralSelf","Matching","Self","Self","Self","Bad","m",731.2,0.7312,1
"551",7303,2,3,23,28,"male","R","moralOther","moralOther","Matching","Other","Other","Stranger","Good","m",693.6,0.6936,1
"552",7303,2,3,24,28,"male","R","moralOther","moralOther","Matching","Other","Other","Stranger","Good","m",651.4,0.6514,1
"553",7303,2,4,1,28,"male","R","moralSelf","moralSelf","Matching","Self","Self","Self","Good","m",511.3,0.5113,1
"554",7303,2,4,2,28,"male","R","immoralSelf","immoralSelf","Matching","Self","Self","Self","Bad","n",561.2,0.5612,0
"555",7303,2,4,3,28,"male","R","moralOther","moralOther","Matching","Other","Other","Stranger","Good","m",620.1,0.6201,1
"556",7303,2,4,4,28,"male","R","immoralOther","immoralOther","Matching","Other","Other","Stranger","Bad","m",628.1,0.6281,1
"557",7303,2,4,5,28,"male","R","moralOther","immoralOther","Nonmatching","Other","Other","Stranger","Good","n",720.5,0.7205,1
"558",7303,2,4,6,28,"male","R","moralSelf","immoralSelf","Nonmatching","Self","Self","Self","Good","m",582.8,0.5828,0
"559",7303,2,4,7,28,"male","R","immoralOther","immoralOther","Matching","Other","Other","Stranger","Bad","m",674,0.674,1
"560",7303,2,4,8,28,"male","R","moralSelf","immoralOther","Nonmatching","Self","Self","Self","Good","n",847.5,0.8475,1
"561",7303,2,4,9,28,"male","R","immoralOther","moralSelf","Nonmatching","Other","Other","Stranger","Bad","n",716.1,0.7161,1
"562",7303,2,4,10,28,"male","R","moralSelf","immoralOther","Nonmatching","Self","Self","Self","Good","n",658.3,0.6583,1
"563",7303,2,4,11,28,"male","R","immoralSelf","moralSelf","Nonmatching","Self","Self","Self","Bad","n",819.4,0.8194,1
"564",7303,2,4,12,28,"male","R","moralOther","immoralOther","Nonmatching","Other","Other","Stranger","Good","n",635.4,0.6354,1
"565",7303,2,4,13,28,"male","R","immoralSelf","immoralSelf","Matching","Self","Self","Self","Bad","m",763.9,0.7639,1
"566",7303,2,4,14,28,"male","R","immoralOther","moralOther","Nonmatching","Other","Other","Stranger","Bad","n",723.1,0.7231,1
"567",7303,2,4,15,28,"male","R","moralOther","moralOther","Matching","Other","Other","Stranger","Good","m",649.4,0.6494,1
"568",7303,2,4,16,28,"male","R","moralSelf","moralSelf","Matching","Self","Self","Self","Good","n",806.2,0.8062,0
"569",7303,2,4,17,28,"male","R","moralOther","moralOther","Matching","Other","Other","Stranger","Good","n",754.1,0.7541,0
"570",7303,2,4,18,28,"male","R","immoralOther","moralSelf","Nonmatching","Other","Other","Stranger","Bad","n",788.9,0.7889,1
"571",7303,2,4,19,28,"male","R","immoralSelf","immoralOther","Nonmatching","Self","Self","Self","Bad","m",820.5,0.8205,0
"572",7303,2,4,20,28,"male","R","immoralOther","immoralOther","Matching","Other","Other","Stranger","Bad","m",704.9,0.7049,1
"573",7303,2,4,21,28,"male","R","immoralSelf","immoralSelf","Matching","Self","Self","Self","Bad","m",458.8,0.4588,1
"574",7303,2,4,22,28,"male","R","moralSelf","moralSelf","Matching","Self","Self","Self","Good","m",692,0.692,1
"575",7303,2,4,23,28,"male","R","immoralSelf","moralOther","Nonmatching","Self","Self","Self","Bad","n",773.9,0.7739,1
"576",7303,2,4,24,28,"male","R","moralOther","immoralOther","Nonmatching","Other","Other","Stranger","Good","m",777.2,0.7772,0
"577",7303,2,5,1,28,"male","R","moralOther","moralOther","Matching","Other","Other","Stranger","Good","m",564.7,0.5647,1
"578",7303,2,5,2,28,"male","R","moralSelf","immoralSelf","Nonmatching","Self","Self","Self","Good","m",739.8,0.7398,0
"579",7303,2,5,3,28,"male","R","moralSelf","immoralOther","Nonmatching","Self","Self","Self","Good","n",834.5,0.8345,1
"580",7303,2,5,4,28,"male","R","moralOther","moralOther","Matching","Other","Other","Stranger","Good","m",739,0.739,1
"581",7303,2,5,5,28,"male","R","immoralOther","moralOther","Nonmatching","Other","Other","Stranger","Bad","n",745.6,0.7456,1
"582",7303,2,5,6,28,"male","R","immoralOther","immoralOther","Matching","Other","Other","Stranger","Bad","m",680.3,0.6803,1
"583",7303,2,5,7,28,"male","R","moralOther","immoralSelf","Nonmatching","Other","Other","Stranger","Good","m",857.9,0.8579,0
"584",7303,2,5,8,28,"male","R","moralSelf","moralSelf","Matching","Self","Self","Self","Good","m",530.9,0.5309,1
"585",7303,2,5,9,28,"male","R","immoralSelf","moralSelf","Nonmatching","Self","Self","Self","Bad","m",917.3,0.9173,0
"586",7303,2,5,10,28,"male","R","immoralSelf","immoralOther","Nonmatching","Self","Self","Self","Bad","n",819.6,0.8196,1
"587",7303,2,5,11,28,"male","R","immoralSelf","moralOther","Nonmatching","Self","Self","Self","Bad","n",691.6,0.6916,1
"588",7303,2,5,12,28,"male","R","immoralSelf","immoralSelf","Matching","Self","Self","Self","Bad","m",681.4,0.6814,1
"589",7303,2,5,13,28,"male","R","immoralOther","moralSelf","Nonmatching","Other","Other","Stranger","Bad","n",722.8,0.7228,1
"590",7303,2,5,14,28,"male","R","immoralOther","immoralOther","Matching","Other","Other","Stranger","Bad","m",633.1,0.6331,1
"591",7303,2,5,15,28,"male","R","immoralOther","moralSelf","Nonmatching","Other","Other","Stranger","Bad","n",809.6,0.8096,1
"592",7303,2,5,16,28,"male","R","moralSelf","moralOther","Nonmatching","Self","Self","Self","Good","n",729.8,0.7298,1
"593",7303,2,5,17,28,"male","R","moralOther","immoralSelf","Nonmatching","Other","Other","Stranger","Good","n",588.2,0.5882,1
"594",7303,2,5,18,28,"male","R","moralOther","moralOther","Matching","Other","Other","Stranger","Good","m",595.7,0.5957,1
"595",7303,2,5,19,28,"male","R","immoralSelf","immoralSelf","Matching","Self","Self","Self","Bad","m",739.3,0.7393,1
"596",7303,2,5,20,28,"male","R","moralSelf","moralSelf","Matching","Self","Self","Self","Good","m",626.1,0.6261,1
"597",7303,2,5,21,28,"male","R","moralSelf","moralSelf","Matching","Self","Self","Self","Good","m",702.4,0.7024,1
"598",7303,2,5,22,28,"male","R","immoralSelf","immoralSelf","Matching","Self","Self","Self","Bad","m",708,0.708,1
"599",7303,2,5,23,28,"male","R","moralOther","immoralOther","Nonmatching","Other","Other","Stranger","Good","m",638.2,0.6382,0
"600",7303,2,5,24,28,"male","R","immoralOther","immoralOther","Matching","Other","Other","Stranger","Bad","m",822.7,0.8227,1
"601",7303,3,1,1,28,"male","R","moralOther","moralOther","Matching","Other","Other","Stranger","Good","m",999.8,0.9998,1
"602",7303,3,1,2,28,"male","R","immoralOther","immoralOther","Matching","Other","Other","Stranger","Bad","m",675.6,0.6756,1
"603",7303,3,1,3,28,"male","R","immoralOther","immoralOther","Matching","Other","Other","Stranger","Bad","n",792.9,0.7929,0
"604",7303,3,1,4,28,"male","R","moralSelf","moralOther","Nonmatching","Self","Self","Self","Good","m",828.7,0.8287,0
"605",7303,3,1,5,28,"male","R","immoralSelf","immoralSelf","Matching","Self","Self","Self","Bad","m",921.1,0.9211,1
"606",7303,3,1,6,28,"male","R","immoralSelf","moralOther","Nonmatching","Self","Self","Self","Bad","n",1007.3,1.0073,1
"607",7303,3,1,7,28,"male","R","immoralOther","moralOther","Nonmatching","Other","Other","Stranger","Bad","m",667.2,0.6672,0
"608",7303,3,1,8,28,"male","R","immoralSelf","immoralSelf","Matching","Self","Self","Self","Bad","m",820.2,0.8202,1
"609",7303,3,1,9,28,"male","R","immoralOther","immoralSelf","Nonmatching","Other","Other","Stranger","Bad","n",628.2,0.6282,1
"610",7303,3,1,10,28,"male","R","moralOther","moralSelf","Nonmatching","Other","Other","Stranger","Good","m",696.7,0.6967,0
"611",7303,3,1,11,28,"male","R","immoralOther","immoralOther","Matching","Other","Other","Stranger","Bad","m",774.3,0.7743,1
"612",7303,3,1,12,28,"male","R","moralSelf","immoralOther","Nonmatching","Self","Self","Self","Good","n",929.6,0.9296,1
"613",7303,3,1,13,28,"male","R","moralOther","moralSelf","Nonmatching","Other","Other","Stranger","Good","n",724.1,0.7241,1
"614",7303,3,1,14,28,"male","R","moralSelf","moralOther","Nonmatching","Self","Self","Self","Good","n",818.3,0.8183,1
"615",7303,3,1,15,28,"male","R","moralSelf","moralSelf","Matching","Self","Self","Self","Good","m",530.4,0.5304,1
"616",7303,3,1,16,28,"male","R","moralSelf","moralSelf","Matching","Self","Self","Self","Good","m",468.9,0.4689,1
"617",7303,3,1,17,28,"male","R","moralOther","moralOther","Matching","Other","Other","Stranger","Good","m",634.2,0.6342,1
"618",7303,3,1,18,28,"male","R","moralSelf","moralSelf","Matching","Self","Self","Self","Good","m",802.7,0.8027,1
"619",7303,3,1,19,28,"male","R","immoralOther","immoralSelf","Nonmatching","Other","Other","Stranger","Bad","n",958.5,0.9585,1
"620",7303,3,1,20,28,"male","R","immoralSelf","moralOther","Nonmatching","Self","Self","Self","Bad","m",769.5,0.7695,0
"621",7303,3,1,21,28,"male","R","immoralSelf","immoralSelf","Matching","Self","Self","Self","Bad","n",728.6,0.7286,0
"622",7303,3,1,22,28,"male","R","immoralSelf","moralOther","Nonmatching","Self","Self","Self","Bad","n",771.1,0.7711,1
"623",7303,3,1,23,28,"male","R","moralOther","moralSelf","Nonmatching","Other","Other","Stranger","Good","m",674.2,0.6742,0
"624",7303,3,1,24,28,"male","R","moralOther","moralOther","Matching","Other","Other","Stranger","Good","m",1023.5,1.0235,1
"625",7303,3,2,1,28,"male","R","moralOther","immoralOther","Nonmatching","Other","Other","Stranger","Good","n",691.9,0.6919,1
"626",7303,3,2,2,28,"male","R","moralSelf","moralSelf","Matching","Self","Self","Self","Good","m",593.5,0.5935,1
"627",7303,3,2,3,28,"male","R","immoralOther","immoralSelf","Nonmatching","Other","Other","Stranger","Bad","n",809.1,0.8091,1
"628",7303,3,2,4,28,"male","R","immoralOther","immoralOther","Matching","Other","Other","Stranger","Bad","m",753.2,0.7532,1
"629",7303,3,2,5,28,"male","R","moralOther","moralOther","Matching","Other","Other","Stranger","Good","m",772.3,0.7723,1
"630",7303,3,2,6,28,"male","R","moralSelf","moralSelf","Matching","Self","Self","Self","Good","m",667.2,0.6672,1
"631",7303,3,2,7,28,"male","R","immoralSelf","immoralSelf","Matching","Self","Self","Self","Bad","n",636.3,0.6363,0
"632",7303,3,2,8,28,"male","R","moralOther","moralOther","Matching","Other","Other","Stranger","Good","m",604.9,0.6049,1
"633",7303,3,2,9,28,"male","R","moralOther","immoralOther","Nonmatching","Other","Other","Stranger","Good","n",544.8,0.5448,1
"634",7303,3,2,10,28,"male","R","immoralSelf","immoralSelf","Matching","Self","Self","Self","Bad","m",703.3,0.7033,1
"635",7303,3,2,11,28,"male","R","moralOther","immoralSelf","Nonmatching","Other","Other","Stranger","Good","n",689.4,0.6894,1
"636",7303,3,2,12,28,"male","R","immoralSelf","immoralSelf","Matching","Self","Self","Self","Bad","m",706.8,0.7068,1
"637",7303,3,2,13,28,"male","R","moralSelf","immoralOther","Nonmatching","Self","Self","Self","Good","m",540.8,0.5408,0
"638",7303,3,2,14,28,"male","R","immoralSelf","immoralOther","Nonmatching","Self","Self","Self","Bad","n",667.5,0.6675,1
"639",7303,3,2,15,28,"male","R","moralSelf","moralOther","Nonmatching","Self","Self","Self","Good","n",748.5,0.7485,1
"640",7303,3,2,16,28,"male","R","moralSelf","moralOther","Nonmatching","Self","Self","Self","Good","n",835.1,0.8351,1
"641",7303,3,2,17,28,"male","R","immoralSelf","immoralOther","Nonmatching","Self","Self","Self","Bad","n",875.6,0.8756,1
"642",7303,3,2,18,28,"male","R","moralOther","moralOther","Matching","Other","Other","Stranger","Good","n",721,0.721,0
"643",7303,3,2,19,28,"male","R","immoralOther","immoralSelf","Nonmatching","Other","Other","Stranger","Bad","n",871.3,0.8713,1
"644",7303,3,2,20,28,"male","R","immoralOther","immoralOther","Matching","Other","Other","Stranger","Bad","m",988.5,0.9885,1
"645",7303,3,2,21,28,"male","R","immoralOther","moralSelf","Nonmatching","Other","Other","Stranger","Bad","n",724.1,0.7241,1
"646",7303,3,2,22,28,"male","R","immoralOther","immoralOther","Matching","Other","Other","Stranger","Bad","m",810.4,0.8104,1
"647",7303,3,2,23,28,"male","R","immoralSelf","moralOther","Nonmatching","Self","Self","Self","Bad","n",778.4,0.7784,1
"648",7303,3,2,24,28,"male","R","moralSelf","moralSelf","Matching","Self","Self","Self","Good","m",661.8,0.6618,1
"649",7303,3,3,1,28,"male","R","immoralSelf","immoralOther","Nonmatching","Self","Self","Self","Bad","n",774.8,0.7748,1
"650",7303,3,3,2,28,"male","R","immoralOther","immoralOther","Matching","Other","Other","Stranger","Bad","m",642.2,0.6422,1
"651",7303,3,3,3,28,"male","R","immoralSelf","immoralSelf","Matching","Self","Self","Self","Bad","m",666.8,0.6668,1
"652",7303,3,3,4,28,"male","R","immoralOther","immoralOther","Matching","Other","Other","Stranger","Bad","n",755.8,0.7558,0
"653",7303,3,3,5,28,"male","R","moralOther","immoralOther","Nonmatching","Other","Other","Stranger","Good","m",670.7,0.6707,0
"654",7303,3,3,6,28,"male","R","immoralOther","immoralSelf","Nonmatching","Other","Other","Stranger","Bad","n",820,0.82,1
"655",7303,3,3,7,28,"male","R","immoralOther","moralOther","Nonmatching","Other","Other","Stranger","Bad","n",820,0.82,1
"656",7303,3,3,8,28,"male","R","immoralSelf","immoralOther","Nonmatching","Self","Self","Self","Bad","n",780.2,0.7802,1
"657",7303,3,3,9,28,"male","R","immoralOther","immoralSelf","Nonmatching","Other","Other","Stranger","Bad","n",727.5,0.7275,1
"658",7303,3,3,10,28,"male","R","immoralSelf","immoralOther","Nonmatching","Self","Self","Self","Bad","m",834,0.834,0
"659",7303,3,3,11,28,"male","R","immoralSelf","immoralSelf","Matching","Self","Self","Self","Bad","m",858.5,0.8585,1
"660",7303,3,3,12,28,"male","R","moralOther","moralOther","Matching","Other","Other","Stranger","Good","m",931.6,0.9316,1
"661",7303,3,3,13,28,"male","R","moralSelf","moralSelf","Matching","Self","Self","Self","Good","n",686,0.686,0
"662",7303,3,3,14,28,"male","R","moralOther","moralOther","Matching","Other","Other","Stranger","Good","m",903.5,0.9035,1
"663",7303,3,3,15,28,"male","R","moralSelf","immoralOther","Nonmatching","Self","Self","Self","Good","n",809.5,0.8095,1
"664",7303,3,3,16,28,"male","R","moralSelf","moralSelf","Matching","Self","Self","Self","Good","m",865.5,0.8655,1
"665",7303,3,3,17,28,"male","R","moralSelf","moralSelf","Matching","Self","Self","Self","Good","m",730.7,0.7307,1
"666",7303,3,3,18,28,"male","R","moralOther","moralOther","Matching","Other","Other","Stranger","Good","m",876.9,0.8769,1
"667",7303,3,3,19,28,"male","R","immoralSelf","immoralSelf","Matching","Self","Self","Self","Bad","m",962.2,0.9622,1
"668",7303,3,3,20,28,"male","R","moralSelf","immoralOther","Nonmatching","Self","Self","Self","Good","n",697.5,0.6975,1
"669",7303,3,3,21,28,"male","R","immoralOther","immoralOther","Matching","Other","Other","Stranger","Bad","m",767.2,0.7672,1
"670",7303,3,3,22,28,"male","R","moralOther","immoralSelf","Nonmatching","Other","Other","Stranger","Good","n",766.4,0.7664,1
"671",7303,3,3,23,28,"male","R","moralOther","immoralSelf","Nonmatching","Other","Other","Stranger","Good","n",749.6,0.7496,1
"672",7303,3,3,24,28,"male","R","moralSelf","immoralSelf","Nonmatching","Self","Self","Self","Good","n",844.2,0.8442,1
"673",7303,3,4,1,28,"male","R","immoralOther","immoralOther","Matching","Other","Other","Stranger","Bad","m",840.2,0.8402,1
"674",7303,3,4,2,28,"male","R","moralOther","moralOther","Matching","Other","Other","Stranger","Good","m",728.8,0.7288,1
"675",7303,3,4,3,28,"male","R","immoralOther","immoralOther","Matching","Other","Other","Stranger","Bad","m",803.3,0.8033,1
"676",7303,3,4,4,28,"male","R","immoralSelf","moralSelf","Nonmatching","Self","Self","Self","Bad","n",767.1,0.7671,1
"677",7303,3,4,5,28,"male","R","moralOther","moralOther","Matching","Other","Other","Stranger","Good","m",646.3,0.6463,1
"678",7303,3,4,6,28,"male","R","moralSelf","moralOther","Nonmatching","Self","Self","Self","Good","m",747.1,0.7471,0
"679",7303,3,4,7,28,"male","R","immoralOther","immoralOther","Matching","Other","Other","Stranger","Bad","m",705.7,0.7057,1
"680",7303,3,4,8,28,"male","R","moralSelf","moralSelf","Matching","Self","Self","Self","Good","m",747.7,0.7477,1
"681",7303,3,4,9,28,"male","R","immoralSelf","immoralSelf","Matching","Self","Self","Self","Bad","m",722.4,0.7224,1
"682",7303,3,4,10,28,"male","R","moralSelf","moralOther","Nonmatching","Self","Self","Self","Good","n",832.5,0.8325,1
"683",7303,3,4,11,28,"male","R","moralSelf","moralOther","Nonmatching","Self","Self","Self","Good","m",809.1,0.8091,0
"684",7303,3,4,12,28,"male","R","moralSelf","moralSelf","Matching","Self","Self","Self","Good","m",737.3,0.7373,1
"685",7303,3,4,13,28,"male","R","immoralSelf","immoralSelf","Matching","Self","Self","Self","Bad","m",691.6,0.6916,1
"686",7303,3,4,14,28,"male","R","moralOther","moralSelf","Nonmatching","Other","Other","Stranger","Good","n",785.4,0.7854,1
"687",7303,3,4,15,28,"male","R","immoralSelf","immoralOther","Nonmatching","Self","Self","Self","Bad","n",761.1,0.7611,1
"688",7303,3,4,16,28,"male","R","immoralOther","moralSelf","Nonmatching","Other","Other","Stranger","Bad","n",740,0.74,1
"689",7303,3,4,17,28,"male","R","immoralOther","immoralSelf","Nonmatching","Other","Other","Stranger","Bad","n",762.6,0.7626,1
"690",7303,3,4,18,28,"male","R","immoralSelf","immoralSelf","Matching","Self","Self","Self","Bad","n",705.8,0.7058,0
"691",7303,3,4,19,28,"male","R","immoralOther","moralOther","Nonmatching","Other","Other","Stranger","Bad","n",827.6,0.8276,1
"692",7303,3,4,20,28,"male","R","moralOther","moralSelf","Nonmatching","Other","Other","Stranger","Good","n",840.1,0.8401,1
"693",7303,3,4,21,28,"male","R","immoralSelf","moralSelf","Nonmatching","Self","Self","Self","Bad","n",728.7,0.7287,1
"694",7303,3,4,22,28,"male","R","moralOther","immoralOther","Nonmatching","Other","Other","Stranger","Good","n",843.1,0.8431,1
"695",7303,3,4,23,28,"male","R","moralSelf","moralSelf","Matching","Self","Self","Self","Good","m",747.6,0.7476,1
"696",7303,3,4,24,28,"male","R","moralOther","moralOther","Matching","Other","Other","Stranger","Good","n",834.3,0.8343,0
"697",7303,3,5,1,28,"male","R","moralOther","immoralSelf","Nonmatching","Other","Other","Stranger","Good","n",722.9,0.7229,1
"698",7303,3,5,2,28,"male","R","moralSelf","moralOther","Nonmatching","Self","Self","Self","Good","m",985,0.985,0
"699",7303,3,5,3,28,"male","R","moralOther","moralOther","Matching","Other","Other","Stranger","Good","m",908.4,0.9084,1
"700",7303,3,5,4,28,"male","R","immoralOther","moralSelf","Nonmatching","Other","Other","Stranger","Bad","n",686.4,0.6864,1
"701",7303,3,5,5,28,"male","R","immoralSelf","immoralOther","Nonmatching","Self","Self","Self","Bad","n",863.9,0.8639,1
"702",7303,3,5,6,28,"male","R","moralSelf","moralSelf","Matching","Self","Self","Self","Good","m",609,0.609,1
"703",7303,3,5,7,28,"male","R","immoralOther","immoralOther","Matching","Other","Other","Stranger","Bad","m",745,0.745,1
"704",7303,3,5,8,28,"male","R","moralOther","immoralOther","Nonmatching","Other","Other","Stranger","Good","n",575.7,0.5757,1
"705",7303,3,5,9,28,"male","R","immoralSelf","immoralSelf","Matching","Self","Self","Self","Bad","m",659.1,0.6591,1
"706",7303,3,5,10,28,"male","R","immoralSelf","moralOther","Nonmatching","Self","Self","Self","Bad","n",756.2,0.7562,1
"707",7303,3,5,11,28,"male","R","moralOther","moralOther","Matching","Other","Other","Stranger","Good","m",895.1,0.8951,1
"708",7303,3,5,12,28,"male","R","moralSelf","moralSelf","Matching","Self","Self","Self","Good","m",604.9,0.6049,1
"709",7303,3,5,13,28,"male","R","moralSelf","moralSelf","Matching","Self","Self","Self","Good","m",680.6,0.6806,1
"710",7303,3,5,14,28,"male","R","immoralOther","immoralOther","Matching","Other","Other","Stranger","Bad","n",534.4,0.5344,0
"711",7303,3,5,15,28,"male","R","immoralOther","immoralOther","Matching","Other","Other","Stranger","Bad","m",632.8,0.6328,1
"712",7303,3,5,16,28,"male","R","immoralOther","moralSelf","Nonmatching","Other","Other","Stranger","Bad","n",721.4,0.7214,1
"713",7303,3,5,17,28,"male","R","moralSelf","immoralSelf","Nonmatching","Self","Self","Self","Good","n",687.6,0.6876,1
"714",7303,3,5,18,28,"male","R","moralOther","moralOther","Matching","Other","Other","Stranger","Good","n",673,0.673,0
"715",7303,3,5,19,28,"male","R","immoralOther","immoralSelf","Nonmatching","Other","Other","Stranger","Bad","n",582.3,0.5823,1
"716",7303,3,5,20,28,"male","R","moralOther","moralSelf","Nonmatching","Other","Other","Stranger","Good","m",505.7,0.5057,0
"717",7303,3,5,21,28,"male","R","immoralSelf","immoralSelf","Matching","Self","Self","Self","Bad","m",547.7,0.5477,1
"718",7303,3,5,22,28,"male","R","moralSelf","immoralSelf","Nonmatching","Self","Self","Self","Good","n",802.3,0.8023,1
"719",7303,3,5,23,28,"male","R","immoralSelf","moralSelf","Nonmatching","Self","Self","Self","Bad","n",766.2,0.7662,1
"720",7303,3,5,24,28,"male","R","immoralSelf","immoralSelf","Matching","Self","Self","Self","Bad","m",741.4,0.7414,1
"721",7304,1,1,1,25,"female","R","immoralOther","immoralSelf","Nonmatching","Other","Other","Stranger","Bad","n",724.7,0.7247,0
"722",7304,1,1,1,25,"female","R","immoralSelf","immoralSelf","Matching","Self","Self","Self","Bad","h",948.7,0.9487,2
"723",7304,1,1,1,25,"female","R","moralSelf","moralOther","Nonmatching","Self","Self","Self","Good","u",717.3,0.7173,2
"724",7304,1,1,1,25,"female","R","moralOther","immoralOther","Nonmatching","Other","Other","Stranger","Good","m",742.3,0.7423,1
"725",7304,1,1,1,25,"female","R","immoralSelf","immoralSelf","Matching","Self","Self","Self","Bad","n",751.6,0.7516,1
"726",7304,1,1,1,25,"female","R","immoralOther","moralOther","Nonmatching","Other","Other","Stranger","Bad","m",724.3,0.7243,1
"727",7304,1,1,2,25,"female","R","immoralSelf","moralSelf","Nonmatching","Self","Self","Self","Bad","m",878.6,0.8786,1
"728",7304,1,1,2,25,"female","R","immoralSelf","moralSelf","Nonmatching","Self","Self","Self","Bad","h",392.9,0.3929,2
"729",7304,1,1,2,25,"female","R","immoralOther","moralSelf","Nonmatching","Other","Other","Stranger","Bad",NA,1033,1.033,-1
"730",7304,1,1,2,25,"female","R","immoralOther","immoralOther","Matching","Other","Other","Stranger","Bad","n",780.4,0.7804,1
"731",7304,1,1,2,25,"female","R","immoralSelf","immoralSelf","Matching","Self","Self","Self","Bad","m",627.7,0.6277,0
"732",7304,1,1,2,25,"female","R","immoralOther","immoralOther","Matching","Other","Other","Stranger","Bad","n",782.4,0.7824,1
"733",7304,1,1,3,25,"female","R","moralOther","moralOther","Matching","Other","Other","Stranger","Good","n",816.7,0.8167,1
"734",7304,1,1,3,25,"female","R","immoralOther","immoralOther","Matching","Other","Other","Stranger","Bad","h",133.1,0.1331,2
"735",7304,1,1,3,25,"female","R","immoralOther","immoralSelf","Nonmatching","Other","Other","Stranger","Bad","m",1003.4,1.0034,1
"736",7304,1,1,3,25,"female","R","immoralSelf","moralSelf","Nonmatching","Self","Self","Self","Bad","n",522.6,0.5226,0
"737",7304,1,1,3,25,"female","R","moralOther","immoralSelf","Nonmatching","Other","Other","Stranger","Good",NA,1033,1.033,-1
"738",7304,1,1,3,25,"female","R","moralOther","moralOther","Matching","Other","Other","Stranger","Good","n",892.5,0.8925,1
"739",7304,1,1,4,25,"female","R","immoralOther","immoralOther","Matching","Other","Other","Stranger","Bad","m",872.8,0.8728,0
"740",7304,1,1,4,25,"female","R","immoralOther","immoralOther","Matching","Other","Other","Stranger","Bad","m",533,0.533,0
"741",7304,1,1,4,25,"female","R","immoralOther","immoralOther","Matching","Other","Other","Stranger","Bad","n",917.6,0.9176,1
"742",7304,1,1,4,25,"female","R","immoralOther","immoralSelf","Nonmatching","Other","Other","Stranger","Bad",NA,1033,1.033,-1
"743",7304,1,1,4,25,"female","R","immoralOther","immoralOther","Matching","Other","Other","Stranger","Bad","n",811.9,0.8119,1
"744",7304,1,1,4,25,"female","R","immoralSelf","immoralSelf","Matching","Self","Self","Self","Bad","n",628.7,0.6287,1
"745",7304,1,1,5,25,"female","R","moralOther","moralSelf","Nonmatching","Other","Other","Stranger","Good","n",684.9,0.6849,0
"746",7304,1,1,5,25,"female","R","immoralOther","moralOther","Nonmatching","Other","Other","Stranger","Bad","m",661.2,0.6612,1
"747",7304,1,1,5,25,"female","R","immoralSelf","immoralSelf","Matching","Self","Self","Self","Bad","n",911.7,0.9117,1
"748",7304,1,1,5,25,"female","R","immoralSelf","moralSelf","Nonmatching","Self","Self","Self","Bad","m",650.9,0.6509,1
"749",7304,1,1,5,25,"female","R","moralOther","immoralOther","Nonmatching","Other","Other","Stranger","Good","n",684.1,0.6841,0
"750",7304,1,1,5,25,"female","R","moralSelf","moralSelf","Matching","Self","Self","Self","Good","n",424.8,0.4248,1
"751",7304,1,1,6,25,"female","R","immoralSelf","moralSelf","Nonmatching","Self","Self","Self","Bad","n",695.1,0.6951,0
"752",7304,1,1,6,25,"female","R","moralSelf","moralSelf","Matching","Self","Self","Self","Good","n",443.3,0.4433,1
"753",7304,1,1,6,25,"female","R","moralOther","moralSelf","Nonmatching","Other","Other","Stranger","Good","m",603.8,0.6038,1
"754",7304,1,1,6,25,"female","R","immoralOther","immoralOther","Matching","Other","Other","Stranger","Bad","n",699,0.699,1
"755",7304,1,1,6,25,"female","R","moralSelf","moralSelf","Matching","Self","Self","Self","Good","n",542.2,0.5422,1
"756",7304,1,1,6,25,"female","R","moralSelf","moralSelf","Matching","Self","Self","Self","Good","n",574.9,0.5749,1
"757",7304,1,1,7,25,"female","R","moralSelf","moralSelf","Matching","Self","Self","Self","Good","n",495.1,0.4951,1
"758",7304,1,1,7,25,"female","R","moralSelf","moralSelf","Matching","Self","Self","Self","Good","n",549.3,0.5493,1
"759",7304,1,1,7,25,"female","R","immoralSelf","moralSelf","Nonmatching","Self","Self","Self","Bad","n",798,0.798,0
"760",7304,1,1,7,25,"female","R","moralSelf","immoralSelf","Nonmatching","Self","Self","Self","Good","n",873.1,0.8731,0
"761",7304,1,1,7,25,"female","R","immoralSelf","immoralOther","Nonmatching","Self","Self","Self","Bad","m",676.3,0.6763,1
"762",7304,1,1,7,25,"female","R","immoralOther","immoralOther","Matching","Other","Other","Stranger","Bad","m",655,0.655,0
"763",7304,1,1,8,25,"female","R","immoralOther","immoralOther","Matching","Other","Other","Stranger","Bad","m",871.3,0.8713,0
"764",7304,1,1,8,25,"female","R","immoralSelf","moralSelf","Nonmatching","Self","Self","Self","Bad","m",785.5,0.7855,1
"765",7304,1,1,8,25,"female","R","immoralSelf","moralOther","Nonmatching","Self","Self","Self","Bad","m",888.1,0.8881,1
"766",7304,1,1,8,25,"female","R","moralSelf","moralSelf","Matching","Self","Self","Self","Good","n",581.2,0.5812,1
"767",7304,1,1,8,25,"female","R","immoralOther","moralOther","Nonmatching","Other","Other","Stranger","Bad","n",800.4,0.8004,0
"768",7304,1,1,8,25,"female","R","moralOther","immoralSelf","Nonmatching","Other","Other","Stranger","Good","m",833.1,0.8331,1
"769",7304,1,1,9,25,"female","R","moralSelf","moralSelf","Matching","Self","Self","Self","Good","n",595.4,0.5954,1
"770",7304,1,1,9,25,"female","R","immoralSelf","immoralSelf","Matching","Self","Self","Self","Bad","n",655.6,0.6556,1
"771",7304,1,1,9,25,"female","R","moralOther","moralOther","Matching","Other","Other","Stranger","Good","n",728.3,0.7283,1
"772",7304,1,1,9,25,"female","R","moralSelf","moralOther","Nonmatching","Self","Self","Self","Good","m",723.3,0.7233,1
"773",7304,1,1,9,25,"female","R","moralSelf","moralSelf","Matching","Self","Self","Self","Good","n",530.6,0.5306,1
"774",7304,1,1,9,25,"female","R","immoralOther","immoralOther","Matching","Other","Other","Stranger","Bad","n",653.2,0.6532,1
"775",7304,1,1,10,25,"female","R","immoralOther","immoralOther","Matching","Other","Other","Stranger","Bad","n",687.5,0.6875,1
"776",7304,1,1,10,25,"female","R","moralSelf","immoralSelf","Nonmatching","Self","Self","Self","Good","n",671.7,0.6717,0
"777",7304,1,1,10,25,"female","R","moralSelf","moralSelf","Matching","Self","Self","Self","Good","n",528.4,0.5284,1
"778",7304,1,1,10,25,"female","R","immoralOther","immoralOther","Matching","Other","Other","Stranger","Bad","n",733.4,0.7334,1
"779",7304,1,1,10,25,"female","R","moralOther","moralSelf","Nonmatching","Other","Other","Stranger","Good","m",778.7,0.7787,1
"780",7304,1,1,10,25,"female","R","immoralSelf","moralSelf","Nonmatching","Self","Self","Self","Bad","m",821.3,0.8213,1
"781",7304,1,1,11,25,"female","R","moralSelf","immoralSelf","Nonmatching","Self","Self","Self","Good","m",679.6,0.6796,1
"782",7304,1,1,11,25,"female","R","moralOther","moralOther","Matching","Other","Other","Stranger","Good","n",763.8,0.7638,1
"783",7304,1,1,11,25,"female","R","immoralOther","immoralOther","Matching","Other","Other","Stranger","Bad","n",808.4,0.8084,1
"784",7304,1,1,11,25,"female","R","immoralSelf","immoralSelf","Matching","Self","Self","Self","Bad","n",637.5,0.6375,1
"785",7304,1,1,11,25,"female","R","moralOther","moralOther","Matching","Other","Other","Stranger","Good","n",680.7,0.6807,1
"786",7304,1,1,11,25,"female","R","immoralOther","moralSelf","Nonmatching","Other","Other","Stranger","Bad","m",739.4,0.7394,1
"787",7304,1,1,12,25,"female","R","moralOther","immoralSelf","Nonmatching","Other","Other","Stranger","Good","n",817.7,0.8177,0
"788",7304,1,1,12,25,"female","R","immoralSelf","immoralSelf","Matching","Self","Self","Self","Bad","n",621.9,0.6219,1
"789",7304,1,1,12,25,"female","R","immoralOther","moralOther","Nonmatching","Other","Other","Stranger","Bad","n",696.6,0.6966,0
"790",7304,1,1,12,25,"female","R","immoralSelf","immoralSelf","Matching","Self","Self","Self","Bad","n",807.6,0.8076,1
"791",7304,1,1,12,25,"female","R","immoralSelf","immoralOther","Nonmatching","Self","Self","Self","Bad","m",714.9,0.7149,1
"792",7304,1,1,12,25,"female","R","immoralSelf","immoralSelf","Matching","Self","Self","Self","Bad","n",561.6,0.5616,1
"793",7304,1,1,13,25,"female","R","immoralSelf","immoralSelf","Matching","Self","Self","Self","Bad","m",743.9,0.7439,0
"794",7304,1,1,13,25,"female","R","moralOther","moralOther","Matching","Other","Other","Stranger","Good","n",756.1,0.7561,1
"795",7304,1,1,13,25,"female","R","moralOther","moralSelf","Nonmatching","Other","Other","Stranger","Good","m",784.7,0.7847,1
"796",7304,1,1,13,25,"female","R","moralSelf","immoralOther","Nonmatching","Self","Self","Self","Good","m",663.8,0.6638,1
"797",7304,1,1,13,25,"female","R","moralOther","moralOther","Matching","Other","Other","Stranger","Good","n",847,0.847,1
"798",7304,1,1,13,25,"female","R","moralSelf","moralSelf","Matching","Self","Self","Self","Good","n",475.8,0.4758,1
"799",7304,1,1,14,25,"female","R","moralSelf","immoralSelf","Nonmatching","Self","Self","Self","Good","n",350,0.35,0
"800",7304,1,1,14,25,"female","R","immoralOther","moralSelf","Nonmatching","Other","Other","Stranger","Bad","n",800.2,0.8002,0
"801",7304,1,1,14,25,"female","R","moralSelf","immoralSelf","Nonmatching","Self","Self","Self","Good","n",822.8,0.8228,0
"802",7304,1,1,14,25,"female","R","immoralSelf","moralOther","Nonmatching","Self","Self","Self","Bad","m",877.9,0.8779,1
"803",7304,1,1,14,25,"female","R","immoralOther","immoralOther","Matching","Other","Other","Stranger","Bad","n",705.1,0.7051,1
"804",7304,1,1,14,25,"female","R","moralOther","moralOther","Matching","Other","Other","Stranger","Good","n",751.8,0.7518,1
"805",7304,1,1,15,25,"female","R","immoralSelf","immoralOther","Nonmatching","Self","Self","Self","Bad",NA,1033,1.033,-1
"806",7304,1,1,15,25,"female","R","moralOther","moralOther","Matching","Other","Other","Stranger","Good","n",634.4,0.6344,1
"807",7304,1,1,15,25,"female","R","moralSelf","moralSelf","Matching","Self","Self","Self","Good","n",540.9,0.5409,1
"808",7304,1,1,15,25,"female","R","moralSelf","moralSelf","Matching","Self","Self","Self","Good","n",528.1,0.5281,1
"809",7304,1,1,15,25,"female","R","moralSelf","immoralOther","Nonmatching","Self","Self","Self","Good","m",647.3,0.6473,1
"810",7304,1,1,15,25,"female","R","moralSelf","immoralOther","Nonmatching","Self","Self","Self","Good","m",731.8,0.7318,1
"811",7304,1,1,16,25,"female","R","immoralOther","moralSelf","Nonmatching","Other","Other","Stranger","Bad","n",758.2,0.7582,0
"812",7304,1,1,16,25,"female","R","moralOther","moralSelf","Nonmatching","Other","Other","Stranger","Good","n",846.4,0.8464,0
"813",7304,1,1,16,25,"female","R","immoralSelf","immoralSelf","Matching","Self","Self","Self","Bad","m",811,0.811,0
"814",7304,1,1,16,25,"female","R","moralOther","moralOther","Matching","Other","Other","Stranger","Good","m",728.1,0.7281,0
"815",7304,1,1,16,25,"female","R","moralSelf","moralOther","Nonmatching","Self","Self","Self","Good","m",695.4,0.6954,1
"816",7304,1,1,16,25,"female","R","moralSelf","immoralOther","Nonmatching","Self","Self","Self","Good","m",812,0.812,1
"817",7304,1,1,17,25,"female","R","moralSelf","immoralOther","Nonmatching","Self","Self","Self","Good","m",736.3,0.7363,1
"818",7304,1,1,17,25,"female","R","moralOther","immoralSelf","Nonmatching","Other","Other","Stranger","Good","m",832.5,0.8325,1
"819",7304,1,1,17,25,"female","R","moralOther","moralOther","Matching","Other","Other","Stranger","Good","n",859.2,0.8592,1
"820",7304,1,1,17,25,"female","R","moralSelf","moralSelf","Matching","Self","Self","Self","Good","n",704.3,0.7043,1
"821",7304,1,1,17,25,"female","R","immoralSelf","immoralOther","Nonmatching","Self","Self","Self","Bad","m",703.5,0.7035,1
"822",7304,1,1,17,25,"female","R","moralOther","immoralOther","Nonmatching","Other","Other","Stranger","Good","n",788.1,0.7881,0
