Subject,SessionDate,Age,Sex,Handedness,MotherTongue,Procedure[SubTrial],LabelOrder,PressAssos.RT,BlockType,CloseShape,CloseWord,MediumShape,MediumWord,FarShape,FarWord,Stimulus,Congruent,Incongruent,Target.ACC,Target.CRESP,Target.RESP,Target.RT
9503,08-08-2017,29,male,right,Hebrew,Assos,SUF,24259,,circle.bmp,father,square.bmp,close,triangle.bmp,stranger,,m,z,,,,
9503,08-08-2017,29,male,right,Hebrew,PracProc,SUF,,CloseBlock,circle.bmp,father,square.bmp,close,triangle.bmp,stranger,triangle.bmp,m,z,,,,
9503,08-08-2017,29,male,right,Hebrew,PracProc,SUF,,CloseBlock,circle.bmp,father,square.bmp,close,triangle.bmp,stranger,circle.bmp,m,z,,,,
9503,08-08-2017,29,male,right,Hebrew,PracProc,SUF,,FarBlock,circle.bmp,father,square.bmp,close,triangle.bmp,stranger,triangle.bmp,m,z,,,,
9503,08-08-2017,29,male,right,Hebrew,PracProc,SUF,,MediumBlock,circle.bmp,father,square.bmp,close,triangle.bmp,stranger,square.bmp,m,z,,,,
9503,08-08-2017,29,male,right,Hebrew,PracProc,SUF,,MediumBlock,circle.bmp,father,square.bmp,close,triangle.bmp,stranger,triangle.bmp,m,z,,,,
9503,08-08-2017,29,male,right,Hebrew,PracProc,SUF,,MediumBlock,circle.bmp,father,square.bmp,close,triangle.bmp,stranger,circle.bmp,m,z,,,,
9503,08-08-2017,29,male,right,Hebrew,PracProc,SUF,,CloseBlock,circle.bmp,father,square.bmp,close,triangle.bmp,stranger,circle.bmp,m,z,,,,
9503,08-08-2017,29,male,right,Hebrew,PracProc,SUF,,FarBlock,circle.bmp,father,square.bmp,close,triangle.bmp,stranger,circle.bmp,m,z,,,,
9503,08-08-2017,29,male,right,Hebrew,PracProc,SUF,,FarBlock,circle.bmp,father,square.bmp,close,triangle.bmp,stranger,square.bmp,m,z,,,,
9503,08-08-2017,29,male,right,Hebrew,PracProc,SUF,,CloseBlock,circle.bmp,father,square.bmp,close,triangle.bmp,stranger,square.bmp,m,z,,,,
9503,08-08-2017,29,male,right,Hebrew,PracProc,SUF,,MediumBlock,circle.bmp,father,square.bmp,close,triangle.bmp,stranger,square.bmp,m,z,,,,
9503,08-08-2017,29,male,right,Hebrew,PracProc,SUF,,FarBlock,circle.bmp,father,square.bmp,close,triangle.bmp,stranger,triangle.bmp,m,z,,,,
9503,08-08-2017,29,male,right,Hebrew,FBbreak,SUF,,,circle.bmp,father,square.bmp,close,triangle.bmp,stranger,,m,z,,,,
9503,08-08-2017,29,male,right,Hebrew,inst,SUF,,,circle.bmp,father,square.bmp,close,triangle.bmp,stranger,,m,z,,,,
9503,08-08-2017,29,male,right,Hebrew,MMProc,SUF,,FarBlock,circle.bmp,father,square.bmp,close,triangle.bmp,stranger,triangle.bmp,m,z,1,m,m,2883
9503,08-08-2017,29,male,right,Hebrew,MMProc,SUF,,CloseBlock,circle.bmp,father,square.bmp,close,triangle.bmp,stranger,triangle.bmp,m,z,1,z,z,2011
9503,08-08-2017,29,male,right,Hebrew,MMProc,SUF,,MediumBlock,circle.bmp,father,square.bmp,close,triangle.bmp,stranger,circle.bmp,m,z,1,z,z,1670
9503,08-08-2017,29,male,right,Hebrew,MMProc,SUF,,MediumBlock,circle.bmp,father,square.bmp,close,triangle.bmp,stranger,square.bmp,m,z,1,m,m,798
9503,08-08-2017,29,male,right,Hebrew,MMProc,SUF,,MediumBlock,circle.bmp,father,square.bmp,close,triangle.bmp,stranger,square.bmp,m,z,1,m,m,890
9503,08-08-2017,29,male,right,Hebrew,MMProc,SUF,,FarBlock,circle.bmp,father,square.bmp,close,triangle.bmp,stranger,triangle.bmp,m,z,0,m,z,1674
9503,08-08-2017,29,male,right,Hebrew,MMProc,SUF,,MediumBlock,circle.bmp,father,square.bmp,close,triangle.bmp,stranger,square.bmp,m,z,1,m,m,1242
9503,08-08-2017,29,male,right,Hebrew,MMProc,SUF,,FarBlock,circle.bmp,father,square.bmp,close,triangle.bmp,stranger,square.bmp,m,z,1,z,z,1636
9503,08-08-2017,29,male,right,Hebrew,MMProc,SUF,,MediumBlock,circle.bmp,father,square.bmp,close,triangle.bmp,stranger,circle.bmp,m,z,1,z,z,3814
9503,08-08-2017,29,male,right,Hebrew,MMProc,SUF,,MediumBlock,circle.bmp,father,square.bmp,close,triangle.bmp,stranger,square.bmp,m,z,1,m,m,1865
9503,08-08-2017,29,male,right,Hebrew,MMProc,SUF,,FarBlock,circle.bmp,father,square.bmp,close,triangle.bmp,stranger,circle.bmp,m,z,1,z,z,1898
9503,08-08-2017,29,male,right,Hebrew,MMProc,SUF,,FarBlock,circle.bmp,father,square.bmp,close,triangle.bmp,stranger,triangle.bmp,m,z,1,m,m,1241
9503,08-08-2017,29,male,right,Hebrew,MMProc,SUF,,MediumBlock,circle.bmp,father,square.bmp,close,triangle.bmp,stranger,square.bmp,m,z,1,m,m,1067
9503,08-08-2017,29,male,right,Hebrew,MMProc,SUF,,CloseBlock,circle.bmp,father,square.bmp,close,triangle.bmp,stranger,circle.bmp,m,z,1,m,m,1700
9503,08-08-2017,29,male,right,Hebrew,MMProc,SUF,,FarBlock,circle.bmp,father,square.bmp,close,triangle.bmp,stranger,circle.bmp,m,z,1,z,z,963
9503,08-08-2017,29,male,right,Hebrew,MMProc,SUF,,MediumBlock,circle.bmp,father,square.bmp,close,triangle.bmp,stranger,square.bmp,m,z,1,m,m,1216
9503,08-08-2017,29,male,right,Hebrew,MMProc,SUF,,CloseBlock,circle.bmp,father,square.bmp,close,triangle.bmp,stranger,circle.bmp,m,z,1,m,m,1027
9503,08-08-2017,29,male,right,Hebrew,MMProc,SUF,,MediumBlock,circle.bmp,father,square.bmp,close,triangle.bmp,stranger,triangle.bmp,m,z,1,z,z,1764
9503,08-08-2017,29,male,right,Hebrew,MMProc,SUF,,FarBlock,circle.bmp,father,square.bmp,close,triangle.bmp,stranger,triangle.bmp,m,z,1,m,m,761
9503,08-08-2017,29,male,right,Hebrew,MMProc,SUF,,FarBlock,circle.bmp,father,square.bmp,close,triangle.bmp,stranger,circle.bmp,m,z,1,z,z,854
9503,08-08-2017,29,male,right,Hebrew,MMProc,SUF,,FarBlock,circle.bmp,father,square.bmp,close,triangle.bmp,stranger,square.bmp,m,z,1,z,z,776
9503,08-08-2017,29,male,right,Hebrew,MMProc,SUF,,FarBlock,circle.bmp,father,square.bmp,close,triangle.bmp,stranger,square.bmp,m,z,1,z,z,804
9503,08-08-2017,29,male,right,Hebrew,MMProc,SUF,,CloseBlock,circle.bmp,father,square.bmp,close,triangle.bmp,stranger,triangle.bmp,m,z,1,z,z,1048
9503,08-08-2017,29,male,right,Hebrew,MMProc,SUF,,CloseBlock,circle.bmp,father,square.bmp,close,triangle.bmp,stranger,square.bmp,m,z,1,z,z,1137
9503,08-08-2017,29,male,right,Hebrew,MMProc,SUF,,CloseBlock,circle.bmp,father,square.bmp,close,triangle.bmp,stranger,circle.bmp,m,z,1,m,m,1095
9503,08-08-2017,29,male,right,Hebrew,MMProc,SUF,,CloseBlock,circle.bmp,father,square.bmp,close,triangle.bmp,stranger,circle.bmp,m,z,1,m,m,839
9503,08-08-2017,29,male,right,Hebrew,MMProc,SUF,,MediumBlock,circle.bmp,father,square.bmp,close,triangle.bmp,stranger,circle.bmp,m,z,1,z,z,1337
9503,08-08-2017,29,male,right,Hebrew,MMProc,SUF,,FarBlock,circle.bmp,father,square.bmp,close,triangle.bmp,stranger,triangle.bmp,m,z,1,m,m,1383
9503,08-08-2017,29,male,right,Hebrew,MMProc,SUF,,FarBlock,circle.bmp,father,square.bmp,close,triangle.bmp,stranger,circle.bmp,m,z,1,z,z,699
9503,08-08-2017,29,male,right,Hebrew,MMProc,SUF,,CloseBlock,circle.bmp,father,square.bmp,close,triangle.bmp,stranger,square.bmp,m,z,1,z,z,955
9503,08-08-2017,29,male,right,Hebrew,MMProc,SUF,,MediumBlock,circle.bmp,father,square.bmp,close,triangle.bmp,stranger,square.bmp,m,z,1,m,m,1080
9503,08-08-2017,29,male,right,Hebrew,MMProc,SUF,,CloseBlock,circle.bmp,father,square.bmp,close,triangle.bmp,stranger,circle.bmp,m,z,1,m,m,1321
9503,08-08-2017,29,male,right,Hebrew,MMProc,SUF,,FarBlock,circle.bmp,father,square.bmp,close,triangle.bmp,stranger,triangle.bmp,m,z,1,m,m,991
9503,08-08-2017,29,male,right,Hebrew,MMProc,SUF,,MediumBlock,circle.bmp,father,square.bmp,close,triangle.bmp,stranger,square.bmp,m,z,1,m,m,899
9503,08-08-2017,29,male,right,Hebrew,MMProc,SUF,,MediumBlock,circle.bmp,father,square.bmp,close,triangle.bmp,stranger,circle.bmp,m,z,1,z,z,875
9503,08-08-2017,29,male,right,Hebrew,MMProc,SUF,,CloseBlock,circle.bmp,father,square.bmp,close,triangle.bmp,stranger,circle.bmp,m,z,1,m,m,675
9503,08-08-2017,29,male,right,Hebrew,MMProc,SUF,,FarBlock,circle.bmp,father,square.bmp,close,triangle.bmp,stranger,square.bmp,m,z,1,z,z,940
9503,08-08-2017,29,male,right,Hebrew,MMProc,SUF,,FarBlock,circle.bmp,father,square.bmp,close,triangle.bmp,stranger,triangle.bmp,m,z,1,m,m,618
9503,08-08-2017,29,male,right,Hebrew,MMProc,SUF,,CloseBlock,circle.bmp,father,square.bmp,close,triangle.bmp,stranger,square.bmp,m,z,1,z,z,1085
9503,08-08-2017,29,male,right,Hebrew,MMProc,SUF,,FarBlock,circle.bmp,father,square.bmp,close,triangle.bmp,stranger,triangle.bmp,m,z,1,m,m,1132
9503,08-08-2017,29,male,right,Hebrew,MMProc,SUF,,MediumBlock,circle.bmp,father,square.bmp,close,triangle.bmp,stranger,square.bmp,m,z,1,m,m,962
9503,08-08-2017,29,male,right,Hebrew,MMProc,SUF,,CloseBlock,circle.bmp,father,square.bmp,close,triangle.bmp,stranger,square.bmp,m,z,1,z,z,735
9503,08-08-2017,29,male,right,Hebrew,MMProc,SUF,,MediumBlock,circle.bmp,father,square.bmp,close,triangle.bmp,stranger,square.bmp,m,z,1,m,m,869
9503,08-08-2017,29,male,right,Hebrew,MMProc,SUF,,MediumBlock,circle.bmp,father,square.bmp,close,triangle.bmp,stranger,triangle.bmp,m,z,1,z,z,1110
9503,08-08-2017,29,male,right,Hebrew,MMProc,SUF,,FarBlock,circle.bmp,father,square.bmp,close,triangle.bmp,stranger,triangle.bmp,m,z,1,m,m,533
9503,08-08-2017,29,male,right,Hebrew,MMProc,SUF,,CloseBlock,circle.bmp,father,square.bmp,close,triangle.bmp,stranger,square.bmp,m,z,1,z,z,931
9503,08-08-2017,29,male,right,Hebrew,MMProc,SUF,,CloseBlock,circle.bmp,father,square.bmp,close,triangle.bmp,stranger,square.bmp,m,z,1,z,z,922
9503,08-08-2017,29,male,right,Hebrew,MMProc,SUF,,CloseBlock,circle.bmp,father,square.bmp,close,triangle.bmp,stranger,circle.bmp,m,z,1,m,m,600
9503,08-08-2017,29,male,right,Hebrew,MMProc,SUF,,CloseBlock,circle.bmp,father,square.bmp,close,triangle.bmp,stranger,triangle.bmp,m,z,1,z,z,956
9503,08-08-2017,29,male,right,Hebrew,MMProc,SUF,,CloseBlock,circle.bmp,father,square.bmp,close,triangle.bmp,stranger,triangle.bmp,m,z,1,z,z,618
9503,08-08-2017,29,male,right,Hebrew,MMProc,SUF,,MediumBlock,circle.bmp,father,square.bmp,close,triangle.bmp,stranger,triangle.bmp,m,z,1,z,z,1124
9503,08-08-2017,29,male,right,Hebrew,MMProc,SUF,,MediumBlock,circle.bmp,father,square.bmp,close,triangle.bmp,stranger,square.bmp,m,z,1,m,m,1275
9503,08-08-2017,29,male,right,Hebrew,MMProc,SUF,,FarBlock,circle.bmp,father,square.bmp,close,triangle.bmp,stranger,square.bmp,m,z,1,z,z,700
9503,08-08-2017,29,male,right,Hebrew,MMProc,SUF,,MediumBlock,circle.bmp,father,square.bmp,close,triangle.bmp,stranger,triangle.bmp,m,z,1,z,z,819
9503,08-08-2017,29,male,right,Hebrew,MMProc,SUF,,CloseBlock,circle.bmp,father,square.bmp,close,triangle.bmp,stranger,circle.bmp,m,z,1,m,m,757
9503,08-08-2017,29,male,right,Hebrew,MMProc,SUF,,FarBlock,circle.bmp,father,square.bmp,close,triangle.bmp,stranger,triangle.bmp,m,z,1,m,m,1178
9503,08-08-2017,29,male,right,Hebrew,MMProc,SUF,,CloseBlock,circle.bmp,father,square.bmp,close,triangle.bmp,stranger,circle.bmp,m,z,1,m,m,711
9503,08-08-2017,29,male,right,Hebrew,MMProc,SUF,,FarBlock,circle.bmp,father,square.bmp,close,triangle.bmp,stranger,square.bmp,m,z,1,z,z,1158
9503,08-08-2017,29,male,right,Hebrew,MMProc,SUF,,FarBlock,circle.bmp,father,square.bmp,close,triangle.bmp,stranger,square.bmp,m,z,1,z,z,827
9503,08-08-2017,29,male,right,Hebrew,MMProc,SUF,,MediumBlock,circle.bmp,father,square.bmp,close,triangle.bmp,stranger,square.bmp,m,z,1,m,m,773
9503,08-08-2017,29,male,right,Hebrew,MMProc,SUF,,MediumBlock,circle.bmp,father,square.bmp,close,triangle.bmp,stranger,square.bmp,m,z,1,m,m,842
9503,08-08-2017,29,male,right,Hebrew,MMProc,SUF,,FarBlock,circle.bmp,father,square.bmp,close,triangle.bmp,stranger,triangle.bmp,m,z,1,m,m,932
9503,08-08-2017,29,male,right,Hebrew,MMProc,SUF,,FarBlock,circle.bmp,father,square.bmp,close,triangle.bmp,stranger,circle.bmp,m,z,1,z,z,770
9503,08-08-2017,29,male,right,Hebrew,MMProc,SUF,,CloseBlock,circle.bmp,father,square.bmp,close,triangle.bmp,stranger,circle.bmp,m,z,1,m,m,775
9503,08-08-2017,29,male,right,Hebrew,MMProc,SUF,,MediumBlock,circle.bmp,father,square.bmp,close,triangle.bmp,stranger,circle.bmp,m,z,1,z,z,1547
9503,08-08-2017,29,male,right,Hebrew,MMProc,SUF,,MediumBlock,circle.bmp,father,square.bmp,close,triangle.bmp,stranger,square.bmp,m,z,1,m,m,1177
9503,08-08-2017,29,male,right,Hebrew,MMProc,SUF,,MediumBlock,circle.bmp,father,square.bmp,close,triangle.bmp,stranger,triangle.bmp,m,z,1,z,z,693
9503,08-08-2017,29,male,right,Hebrew,MMProc,SUF,,MediumBlock,circle.bmp,father,square.bmp,close,triangle.bmp,stranger,triangle.bmp,m,z,1,z,z,901
9503,08-08-2017,29,male,right,Hebrew,MMProc,SUF,,MediumBlock,circle.bmp,father,square.bmp,close,triangle.bmp,stranger,square.bmp,m,z,1,m,m,773
9503,08-08-2017,29,male,right,Hebrew,MMProc,SUF,,MediumBlock,circle.bmp,father,square.bmp,close,triangle.bmp,stranger,circle.bmp,m,z,1,z,z,777
9503,08-08-2017,29,male,right,Hebrew,MMProc,SUF,,FarBlock,circle.bmp,father,square.bmp,close,triangle.bmp,stranger,square.bmp,m,z,1,z,z,1158
9503,08-08-2017,29,male,right,Hebrew,MMProc,SUF,,FarBlock,circle.bmp,father,square.bmp,close,triangle.bmp,stranger,triangle.bmp,m,z,1,m,m,659
9503,08-08-2017,29,male,right,Hebrew,MMProc,SUF,,MediumBlock,circle.bmp,father,square.bmp,close,triangle.bmp,stranger,square.bmp,m,z,0,m,z,1188
9503,08-08-2017,29,male,right,Hebrew,MMProc,SUF,,CloseBlock,circle.bmp,father,square.bmp,close,triangle.bmp,stranger,square.bmp,m,z,1,z,z,864
9503,08-08-2017,29,male,right,Hebrew,MMProc,SUF,,CloseBlock,circle.bmp,father,square.bmp,close,triangle.bmp,stranger,square.bmp,m,z,1,z,z,953
9503,08-08-2017,29,male,right,Hebrew,MMProc,SUF,,MediumBlock,circle.bmp,father,square.bmp,close,triangle.bmp,stranger,circle.bmp,m,z,1,z,z,934
9503,08-08-2017,29,male,right,Hebrew,MMProc,SUF,,MediumBlock,circle.bmp,father,square.bmp,close,triangle.bmp,stranger,triangle.bmp,m,z,1,z,z,892
9503,08-08-2017,29,male,right,Hebrew,MMProc,SUF,,CloseBlock,circle.bmp,father,square.bmp,close,triangle.bmp,stranger,circle.bmp,m,z,1,m,m,788
9503,08-08-2017,29,male,right,Hebrew,MMProc,SUF,,FarBlock,circle.bmp,father,square.bmp,close,triangle.bmp,stranger,triangle.bmp,m,z,1,m,m,824
9503,08-08-2017,29,male,right,Hebrew,MMProc,SUF,,CloseBlock,circle.bmp,father,square.bmp,close,triangle.bmp,stranger,circle.bmp,m,z,1,m,m,851
9503,08-08-2017,29,male,right,Hebrew,MMProc,SUF,,CloseBlock,circle.bmp,father,square.bmp,close,triangle.bmp,stranger,triangle.bmp,m,z,1,z,z,740
9503,08-08-2017,29,male,right,Hebrew,MMProc,SUF,,FarBlock,circle.bmp,father,square.bmp,close,triangle.bmp,stranger,triangle.bmp,m,z,1,m,m,730
9503,08-08-2017,29,male,right,Hebrew,MMProc,SUF,,CloseBlock,circle.bmp,father,square.bmp,close,triangle.bmp,stranger,circle.bmp,m,z,1,m,m,745
9503,08-08-2017,29,male,right,Hebrew,MMProc,SUF,,CloseBlock,circle.bmp,father,square.bmp,close,triangle.bmp,stranger,triangle.bmp,m,z,1,z,z,742
9503,08-08-2017,29,male,right,Hebrew,MMProc,SUF,,CloseBlock,circle.bmp,father,square.bmp,close,triangle.bmp,stranger,triangle.bmp,m,z,1,z,z,884
9503,08-08-2017,29,male,right,Hebrew,MMProc,SUF,,FarBlock,circle.bmp,father,square.bmp,close,triangle.bmp,stranger,circle.bmp,m,z,1,z,z,916
9503,08-08-2017,29,male,right,Hebrew,MMProc,SUF,,FarBlock,circle.bmp,father,square.bmp,close,triangle.bmp,stranger,triangle.bmp,m,z,1,m,m,923
9503,08-08-2017,29,male,right,Hebrew,MMProc,SUF,,CloseBlock,circle.bmp,father,square.bmp,close,triangle.bmp,stranger,circle.bmp,m,z,1,m,m,778
9503,08-08-2017,29,male,right,Hebrew,MMProc,SUF,,CloseBlock,circle.bmp,father,square.bmp,close,triangle.bmp,stranger,square.bmp,m,z,1,z,z,758
9503,08-08-2017,29,male,right,Hebrew,MMProc,SUF,,CloseBlock,circle.bmp,father,square.bmp,close,triangle.bmp,stranger,circle.bmp,m,z,1,m,m,796
9503,08-08-2017,29,male,right,Hebrew,MMProc,SUF,,MediumBlock,circle.bmp,father,square.bmp,close,triangle.bmp,stranger,triangle.bmp,m,z,1,z,z,1176
9503,08-08-2017,29,male,right,Hebrew,MMProc,SUF,,FarBlock,circle.bmp,father,square.bmp,close,triangle.bmp,stranger,square.bmp,m,z,1,z,z,1043
9503,08-08-2017,29,male,right,Hebrew,MMProc,SUF,,FarBlock,circle.bmp,father,square.bmp,close,triangle.bmp,stranger,circle.bmp,m,z,1,z,z,789
9503,08-08-2017,29,male,right,Hebrew,MMProc,SUF,,FarBlock,circle.bmp,father,square.bmp,close,triangle.bmp,stranger,triangle.bmp,m,z,1,m,m,665
9503,08-08-2017,29,male,right,Hebrew,MMProc,SUF,,FarBlock,circle.bmp,father,square.bmp,close,triangle.bmp,stranger,triangle.bmp,m,z,1,m,m,690
9503,08-08-2017,29,male,right,Hebrew,MMProc,SUF,,MediumBlock,circle.bmp,father,square.bmp,close,triangle.bmp,stranger,square.bmp,m,z,1,m,m,730
9503,08-08-2017,29,male,right,Hebrew,MMProc,SUF,,FarBlock,circle.bmp,father,square.bmp,close,triangle.bmp,stranger,triangle.bmp,m,z,0,m,z,712
9503,08-08-2017,29,male,right,Hebrew,MMProc,SUF,,MediumBlock,circle.bmp,father,square.bmp,close,triangle.bmp,stranger,circle.bmp,m,z,1,z,z,991
9503,08-08-2017,29,male,right,Hebrew,MMProc,SUF,,FarBlock,circle.bmp,father,square.bmp,close,triangle.bmp,stranger,circle.bmp,m,z,1,z,z,915
9503,08-08-2017,29,male,right,Hebrew,MMProc,SUF,,FarBlock,circle.bmp,father,square.bmp,close,triangle.bmp,stranger,circle.bmp,m,z,1,z,z,658
9503,08-08-2017,29,male,right,Hebrew,MMProc,SUF,,CloseBlock,circle.bmp,father,square.bmp,close,triangle.bmp,stranger,triangle.bmp,m,z,1,z,z,835
9503,08-08-2017,29,male,right,Hebrew,MMProc,SUF,,MediumBlock,circle.bmp,father,square.bmp,close,triangle.bmp,stranger,square.bmp,m,z,1,m,m,933
9503,08-08-2017,29,male,right,Hebrew,MMProc,SUF,,MediumBlock,circle.bmp,father,square.bmp,close,triangle.bmp,stranger,circle.bmp,m,z,1,z,z,707
9503,08-08-2017,29,male,right,Hebrew,MMProc,SUF,,CloseBlock,circle.bmp,father,square.bmp,close,triangle.bmp,stranger,square.bmp,m,z,1,z,z,930
9503,08-08-2017,29,male,right,Hebrew,MMProc,SUF,,MediumBlock,circle.bmp,father,square.bmp,close,triangle.bmp,stranger,triangle.bmp,m,z,1,z,z,921
9503,08-08-2017,29,male,right,Hebrew,MMProc,SUF,,CloseBlock,circle.bmp,father,square.bmp,close,triangle.bmp,stranger,triangle.bmp,m,z,1,z,z,807
9503,08-08-2017,29,male,right,Hebrew,MMProc,SUF,,CloseBlock,circle.bmp,father,square.bmp,close,triangle.bmp,stranger,circle.bmp,m,z,1,m,m,731
9503,08-08-2017,29,male,right,Hebrew,MMProc,SUF,,CloseBlock,circle.bmp,father,square.bmp,close,triangle.bmp,stranger,triangle.bmp,m,z,1,z,z,1097
9503,08-08-2017,29,male,right,Hebrew,MMProc,SUF,,FarBlock,circle.bmp,father,square.bmp,close,triangle.bmp,stranger,triangle.bmp,m,z,1,m,m,825
9503,08-08-2017,29,male,right,Hebrew,MMProc,SUF,,CloseBlock,circle.bmp,father,square.bmp,close,triangle.bmp,stranger,circle.bmp,m,z,1,m,m,883
9503,08-08-2017,29,male,right,Hebrew,MMProc,SUF,,FarBlock,circle.bmp,father,square.bmp,close,triangle.bmp,stranger,circle.bmp,m,z,1,z,z,724
9503,08-08-2017,29,male,right,Hebrew,MMProc,SUF,,CloseBlock,circle.bmp,father,square.bmp,close,triangle.bmp,stranger,circle.bmp,m,z,1,m,m,746
9503,08-08-2017,29,male,right,Hebrew,MMProc,SUF,,MediumBlock,circle.bmp,father,square.bmp,close,triangle.bmp,stranger,triangle.bmp,m,z,1,z,z,1352
9503,08-08-2017,29,male,right,Hebrew,MMProc,SUF,,CloseBlock,circle.bmp,father,square.bmp,close,triangle.bmp,stranger,circle.bmp,m,z,1,m,m,741
9503,08-08-2017,29,male,right,Hebrew,MMProc,SUF,,MediumBlock,circle.bmp,father,square.bmp,close,triangle.bmp,stranger,square.bmp,m,z,1,m,m,867
9503,08-08-2017,29,male,right,Hebrew,MMProc,SUF,,FarBlock,circle.bmp,father,square.bmp,close,triangle.bmp,stranger,triangle.bmp,m,z,1,m,m,996
9503,08-08-2017,29,male,right,Hebrew,MMProc,SUF,,FarBlock,circle.bmp,father,square.bmp,close,triangle.bmp,stranger,square.bmp,m,z,1,z,z,696
9503,08-08-2017,29,male,right,Hebrew,MMProc,SUF,,MediumBlock,circle.bmp,father,square.bmp,close,triangle.bmp,stranger,circle.bmp,m,z,1,z,z,1176
9503,08-08-2017,29,male,right,Hebrew,MMProc,SUF,,CloseBlock,circle.bmp,father,square.bmp,close,triangle.bmp,stranger,circle.bmp,m,z,1,m,m,660
9503,08-08-2017,29,male,right,Hebrew,MMProc,SUF,,MediumBlock,circle.bmp,father,square.bmp,close,triangle.bmp,stranger,square.bmp,m,z,1,m,m,1045
9503,08-08-2017,29,male,right,Hebrew,FBbreak1,SUF,,,circle.bmp,father,square.bmp,close,triangle.bmp,stranger,,m,z,,,,
9503,08-08-2017,29,male,right,Hebrew,MMProc,SUF,,FarBlock,circle.bmp,father,square.bmp,close,triangle.bmp,stranger,square.bmp,m,z,1,z,z,2120
9503,08-08-2017,29,male,right,Hebrew,MMProc,SUF,,CloseBlock,circle.bmp,father,square.bmp,close,triangle.bmp,stranger,circle.bmp,m,z,1,m,m,839
9503,08-08-2017,29,male,right,Hebrew,MMProc,SUF,,MediumBlock,circle.bmp,father,square.bmp,close,triangle.bmp,stranger,square.bmp,m,z,1,m,m,921
9503,08-08-2017,29,male,right,Hebrew,MMProc,SUF,,FarBlock,circle.bmp,father,square.bmp,close,triangle.bmp,stranger,circle.bmp,m,z,1,z,z,1975
9503,08-08-2017,29,male,right,Hebrew,MMProc,SUF,,CloseBlock,circle.bmp,father,square.bmp,close,triangle.bmp,stranger,square.bmp,m,z,1,z,z,1787
9503,08-08-2017,29,male,right,Hebrew,MMProc,SUF,,FarBlock,circle.bmp,father,square.bmp,close,triangle.bmp,stranger,triangle.bmp,m,z,1,m,m,967
9503,08-08-2017,29,male,right,Hebrew,MMProc,SUF,,FarBlock,circle.bmp,father,square.bmp,close,triangle.bmp,stranger,circle.bmp,m,z,1,z,z,1092
9503,08-08-2017,29,male,right,Hebrew,MMProc,SUF,,FarBlock,circle.bmp,father,square.bmp,close,triangle.bmp,stranger,triangle.bmp,m,z,1,m,m,675
9503,08-08-2017,29,male,right,Hebrew,MMProc,SUF,,MediumBlock,circle.bmp,father,square.bmp,close,triangle.bmp,stranger,square.bmp,m,z,1,m,m,980
9503,08-08-2017,29,male,right,Hebrew,MMProc,SUF,,CloseBlock,circle.bmp,father,square.bmp,close,triangle.bmp,stranger,triangle.bmp,m,z,1,z,z,1016
9503,08-08-2017,29,male,right,Hebrew,MMProc,SUF,,MediumBlock,circle.bmp,father,square.bmp,close,triangle.bmp,stranger,square.bmp,m,z,1,m,m,899
9503,08-08-2017,29,male,right,Hebrew,MMProc,SUF,,CloseBlock,circle.bmp,father,square.bmp,close,triangle.bmp,stranger,circle.bmp,m,z,1,m,m,642
9503,08-08-2017,29,male,right,Hebrew,MMProc,SUF,,FarBlock,circle.bmp,father,square.bmp,close,triangle.bmp,stranger,triangle.bmp,m,z,1,m,m,612
9503,08-08-2017,29,male,right,Hebrew,MMProc,SUF,,FarBlock,circle.bmp,father,square.bmp,close,triangle.bmp,stranger,triangle.bmp,m,z,1,m,m,759
9503,08-08-2017,29,male,right,Hebrew,MMProc,SUF,,CloseBlock,circle.bmp,father,square.bmp,close,triangle.bmp,stranger,circle.bmp,m,z,1,m,m,597
9503,08-08-2017,29,male,right,Hebrew,MMProc,SUF,,CloseBlock,circle.bmp,father,square.bmp,close,triangle.bmp,stranger,circle.bmp,m,z,1,m,m,760
9503,08-08-2017,29,male,right,Hebrew,MMProc,SUF,,CloseBlock,circle.bmp,father,square.bmp,close,triangle.bmp,stranger,triangle.bmp,m,z,1,z,z,693
9503,08-08-2017,29,male,right,Hebrew,MMProc,SUF,,MediumBlock,circle.bmp,father,square.bmp,close,triangle.bmp,stranger,triangle.bmp,m,z,1,z,z,1061
9503,08-08-2017,29,male,right,Hebrew,MMProc,SUF,,FarBlock,circle.bmp,father,square.bmp,close,triangle.bmp,stranger,triangle.bmp,m,z,1,m,m,822
9503,08-08-2017,29,male,right,Hebrew,MMProc,SUF,,MediumBlock,circle.bmp,father,square.bmp,close,triangle.bmp,stranger,circle.bmp,m,z,1,z,z,1193
9503,08-08-2017,29,male,right,Hebrew,MMProc,SUF,,MediumBlock,circle.bmp,father,square.bmp,close,triangle.bmp,stranger,circle.bmp,m,z,1,z,z,709
9503,08-08-2017,29,male,right,Hebrew,MMProc,SUF,,FarBlock,circle.bmp,father,square.bmp,close,triangle.bmp,stranger,triangle.bmp,m,z,1,m,m,772
9503,08-08-2017,29,male,right,Hebrew,MMProc,SUF,,CloseBlock,circle.bmp,father,square.bmp,close,triangle.bmp,stranger,circle.bmp,m,z,1,m,m,832
9503,08-08-2017,29,male,right,Hebrew,MMProc,SUF,,MediumBlock,circle.bmp,father,square.bmp,close,triangle.bmp,stranger,square.bmp,m,z,1,m,m,747
9503,08-08-2017,29,male,right,Hebrew,MMProc,SUF,,MediumBlock,circle.bmp,father,square.bmp,close,triangle.bmp,stranger,circle.bmp,m,z,1,z,z,697
9503,08-08-2017,29,male,right,Hebrew,MMProc,SUF,,CloseBlock,circle.bmp,father,square.bmp,close,triangle.bmp,stranger,circle.bmp,m,z,1,m,m,840
9503,08-08-2017,29,male,right,Hebrew,MMProc,SUF,,CloseBlock,circle.bmp,father,square.bmp,close,triangle.bmp,stranger,square.bmp,m,z,1,z,z,818
9503,08-08-2017,29,male,right,Hebrew,MMProc,SUF,,MediumBlock,circle.bmp,father,square.bmp,close,triangle.bmp,stranger,triangle.bmp,m,z,1,z,z,2021
9503,08-08-2017,29,male,right,Hebrew,MMProc,SUF,,FarBlock,circle.bmp,father,square.bmp,close,triangle.bmp,stranger,circle.bmp,m,z,1,z,z,887
9503,08-08-2017,29,male,right,Hebrew,MMProc,SUF,,MediumBlock,circle.bmp,father,square.bmp,close,triangle.bmp,stranger,square.bmp,m,z,1,m,m,1256
9503,08-08-2017,29,male,right,Hebrew,MMProc,SUF,,FarBlock,circle.bmp,father,square.bmp,close,triangle.bmp,stranger,circle.bmp,m,z,1,z,z,2009
9503,08-08-2017,29,male,right,Hebrew,MMProc,SUF,,FarBlock,circle.bmp,father,square.bmp,close,triangle.bmp,stranger,circle.bmp,m,z,1,z,z,660
9503,08-08-2017,29,male,right,Hebrew,MMProc,SUF,,FarBlock,circle.bmp,father,square.bmp,close,triangle.bmp,stranger,triangle.bmp,m,z,1,m,m,757
9503,08-08-2017,29,male,right,Hebrew,MMProc,SUF,,MediumBlock,circle.bmp,father,square.bmp,close,triangle.bmp,stranger,square.bmp,m,z,1,m,m,762
9503,08-08-2017,29,male,right,Hebrew,MMProc,SUF,,MediumBlock,circle.bmp,father,square.bmp,close,triangle.bmp,stranger,triangle.bmp,m,z,1,z,z,1880
9503,08-08-2017,29,male,right,Hebrew,MMProc,SUF,,CloseBlock,circle.bmp,father,square.bmp,close,triangle.bmp,stranger,triangle.bmp,m,z,1,z,z,872
9503,08-08-2017,29,male,right,Hebrew,MMProc,SUF,,MediumBlock,circle.bmp,father,square.bmp,close,triangle.bmp,stranger,triangle.bmp,m,z,1,z,z,777
9503,08-08-2017,29,male,right,Hebrew,MMProc,SUF,,CloseBlock,circle.bmp,father,square.bmp,close,triangle.bmp,stranger,triangle.bmp,m,z,1,z,z,773
9503,08-08-2017,29,male,right,Hebrew,MMProc,SUF,,FarBlock,circle.bmp,father,square.bmp,close,triangle.bmp,stranger,triangle.bmp,m,z,0,m,z,706
9503,08-08-2017,29,male,right,Hebrew,MMProc,SUF,,FarBlock,circle.bmp,father,square.bmp,close,triangle.bmp,stranger,square.bmp,m,z,1,z,z,961
9503,08-08-2017,29,male,right,Hebrew,MMProc,SUF,,CloseBlock,circle.bmp,father,square.bmp,close,triangle.bmp,stranger,triangle.bmp,m,z,1,z,z,790
9503,08-08-2017,29,male,right,Hebrew,MMProc,SUF,,FarBlock,circle.bmp,father,square.bmp,close,triangle.bmp,stranger,triangle.bmp,m,z,1,m,m,617
9503,08-08-2017,29,male,right,Hebrew,MMProc,SUF,,FarBlock,circle.bmp,father,square.bmp,close,triangle.bmp,stranger,square.bmp,m,z,1,z,z,916
9503,08-08-2017,29,male,right,Hebrew,MMProc,SUF,,MediumBlock,circle.bmp,father,square.bmp,close,triangle.bmp,stranger,square.bmp,m,z,1,m,m,1018
9503,08-08-2017,29,male,right,Hebrew,MMProc,SUF,,CloseBlock,circle.bmp,father,square.bmp,close,triangle.bmp,stranger,circle.bmp,m,z,1,m,m,661
9503,08-08-2017,29,male,right,Hebrew,MMProc,SUF,,MediumBlock,circle.bmp,father,square.bmp,close,triangle.bmp,stranger,triangle.bmp,m,z,1,z,z,998
9503,08-08-2017,29,male,right,Hebrew,MMProc,SUF,,CloseBlock,circle.bmp,father,square.bmp,close,triangle.bmp,stranger,square.bmp,m,z,1,z,z,842
9503,08-08-2017,29,male,right,Hebrew,MMProc,SUF,,FarBlock,circle.bmp,father,square.bmp,close,triangle.bmp,stranger,square.bmp,m,z,1,z,z,708
9503,08-08-2017,29,male,right,Hebrew,MMProc,SUF,,FarBlock,circle.bmp,father,square.bmp,close,triangle.bmp,stranger,square.bmp,m,z,1,z,z,579
9503,08-08-2017,29,male,right,Hebrew,MMProc,SUF,,MediumBlock,circle.bmp,father,square.bmp,close,triangle.bmp,stranger,triangle.bmp,m,z,1,z,z,863
9503,08-08-2017,29,male,right,Hebrew,MMProc,SUF,,MediumBlock,circle.bmp,father,square.bmp,close,triangle.bmp,stranger,square.bmp,m,z,1,m,m,952
9503,08-08-2017,29,male,right,Hebrew,MMProc,SUF,,MediumBlock,circle.bmp,father,square.bmp,close,triangle.bmp,stranger,circle.bmp,m,z,1,z,z,629
9503,08-08-2017,29,male,right,Hebrew,MMProc,SUF,,CloseBlock,circle.bmp,father,square.bmp,close,triangle.bmp,stranger,circle.bmp,m,z,1,m,m,712
9503,08-08-2017,29,male,right,Hebrew,MMProc,SUF,,CloseBlock,circle.bmp,father,square.bmp,close,triangle.bmp,stranger,circle.bmp,m,z,1,m,m,823
9503,08-08-2017,29,male,right,Hebrew,MMProc,SUF,,MediumBlock,circle.bmp,father,square.bmp,close,triangle.bmp,stranger,triangle.bmp,m,z,1,z,z,922
9503,08-08-2017,29,male,right,Hebrew,MMProc,SUF,,MediumBlock,circle.bmp,father,square.bmp,close,triangle.bmp,stranger,square.bmp,m,z,1,m,m,793
9503,08-08-2017,29,male,right,Hebrew,MMProc,SUF,,MediumBlock,circle.bmp,father,square.bmp,close,triangle.bmp,stranger,square.bmp,m,z,1,m,m,796
9503,08-08-2017,29,male,right,Hebrew,MMProc,SUF,,FarBlock,circle.bmp,father,square.bmp,close,triangle.bmp,stranger,circle.bmp,m,z,1,z,z,824
9503,08-08-2017,29,male,right,Hebrew,MMProc,SUF,,MediumBlock,circle.bmp,father,square.bmp,close,triangle.bmp,stranger,triangle.bmp,m,z,1,z,z,891
9503,08-08-2017,29,male,right,Hebrew,MMProc,SUF,,CloseBlock,circle.bmp,father,square.bmp,close,triangle.bmp,stranger,square.bmp,m,z,1,z,z,1090
9503,08-08-2017,29,male,right,Hebrew,MMProc,SUF,,MediumBlock,circle.bmp,father,square.bmp,close,triangle.bmp,stranger,square.bmp,m,z,1,m,m,834
9503,08-08-2017,29,male,right,Hebrew,MMProc,SUF,,FarBlock,circle.bmp,father,square.bmp,close,triangle.bmp,stranger,square.bmp,m,z,1,z,z,772
9503,08-08-2017,29,male,right,Hebrew,MMProc,SUF,,FarBlock,circle.bmp,father,square.bmp,close,triangle.bmp,stranger,triangle.bmp,m,z,1,m,m,601
9503,08-08-2017,29,male,right,Hebrew,MMProc,SUF,,MediumBlock,circle.bmp,father,square.bmp,close,triangle.bmp,stranger,square.bmp,m,z,1,m,m,820
9503,08-08-2017,29,male,right,Hebrew,MMProc,SUF,,CloseBlock,circle.bmp,father,square.bmp,close,triangle.bmp,stranger,square.bmp,m,z,1,z,z,711
9503,08-08-2017,29,male,right,Hebrew,MMProc,SUF,,FarBlock,circle.bmp,father,square.bmp,close,triangle.bmp,stranger,square.bmp,m,z,1,z,z,918
9503,08-08-2017,29,male,right,Hebrew,MMProc,SUF,,MediumBlock,circle.bmp,father,square.bmp,close,triangle.bmp,stranger,circle.bmp,m,z,1,z,z,669
9503,08-08-2017,29,male,right,Hebrew,MMProc,SUF,,FarBlock,circle.bmp,father,square.bmp,close,triangle.bmp,stranger,square.bmp,m,z,1,z,z,885
9503,08-08-2017,29,male,right,Hebrew,MMProc,SUF,,FarBlock,circle.bmp,father,square.bmp,close,triangle.bmp,stranger,triangle.bmp,m,z,1,m,m,550
9503,08-08-2017,29,male,right,Hebrew,MMProc,SUF,,MediumBlock,circle.bmp,father,square.bmp,close,triangle.bmp,stranger,square.bmp,m,z,1,m,m,795
9503,08-08-2017,29,male,right,Hebrew,MMProc,SUF,,FarBlock,circle.bmp,father,square.bmp,close,triangle.bmp,stranger,triangle.bmp,m,z,1,m,m,775
9503,08-08-2017,29,male,right,Hebrew,MMProc,SUF,,FarBlock,circle.bmp,father,square.bmp,close,triangle.bmp,stranger,triangle.bmp,m,z,1,m,m,636
9503,08-08-2017,29,male,right,Hebrew,MMProc,SUF,,FarBlock,circle.bmp,father,square.bmp,close,triangle.bmp,stranger,circle.bmp,m,z,1,z,z,758
9503,08-08-2017,29,male,right,Hebrew,MMProc,SUF,,CloseBlock,circle.bmp,father,square.bmp,close,triangle.bmp,stranger,triangle.bmp,m,z,1,z,z,875
9503,08-08-2017,29,male,right,Hebrew,MMProc,SUF,,MediumBlock,circle.bmp,father,square.bmp,close,triangle.bmp,stranger,square.bmp,m,z,1,m,m,884
9503,08-08-2017,29,male,right,Hebrew,MMProc,SUF,,FarBlock,circle.bmp,father,square.bmp,close,triangle.bmp,stranger,circle.bmp,m,z,1,z,z,660
9503,08-08-2017,29,male,right,Hebrew,MMProc,SUF,,CloseBlock,circle.bmp,father,square.bmp,close,triangle.bmp,stranger,circle.bmp,m,z,1,m,m,1285
9503,08-08-2017,29,male,right,Hebrew,MMProc,SUF,,CloseBlock,circle.bmp,father,square.bmp,close,triangle.bmp,stranger,circle.bmp,m,z,1,m,m,549
9503,08-08-2017,29,male,right,Hebrew,MMProc,SUF,,MediumBlock,circle.bmp,father,square.bmp,close,triangle.bmp,stranger,circle.bmp,m,z,1,z,z,859
9503,08-08-2017,29,male,right,Hebrew,MMProc,SUF,,CloseBlock,circle.bmp,father,square.bmp,close,triangle.bmp,stranger,triangle.bmp,m,z,1,z,z,899
9503,08-08-2017,29,male,right,Hebrew,MMProc,SUF,,CloseBlock,circle.bmp,father,square.bmp,close,triangle.bmp,stranger,circle.bmp,m,z,1,m,m,859
9503,08-08-2017,29,male,right,Hebrew,MMProc,SUF,,MediumBlock,circle.bmp,father,square.bmp,close,triangle.bmp,stranger,square.bmp,m,z,1,m,m,836
9503,08-08-2017,29,male,right,Hebrew,MMProc,SUF,,CloseBlock,circle.bmp,father,square.bmp,close,triangle.bmp,stranger,square.bmp,m,z,1,z,z,838
9503,08-08-2017,29,male,right,Hebrew,MMProc,SUF,,CloseBlock,circle.bmp,father,square.bmp,close,triangle.bmp,stranger,circle.bmp,m,z,1,m,m,840
9503,08-08-2017,29,male,right,Hebrew,MMProc,SUF,,CloseBlock,circle.bmp,father,square.bmp,close,triangle.bmp,stranger,square.bmp,m,z,1,z,z,762
9503,08-08-2017,29,male,right,Hebrew,MMProc,SUF,,MediumBlock,circle.bmp,father,square.bmp,close,triangle.bmp,stranger,circle.bmp,m,z,1,z,z,1039
9503,08-08-2017,29,male,right,Hebrew,MMProc,SUF,,CloseBlock,circle.bmp,father,square.bmp,close,triangle.bmp,stranger,circle.bmp,m,z,1,m,m,801
9503,08-08-2017,29,male,right,Hebrew,MMProc,SUF,,CloseBlock,circle.bmp,father,square.bmp,close,triangle.bmp,stranger,circle.bmp,m,z,1,m,m,564
9503,08-08-2017,29,male,right,Hebrew,MMProc,SUF,,MediumBlock,circle.bmp,father,square.bmp,close,triangle.bmp,stranger,circle.bmp,m,z,1,z,z,841
9503,08-08-2017,29,male,right,Hebrew,MMProc,SUF,,FarBlock,circle.bmp,father,square.bmp,close,triangle.bmp,stranger,square.bmp,m,z,1,z,z,1131
9503,08-08-2017,29,male,right,Hebrew,MMProc,SUF,,FarBlock,circle.bmp,father,square.bmp,close,triangle.bmp,stranger,triangle.bmp,m,z,1,m,m,529
9503,08-08-2017,29,male,right,Hebrew,MMProc,SUF,,CloseBlock,circle.bmp,father,square.bmp,close,triangle.bmp,stranger,triangle.bmp,m,z,1,z,z,696
9503,08-08-2017,29,male,right,Hebrew,MMProc,SUF,,FarBlock,circle.bmp,father,square.bmp,close,triangle.bmp,stranger,triangle.bmp,m,z,1,m,m,648
9503,08-08-2017,29,male,right,Hebrew,MMProc,SUF,,MediumBlock,circle.bmp,father,square.bmp,close,triangle.bmp,stranger,triangle.bmp,m,z,1,z,z,1018
9503,08-08-2017,29,male,right,Hebrew,MMProc,SUF,,CloseBlock,circle.bmp,father,square.bmp,close,triangle.bmp,stranger,square.bmp,m,z,1,z,z,916
9503,08-08-2017,29,male,right,Hebrew,MMProc,SUF,,CloseBlock,circle.bmp,father,square.bmp,close,triangle.bmp,stranger,square.bmp,m,z,1,z,z,739
9503,08-08-2017,29,male,right,Hebrew,MMProc,SUF,,FarBlock,circle.bmp,father,square.bmp,close,triangle.bmp,stranger,circle.bmp,m,z,1,z,z,1017
9503,08-08-2017,29,male,right,Hebrew,MMProc,SUF,,MediumBlock,circle.bmp,father,square.bmp,close,triangle.bmp,stranger,triangle.bmp,m,z,1,z,z,1156
9503,08-08-2017,29,male,right,Hebrew,MMProc,SUF,,FarBlock,circle.bmp,father,square.bmp,close,triangle.bmp,stranger,triangle.bmp,m,z,1,m,m,649
9503,08-08-2017,29,male,right,Hebrew,MMProc,SUF,,CloseBlock,circle.bmp,father,square.bmp,close,triangle.bmp,stranger,circle.bmp,m,z,1,m,m,955
9503,08-08-2017,29,male,right,Hebrew,MMProc,SUF,,FarBlock,circle.bmp,father,square.bmp,close,triangle.bmp,stranger,triangle.bmp,m,z,1,m,m,952
9503,08-08-2017,29,male,right,Hebrew,MMProc,SUF,,MediumBlock,circle.bmp,father,square.bmp,close,triangle.bmp,stranger,square.bmp,m,z,1,m,m,934
9503,08-08-2017,29,male,right,Hebrew,MMProc,SUF,,CloseBlock,circle.bmp,father,square.bmp,close,triangle.bmp,stranger,circle.bmp,m,z,1,m,m,820
9503,08-08-2017,29,male,right,Hebrew,MMProc,SUF,,FarBlock,circle.bmp,father,square.bmp,close,triangle.bmp,stranger,triangle.bmp,m,z,1,m,m,727
9503,08-08-2017,29,male,right,Hebrew,MMProc,SUF,,CloseBlock,circle.bmp,father,square.bmp,close,triangle.bmp,stranger,square.bmp,m,z,1,z,z,1461
9503,08-08-2017,29,male,right,Hebrew,MMProc,SUF,,MediumBlock,circle.bmp,father,square.bmp,close,triangle.bmp,stranger,square.bmp,m,z,1,m,m,630
9503,08-08-2017,29,male,right,Hebrew,MMProc,SUF,,FarBlock,circle.bmp,father,square.bmp,close,triangle.bmp,stranger,circle.bmp,m,z,1,z,z,937
9503,08-08-2017,29,male,right,Hebrew,MMProc,SUF,,CloseBlock,circle.bmp,father,square.bmp,close,triangle.bmp,stranger,circle.bmp,m,z,1,m,m,679
9503,08-08-2017,29,male,right,Hebrew,MMProc,SUF,,CloseBlock,circle.bmp,father,square.bmp,close,triangle.bmp,stranger,circle.bmp,m,z,1,m,m,663
9503,08-08-2017,29,male,right,Hebrew,MMProc,SUF,,MediumBlock,circle.bmp,father,square.bmp,close,triangle.bmp,stranger,circle.bmp,m,z,1,z,z,712
9503,08-08-2017,29,male,right,Hebrew,MMProc,SUF,,CloseBlock,circle.bmp,father,square.bmp,close,triangle.bmp,stranger,triangle.bmp,m,z,1,z,z,1399
9503,08-08-2017,29,male,right,Hebrew,MMProc,SUF,,CloseBlock,circle.bmp,father,square.bmp,close,triangle.bmp,stranger,circle.bmp,m,z,1,m,m,643
9503,08-08-2017,29,male,right,Hebrew,MMProc,SUF,,CloseBlock,circle.bmp,father,square.bmp,close,triangle.bmp,stranger,triangle.bmp,m,z,1,z,z,837
9503,08-08-2017,29,male,right,Hebrew,MMProc,SUF,,MediumBlock,circle.bmp,father,square.bmp,close,triangle.bmp,stranger,square.bmp,m,z,1,m,m,967
9503,08-08-2017,29,male,right,Hebrew,MMProc,SUF,,FarBlock,circle.bmp,father,square.bmp,close,triangle.bmp,stranger,triangle.bmp,m,z,1,m,m,972
9503,08-08-2017,29,male,right,Hebrew,MMProc,SUF,,FarBlock,circle.bmp,father,square.bmp,close,triangle.bmp,stranger,square.bmp,m,z,1,z,z,793
9503,08-08-2017,29,male,right,Hebrew,MMProc,SUF,,MediumBlock,circle.bmp,father,square.bmp,close,triangle.bmp,stranger,square.bmp,m,z,1,m,m,1012
9503,08-08-2017,29,male,right,Hebrew,MMProc,SUF,,MediumBlock,circle.bmp,father,square.bmp,close,triangle.bmp,stranger,square.bmp,m,z,1,m,m,695
9503,08-08-2017,29,male,right,Hebrew,MMProc,SUF,,MediumBlock,circle.bmp,father,square.bmp,close,triangle.bmp,stranger,circle.bmp,m,z,1,z,z,694
9503,08-08-2017,29,male,right,Hebrew,MMProc,SUF,,FarBlock,circle.bmp,father,square.bmp,close,triangle.bmp,stranger,triangle.bmp,m,z,1,m,m,742
9503,08-08-2017,29,male,right,Hebrew,FBbreak1,SUF,,,circle.bmp,father,square.bmp,close,triangle.bmp,stranger,,m,z,,,,
9503,08-08-2017,29,male,right,Hebrew,MMProc,SUF,,FarBlock,circle.bmp,father,square.bmp,close,triangle.bmp,stranger,square.bmp,m,z,1,z,z,999
9503,08-08-2017,29,male,right,Hebrew,MMProc,SUF,,CloseBlock,circle.bmp,father,square.bmp,close,triangle.bmp,stranger,circle.bmp,m,z,1,m,m,739
9503,08-08-2017,29,male,right,Hebrew,MMProc,SUF,,CloseBlock,circle.bmp,father,square.bmp,close,triangle.bmp,stranger,triangle.bmp,m,z,1,z,z,905
9503,08-08-2017,29,male,right,Hebrew,MMProc,SUF,,MediumBlock,circle.bmp,father,square.bmp,close,triangle.bmp,stranger,triangle.bmp,m,z,1,z,z,1304
9503,08-08-2017,29,male,right,Hebrew,MMProc,SUF,,CloseBlock,circle.bmp,father,square.bmp,close,triangle.bmp,stranger,circle.bmp,m,z,1,m,m,664
9503,08-08-2017,29,male,right,Hebrew,MMProc,SUF,,FarBlock,circle.bmp,father,square.bmp,close,triangle.bmp,stranger,triangle.bmp,m,z,1,m,m,729
9503,08-08-2017,29,male,right,Hebrew,MMProc,SUF,,CloseBlock,circle.bmp,father,square.bmp,close,triangle.bmp,stranger,circle.bmp,m,z,1,m,m,775
9503,08-08-2017,29,male,right,Hebrew,MMProc,SUF,,MediumBlock,circle.bmp,father,square.bmp,close,triangle.bmp,stranger,circle.bmp,m,z,1,z,z,756
9503,08-08-2017,29,male,right,Hebrew,MMProc,SUF,,CloseBlock,circle.bmp,father,square.bmp,close,triangle.bmp,stranger,triangle.bmp,m,z,1,z,z,921
9503,08-08-2017,29,male,right,Hebrew,MMProc,SUF,,MediumBlock,circle.bmp,father,square.bmp,close,triangle.bmp,stranger,square.bmp,m,z,1,m,m,776
9503,08-08-2017,29,male,right,Hebrew,MMProc,SUF,,FarBlock,circle.bmp,father,square.bmp,close,triangle.bmp,stranger,triangle.bmp,m,z,0,m,z,660
9503,08-08-2017,29,male,right,Hebrew,MMProc,SUF,,MediumBlock,circle.bmp,father,square.bmp,close,triangle.bmp,stranger,triangle.bmp,m,z,1,z,z,797
9503,08-08-2017,29,male,right,Hebrew,MMProc,SUF,,FarBlock,circle.bmp,father,square.bmp,close,triangle.bmp,stranger,triangle.bmp,m,z,1,m,m,681
9503,08-08-2017,29,male,right,Hebrew,MMProc,SUF,,FarBlock,circle.bmp,father,square.bmp,close,triangle.bmp,stranger,triangle.bmp,m,z,1,m,m,473
9503,08-08-2017,29,male,right,Hebrew,MMProc,SUF,,FarBlock,circle.bmp,father,square.bmp,close,triangle.bmp,stranger,square.bmp,m,z,1,z,z,746
9503,08-08-2017,29,male,right,Hebrew,MMProc,SUF,,MediumBlock,circle.bmp,father,square.bmp,close,triangle.bmp,stranger,square.bmp,m,z,1,m,m,952
9503,08-08-2017,29,male,right,Hebrew,MMProc,SUF,,CloseBlock,circle.bmp,father,square.bmp,close,triangle.bmp,stranger,triangle.bmp,m,z,1,z,z,918
9503,08-08-2017,29,male,right,Hebrew,MMProc,SUF,,CloseBlock,circle.bmp,father,square.bmp,close,triangle.bmp,stranger,square.bmp,m,z,1,z,z,564
9503,08-08-2017,29,male,right,Hebrew,MMProc,SUF,,FarBlock,circle.bmp,father,square.bmp,close,triangle.bmp,stranger,triangle.bmp,m,z,1,m,m,697
9503,08-08-2017,29,male,right,Hebrew,MMProc,SUF,,MediumBlock,circle.bmp,father,square.bmp,close,triangle.bmp,stranger,square.bmp,m,z,1,m,m,761
9503,08-08-2017,29,male,right,Hebrew,MMProc,SUF,,CloseBlock,circle.bmp,father,square.bmp,close,triangle.bmp,stranger,triangle.bmp,m,z,1,z,z,982
9503,08-08-2017,29,male,right,Hebrew,MMProc,SUF,,FarBlock,circle.bmp,father,square.bmp,close,triangle.bmp,stranger,triangle.bmp,m,z,1,m,m,658
9503,08-08-2017,29,male,right,Hebrew,MMProc,SUF,,MediumBlock,circle.bmp,father,square.bmp,close,triangle.bmp,stranger,circle.bmp,m,z,1,z,z,1300
9503,08-08-2017,29,male,right,Hebrew,MMProc,SUF,,MediumBlock,circle.bmp,father,square.bmp,close,triangle.bmp,stranger,circle.bmp,m,z,1,z,z,603
9503,08-08-2017,29,male,right,Hebrew,MMProc,SUF,,CloseBlock,circle.bmp,father,square.bmp,close,triangle.bmp,stranger,circle.bmp,m,z,1,m,m,1031
9503,08-08-2017,29,male,right,Hebrew,MMProc,SUF,,MediumBlock,circle.bmp,father,square.bmp,close,triangle.bmp,stranger,triangle.bmp,m,z,1,z,z,1113
9503,08-08-2017,29,male,right,Hebrew,MMProc,SUF,,FarBlock,circle.bmp,father,square.bmp,close,triangle.bmp,stranger,circle.bmp,m,z,1,z,z,680
9503,08-08-2017,29,male,right,Hebrew,MMProc,SUF,,MediumBlock,circle.bmp,father,square.bmp,close,triangle.bmp,stranger,square.bmp,m,z,1,m,m,713
9503,08-08-2017,29,male,right,Hebrew,MMProc,SUF,,CloseBlock,circle.bmp,father,square.bmp,close,triangle.bmp,stranger,circle.bmp,m,z,1,m,m,824
9503,08-08-2017,29,male,right,Hebrew,MMProc,SUF,,FarBlock,circle.bmp,father,square.bmp,close,triangle.bmp,stranger,square.bmp,m,z,1,z,z,818
9503,08-08-2017,29,male,right,Hebrew,MMProc,SUF,,FarBlock,circle.bmp,father,square.bmp,close,triangle.bmp,stranger,triangle.bmp,m,z,1,m,m,437
9503,08-08-2017,29,male,right,Hebrew,MMProc,SUF,,MediumBlock,circle.bmp,father,square.bmp,close,triangle.bmp,stranger,triangle.bmp,m,z,1,z,z,823
9503,08-08-2017,29,male,right,Hebrew,MMProc,SUF,,CloseBlock,circle.bmp,father,square.bmp,close,triangle.bmp,stranger,square.bmp,m,z,1,z,z,858
9503,08-08-2017,29,male,right,Hebrew,MMProc,SUF,,CloseBlock,circle.bmp,father,square.bmp,close,triangle.bmp,stranger,square.bmp,m,z,1,z,z,659
9503,08-08-2017,29,male,right,Hebrew,MMProc,SUF,,FarBlock,circle.bmp,father,square.bmp,close,triangle.bmp,stranger,square.bmp,m,z,1,z,z,908
9503,08-08-2017,29,male,right,Hebrew,MMProc,SUF,,MediumBlock,circle.bmp,father,square.bmp,close,triangle.bmp,stranger,square.bmp,m,z,1,m,m,875
9503,08-08-2017,29,male,right,Hebrew,MMProc,SUF,,MediumBlock,circle.bmp,father,square.bmp,close,triangle.bmp,stranger,circle.bmp,m,z,1,z,z,771
9503,08-08-2017,29,male,right,Hebrew,MMProc,SUF,,FarBlock,circle.bmp,father,square.bmp,close,triangle.bmp,stranger,circle.bmp,m,z,1,z,z,872
9503,08-08-2017,29,male,right,Hebrew,MMProc,SUF,,CloseBlock,circle.bmp,father,square.bmp,close,triangle.bmp,stranger,circle.bmp,m,z,1,m,m,809
9503,08-08-2017,29,male,right,Hebrew,MMProc,SUF,,CloseBlock,circle.bmp,father,square.bmp,close,triangle.bmp,stranger,circle.bmp,m,z,1,m,m,660
9503,08-08-2017,29,male,right,Hebrew,MMProc,SUF,,MediumBlock,circle.bmp,father,square.bmp,close,triangle.bmp,stranger,circle.bmp,m,z,1,z,z,917
9503,08-08-2017,29,male,right,Hebrew,MMProc,SUF,,MediumBlock,circle.bmp,father,square.bmp,close,triangle.bmp,stranger,circle.bmp,m,z,1,z,z,900
9503,08-08-2017,29,male,right,Hebrew,MMProc,SUF,,MediumBlock,circle.bmp,father,square.bmp,close,triangle.bmp,stranger,triangle.bmp,m,z,1,z,z,723
9503,08-08-2017,29,male,right,Hebrew,MMProc,SUF,,MediumBlock,circle.bmp,father,square.bmp,close,triangle.bmp,stranger,triangle.bmp,m,z,1,z,z,826
9503,08-08-2017,29,male,right,Hebrew,MMProc,SUF,,FarBlock,circle.bmp,father,square.bmp,close,triangle.bmp,stranger,circle.bmp,m,z,1,z,z,980
9503,08-08-2017,29,male,right,Hebrew,MMProc,SUF,,MediumBlock,circle.bmp,father,square.bmp,close,triangle.bmp,stranger,circle.bmp,m,z,1,z,z,937
9503,08-08-2017,29,male,right,Hebrew,MMProc,SUF,,MediumBlock,circle.bmp,father,square.bmp,close,triangle.bmp,stranger,square.bmp,m,z,1,m,m,647
9503,08-08-2017,29,male,right,Hebrew,MMProc,SUF,,MediumBlock,circle.bmp,father,square.bmp,close,triangle.bmp,stranger,square.bmp,m,z,1,m,m,697
9503,08-08-2017,29,male,right,Hebrew,MMProc,SUF,,MediumBlock,circle.bmp,father,square.bmp,close,triangle.bmp,stranger,square.bmp,m,z,1,m,m,505
9503,08-08-2017,29,male,right,Hebrew,MMProc,SUF,,MediumBlock,circle.bmp,father,square.bmp,close,triangle.bmp,stranger,square.bmp,m,z,1,m,m,536
9503,08-08-2017,29,male,right,Hebrew,MMProc,SUF,,FarBlock,circle.bmp,father,square.bmp,close,triangle.bmp,stranger,triangle.bmp,m,z,1,m,m,790
9503,08-08-2017,29,male,right,Hebrew,MMProc,SUF,,MediumBlock,circle.bmp,father,square.bmp,close,triangle.bmp,stranger,square.bmp,m,z,1,m,m,770
9503,08-08-2017,29,male,right,Hebrew,MMProc,SUF,,FarBlock,circle.bmp,father,square.bmp,close,triangle.bmp,stranger,square.bmp,m,z,1,z,z,679
9503,08-08-2017,29,male,right,Hebrew,MMProc,SUF,,CloseBlock,circle.bmp,father,square.bmp,close,triangle.bmp,stranger,circle.bmp,m,z,1,m,m,823
9503,08-08-2017,29,male,right,Hebrew,MMProc,SUF,,FarBlock,circle.bmp,father,square.bmp,close,triangle.bmp,stranger,triangle.bmp,m,z,1,m,m,658
9503,08-08-2017,29,male,right,Hebrew,MMProc,SUF,,CloseBlock,circle.bmp,father,square.bmp,close,triangle.bmp,stranger,circle.bmp,m,z,1,m,m,643
9503,08-08-2017,29,male,right,Hebrew,MMProc,SUF,,FarBlock,circle.bmp,father,square.bmp,close,triangle.bmp,stranger,triangle.bmp,m,z,1,m,m,1044
9503,08-08-2017,29,male,right,Hebrew,MMProc,SUF,,FarBlock,circle.bmp,father,square.bmp,close,triangle.bmp,stranger,triangle.bmp,m,z,1,m,m,502
9503,08-08-2017,29,male,right,Hebrew,MMProc,SUF,,MediumBlock,circle.bmp,father,square.bmp,close,triangle.bmp,stranger,square.bmp,m,z,1,m,m,694
9503,08-08-2017,29,male,right,Hebrew,MMProc,SUF,,FarBlock,circle.bmp,father,square.bmp,close,triangle.bmp,stranger,square.bmp,m,z,1,z,z,693
9503,08-08-2017,29,male,right,Hebrew,MMProc,SUF,,CloseBlock,circle.bmp,father,square.bmp,close,triangle.bmp,stranger,square.bmp,m,z,1,z,z,837
9503,08-08-2017,29,male,right,Hebrew,MMProc,SUF,,CloseBlock,circle.bmp,father,square.bmp,close,triangle.bmp,stranger,circle.bmp,m,z,1,m,m,663
9503,08-08-2017,29,male,right,Hebrew,MMProc,SUF,,CloseBlock,circle.bmp,father,square.bmp,close,triangle.bmp,stranger,circle.bmp,m,z,1,m,m,728
9503,08-08-2017,29,male,right,Hebrew,MMProc,SUF,,CloseBlock,circle.bmp,father,square.bmp,close,triangle.bmp,stranger,circle.bmp,m,z,1,m,m,615
9503,08-08-2017,29,male,right,Hebrew,MMProc,SUF,,FarBlock,circle.bmp,father,square.bmp,close,triangle.bmp,stranger,circle.bmp,m,z,1,z,z,706
9503,08-08-2017,29,male,right,Hebrew,MMProc,SUF,,FarBlock,circle.bmp,father,square.bmp,close,triangle.bmp,stranger,circle.bmp,m,z,1,z,z,617
9503,08-08-2017,29,male,right,Hebrew,MMProc,SUF,,FarBlock,circle.bmp,father,square.bmp,close,triangle.bmp,stranger,triangle.bmp,m,z,1,m,m,644
9503,08-08-2017,29,male,right,Hebrew,MMProc,SUF,,MediumBlock,circle.bmp,father,square.bmp,close,triangle.bmp,stranger,circle.bmp,m,z,1,z,z,918
9503,08-08-2017,29,male,right,Hebrew,MMProc,SUF,,FarBlock,circle.bmp,father,square.bmp,close,triangle.bmp,stranger,triangle.bmp,m,z,1,m,m,789
9503,08-08-2017,29,male,right,Hebrew,MMProc,SUF,,MediumBlock,circle.bmp,father,square.bmp,close,triangle.bmp,stranger,square.bmp,m,z,1,m,m,617
9503,08-08-2017,29,male,right,Hebrew,MMProc,SUF,,MediumBlock,circle.bmp,father,square.bmp,close,triangle.bmp,stranger,circle.bmp,m,z,1,z,z,716
9503,08-08-2017,29,male,right,Hebrew,MMProc,SUF,,FarBlock,circle.bmp,father,square.bmp,close,triangle.bmp,stranger,triangle.bmp,m,z,1,m,m,699
9503,08-08-2017,29,male,right,Hebrew,MMProc,SUF,,MediumBlock,circle.bmp,father,square.bmp,close,triangle.bmp,stranger,triangle.bmp,m,z,1,z,z,706
9503,08-08-2017,29,male,right,Hebrew,MMProc,SUF,,FarBlock,circle.bmp,father,square.bmp,close,triangle.bmp,stranger,triangle.bmp,m,z,1,m,m,714
9503,08-08-2017,29,male,right,Hebrew,MMProc,SUF,,FarBlock,circle.bmp,father,square.bmp,close,triangle.bmp,stranger,square.bmp,m,z,1,z,z,905
9503,08-08-2017,29,male,right,Hebrew,MMProc,SUF,,CloseBlock,circle.bmp,father,square.bmp,close,triangle.bmp,stranger,square.bmp,m,z,1,z,z,695
9503,08-08-2017,29,male,right,Hebrew,MMProc,SUF,,CloseBlock,circle.bmp,father,square.bmp,close,triangle.bmp,stranger,circle.bmp,m,z,1,m,m,455
9503,08-08-2017,29,male,right,Hebrew,MMProc,SUF,,MediumBlock,circle.bmp,father,square.bmp,close,triangle.bmp,stranger,square.bmp,m,z,1,m,m,745
9503,08-08-2017,29,male,right,Hebrew,MMProc,SUF,,CloseBlock,circle.bmp,father,square.bmp,close,triangle.bmp,stranger,circle.bmp,m,z,1,m,m,678
9503,08-08-2017,29,male,right,Hebrew,MMProc,SUF,,MediumBlock,circle.bmp,father,square.bmp,close,triangle.bmp,stranger,square.bmp,m,z,1,m,m,631
9503,08-08-2017,29,male,right,Hebrew,MMProc,SUF,,FarBlock,circle.bmp,father,square.bmp,close,triangle.bmp,stranger,circle.bmp,m,z,1,z,z,681
9503,08-08-2017,29,male,right,Hebrew,MMProc,SUF,,CloseBlock,circle.bmp,father,square.bmp,close,triangle.bmp,stranger,circle.bmp,m,z,1,m,m,698
9503,08-08-2017,29,male,right,Hebrew,MMProc,SUF,,FarBlock,circle.bmp,father,square.bmp,close,triangle.bmp,stranger,circle.bmp,m,z,1,z,z,698
9503,08-08-2017,29,male,right,Hebrew,MMProc,SUF,,FarBlock,circle.bmp,father,square.bmp,close,triangle.bmp,stranger,circle.bmp,m,z,1,z,z,521
9503,08-08-2017,29,male,right,Hebrew,MMProc,SUF,,CloseBlock,circle.bmp,father,square.bmp,close,triangle.bmp,stranger,triangle.bmp,m,z,1,z,z,872
9503,08-08-2017,29,male,right,Hebrew,MMProc,SUF,,FarBlock,circle.bmp,father,square.bmp,close,triangle.bmp,stranger,triangle.bmp,m,z,1,m,m,665
9503,08-08-2017,29,male,right,Hebrew,MMProc,SUF,,CloseBlock,circle.bmp,father,square.bmp,close,triangle.bmp,stranger,circle.bmp,m,z,0,m,z,578
9503,08-08-2017,29,male,right,Hebrew,MMProc,SUF,,CloseBlock,circle.bmp,father,square.bmp,close,triangle.bmp,stranger,square.bmp,m,z,1,z,z,814
9503,08-08-2017,29,male,right,Hebrew,MMProc,SUF,,CloseBlock,circle.bmp,father,square.bmp,close,triangle.bmp,stranger,square.bmp,m,z,1,z,z,889
9503,08-08-2017,29,male,right,Hebrew,MMProc,SUF,,FarBlock,circle.bmp,father,square.bmp,close,triangle.bmp,stranger,triangle.bmp,m,z,1,m,m,569
9503,08-08-2017,29,male,right,Hebrew,MMProc,SUF,,CloseBlock,circle.bmp,father,square.bmp,close,triangle.bmp,stranger,circle.bmp,m,z,1,m,m,534
9503,08-08-2017,29,male,right,Hebrew,MMProc,SUF,,CloseBlock,circle.bmp,father,square.bmp,close,triangle.bmp,stranger,square.bmp,m,z,1,z,z,676
9503,08-08-2017,29,male,right,Hebrew,MMProc,SUF,,CloseBlock,circle.bmp,father,square.bmp,close,triangle.bmp,stranger,circle.bmp,m,z,1,m,m,613
9503,08-08-2017,29,male,right,Hebrew,MMProc,SUF,,MediumBlock,circle.bmp,father,square.bmp,close,triangle.bmp,stranger,triangle.bmp,m,z,1,z,z,632
9503,08-08-2017,29,male,right,Hebrew,MMProc,SUF,,MediumBlock,circle.bmp,father,square.bmp,close,triangle.bmp,stranger,square.bmp,m,z,1,m,m,850
9503,08-08-2017,29,male,right,Hebrew,MMProc,SUF,,MediumBlock,circle.bmp,father,square.bmp,close,triangle.bmp,stranger,square.bmp,m,z,1,m,m,483
9503,08-08-2017,29,male,right,Hebrew,MMProc,SUF,,CloseBlock,circle.bmp,father,square.bmp,close,triangle.bmp,stranger,square.bmp,m,z,1,z,z,780
9503,08-08-2017,29,male,right,Hebrew,MMProc,SUF,,MediumBlock,circle.bmp,father,square.bmp,close,triangle.bmp,stranger,square.bmp,m,z,1,m,m,824
9503,08-08-2017,29,male,right,Hebrew,MMProc,SUF,,FarBlock,circle.bmp,father,square.bmp,close,triangle.bmp,stranger,square.bmp,m,z,1,z,z,667
9503,08-08-2017,29,male,right,Hebrew,MMProc,SUF,,FarBlock,circle.bmp,father,square.bmp,close,triangle.bmp,stranger,square.bmp,m,z,1,z,z,772
9503,08-08-2017,29,male,right,Hebrew,MMProc,SUF,,FarBlock,circle.bmp,father,square.bmp,close,triangle.bmp,stranger,square.bmp,m,z,1,z,z,553
9503,08-08-2017,29,male,right,Hebrew,MMProc,SUF,,CloseBlock,circle.bmp,father,square.bmp,close,triangle.bmp,stranger,triangle.bmp,m,z,1,z,z,822
9503,08-08-2017,29,male,right,Hebrew,MMProc,SUF,,MediumBlock,circle.bmp,father,square.bmp,close,triangle.bmp,stranger,square.bmp,m,z,1,m,m,953
9503,08-08-2017,29,male,right,Hebrew,MMProc,SUF,,CloseBlock,circle.bmp,father,square.bmp,close,triangle.bmp,stranger,square.bmp,m,z,1,z,z,1110
9503,08-08-2017,29,male,right,Hebrew,MMProc,SUF,,CloseBlock,circle.bmp,father,square.bmp,close,triangle.bmp,stranger,triangle.bmp,m,z,1,z,z,1077
9503,08-08-2017,29,male,right,Hebrew,MMProc,SUF,,CloseBlock,circle.bmp,father,square.bmp,close,triangle.bmp,stranger,triangle.bmp,m,z,1,z,z,662
9503,08-08-2017,29,male,right,Hebrew,MMProc,SUF,,MediumBlock,circle.bmp,father,square.bmp,close,triangle.bmp,stranger,triangle.bmp,m,z,1,z,z,823
9503,08-08-2017,29,male,right,Hebrew,MMProc,SUF,,FarBlock,circle.bmp,father,square.bmp,close,triangle.bmp,stranger,circle.bmp,m,z,1,z,z,714
9503,08-08-2017,29,male,right,Hebrew,MMProc,SUF,,CloseBlock,circle.bmp,father,square.bmp,close,triangle.bmp,stranger,circle.bmp,m,z,1,m,m,729
9503,08-08-2017,29,male,right,Hebrew,MMProc,SUF,,MediumBlock,circle.bmp,father,square.bmp,close,triangle.bmp,stranger,circle.bmp,m,z,1,z,z,839
9503,08-08-2017,29,male,right,Hebrew,MMProc,SUF,,FarBlock,circle.bmp,father,square.bmp,close,triangle.bmp,stranger,circle.bmp,m,z,1,z,z,681
9503,08-08-2017,29,male,right,Hebrew,MMProc,SUF,,FarBlock,circle.bmp,father,square.bmp,close,triangle.bmp,stranger,triangle.bmp,m,z,1,m,m,682
9503,08-08-2017,29,male,right,Hebrew,MMProc,SUF,,MediumBlock,circle.bmp,father,square.bmp,close,triangle.bmp,stranger,square.bmp,m,z,1,m,m,746
9503,08-08-2017,29,male,right,Hebrew,MMProc,SUF,,CloseBlock,circle.bmp,father,square.bmp,close,triangle.bmp,stranger,circle.bmp,m,z,1,m,m,600
9503,08-08-2017,29,male,right,Hebrew,MMProc,SUF,,FarBlock,circle.bmp,father,square.bmp,close,triangle.bmp,stranger,triangle.bmp,m,z,1,m,m,668
9503,08-08-2017,29,male,right,Hebrew,MMProc,SUF,,CloseBlock,circle.bmp,father,square.bmp,close,triangle.bmp,stranger,triangle.bmp,m,z,1,z,z,661
9503,08-08-2017,29,male,right,Hebrew,MMProc,SUF,,MediumBlock,circle.bmp,father,square.bmp,close,triangle.bmp,stranger,square.bmp,m,z,1,m,m,652
9503,08-08-2017,29,male,right,Hebrew,MMProc,SUF,,FarBlock,circle.bmp,father,square.bmp,close,triangle.bmp,stranger,triangle.bmp,m,z,1,m,m,758
9503,08-08-2017,29,male,right,Hebrew,MMProc,SUF,,CloseBlock,circle.bmp,father,square.bmp,close,triangle.bmp,stranger,triangle.bmp,m,z,1,z,z,1107
9503,08-08-2017,29,male,right,Hebrew,MMProc,SUF,,MediumBlock,circle.bmp,father,square.bmp,close,triangle.bmp,stranger,triangle.bmp,m,z,1,z,z,770
9503,08-08-2017,29,male,right,Hebrew,FBbreak1,SUF,,,circle.bmp,father,square.bmp,close,triangle.bmp,stranger,,m,z,,,,
1,08-06-2017,25,female,right,Hebrew,Assos,UFS,15736,,triangle.bmp,father,circle.bmp,close,square.bmp,stranger,,z,m,,,,
1,08-06-2017,25,female,right,Hebrew,PracProc,UFS,,FarBlock,triangle.bmp,father,circle.bmp,close,square.bmp,stranger,square.bmp,z,m,,,,
1,08-06-2017,25,female,right,Hebrew,PracProc,UFS,,MediumBlock,triangle.bmp,father,circle.bmp,close,square.bmp,stranger,circle.bmp,z,m,,,,
1,08-06-2017,25,female,right,Hebrew,PracProc,UFS,,FarBlock,triangle.bmp,father,circle.bmp,close,square.bmp,stranger,triangle.bmp,z,m,,,,
1,08-06-2017,25,female,right,Hebrew,PracProc,UFS,,MediumBlock,triangle.bmp,father,circle.bmp,close,square.bmp,stranger,circle.bmp,z,m,,,,
1,08-06-2017,25,female,right,Hebrew,PracProc,UFS,,CloseBlock,triangle.bmp,father,circle.bmp,close,square.bmp,stranger,triangle.bmp,z,m,,,,
1,08-06-2017,25,female,right,Hebrew,PracProc,UFS,,MediumBlock,triangle.bmp,father,circle.bmp,close,square.bmp,stranger,square.bmp,z,m,,,,
1,08-06-2017,25,female,right,Hebrew,PracProc,UFS,,MediumBlock,triangle.bmp,father,circle.bmp,close,square.bmp,stranger,triangle.bmp,z,m,,,,
1,08-06-2017,25,female,right,Hebrew,PracProc,UFS,,FarBlock,triangle.bmp,father,circle.bmp,close,square.bmp,stranger,circle.bmp,z,m,,,,
1,08-06-2017,25,female,right,Hebrew,PracProc,UFS,,CloseBlock,triangle.bmp,father,circle.bmp,close,square.bmp,stranger,square.bmp,z,m,,,,
1,08-06-2017,25,female,right,Hebrew,PracProc,UFS,,CloseBlock,triangle.bmp,father,circle.bmp,close,square.bmp,stranger,circle.bmp,z,m,,,,
1,08-06-2017,25,female,right,Hebrew,PracProc,UFS,,FarBlock,triangle.bmp,father,circle.bmp,close,square.bmp,stranger,square.bmp,z,m,,,,
1,08-06-2017,25,female,right,Hebrew,PracProc,UFS,,CloseBlock,triangle.bmp,father,circle.bmp,close,square.bmp,stranger,triangle.bmp,z,m,,,,
1,08-06-2017,25,female,right,Hebrew,FBbreak,UFS,,,triangle.bmp,father,circle.bmp,close,square.bmp,stranger,,z,m,,,,
1,08-06-2017,25,female,right,Hebrew,inst,UFS,,,triangle.bmp,father,circle.bmp,close,square.bmp,stranger,,z,m,,,,
1,08-06-2017,25,female,right,Hebrew,MMProc,UFS,,MediumBlock,triangle.bmp,father,circle.bmp,close,square.bmp,stranger,triangle.bmp,z,m,0,m,z,790
1,08-06-2017,25,female,right,Hebrew,MMProc,UFS,,FarBlock,triangle.bmp,father,circle.bmp,close,square.bmp,stranger,circle.bmp,z,m,1,m,m,2026
1,08-06-2017,25,female,right,Hebrew,MMProc,UFS,,MediumBlock,triangle.bmp,father,circle.bmp,close,square.bmp,stranger,circle.bmp,z,m,1,z,z,1476
1,08-06-2017,25,female,right,Hebrew,MMProc,UFS,,MediumBlock,triangle.bmp,father,circle.bmp,close,square.bmp,stranger,square.bmp,z,m,1,m,m,1204
1,08-06-2017,25,female,right,Hebrew,MMProc,UFS,,FarBlock,triangle.bmp,father,circle.bmp,close,square.bmp,stranger,square.bmp,z,m,1,z,z,1320
1,08-06-2017,25,female,right,Hebrew,MMProc,UFS,,FarBlock,triangle.bmp,father,circle.bmp,close,square.bmp,stranger,square.bmp,z,m,1,z,z,663
1,08-06-2017,25,female,right,Hebrew,MMProc,UFS,,CloseBlock,triangle.bmp,father,circle.bmp,close,square.bmp,stranger,triangle.bmp,z,m,1,z,z,623
1,08-06-2017,25,female,right,Hebrew,MMProc,UFS,,CloseBlock,triangle.bmp,father,circle.bmp,close,square.bmp,stranger,square.bmp,z,m,1,m,m,746
1,08-06-2017,25,female,right,Hebrew,MMProc,UFS,,FarBlock,triangle.bmp,father,circle.bmp,close,square.bmp,stranger,square.bmp,z,m,1,z,z,872
1,08-06-2017,25,female,right,Hebrew,MMProc,UFS,,FarBlock,triangle.bmp,father,circle.bmp,close,square.bmp,stranger,triangle.bmp,z,m,1,m,m,1048
1,08-06-2017,25,female,right,Hebrew,MMProc,UFS,,CloseBlock,triangle.bmp,father,circle.bmp,close,square.bmp,stranger,triangle.bmp,z,m,1,z,z,801
1,08-06-2017,25,female,right,Hebrew,MMProc,UFS,,CloseBlock,triangle.bmp,father,circle.bmp,close,square.bmp,stranger,triangle.bmp,z,m,1,z,z,533
1,08-06-2017,25,female,right,Hebrew,MMProc,UFS,,FarBlock,triangle.bmp,father,circle.bmp,close,square.bmp,stranger,circle.bmp,z,m,1,m,m,699
1,08-06-2017,25,female,right,Hebrew,MMProc,UFS,,CloseBlock,triangle.bmp,father,circle.bmp,close,square.bmp,stranger,circle.bmp,z,m,1,m,m,914
1,08-06-2017,25,female,right,Hebrew,MMProc,UFS,,MediumBlock,triangle.bmp,father,circle.bmp,close,square.bmp,stranger,square.bmp,z,m,1,m,m,1466
1,08-06-2017,25,female,right,Hebrew,MMProc,UFS,,FarBlock,triangle.bmp,father,circle.bmp,close,square.bmp,stranger,triangle.bmp,z,m,1,m,m,1058
1,08-06-2017,25,female,right,Hebrew,MMProc,UFS,,CloseBlock,triangle.bmp,father,circle.bmp,close,square.bmp,stranger,circle.bmp,z,m,1,m,m,883
1,08-06-2017,25,female,right,Hebrew,MMProc,UFS,,CloseBlock,triangle.bmp,father,circle.bmp,close,square.bmp,stranger,circle.bmp,z,m,1,m,m,675
1,08-06-2017,25,female,right,Hebrew,MMProc,UFS,,MediumBlock,triangle.bmp,father,circle.bmp,close,square.bmp,stranger,circle.bmp,z,m,1,z,z,964
1,08-06-2017,25,female,right,Hebrew,MMProc,UFS,,CloseBlock,triangle.bmp,father,circle.bmp,close,square.bmp,stranger,circle.bmp,z,m,1,m,m,857
1,08-06-2017,25,female,right,Hebrew,MMProc,UFS,,MediumBlock,triangle.bmp,father,circle.bmp,close,square.bmp,stranger,square.bmp,z,m,1,m,m,962
1,08-06-2017,25,female,right,Hebrew,MMProc,UFS,,CloseBlock,triangle.bmp,father,circle.bmp,close,square.bmp,stranger,triangle.bmp,z,m,1,z,z,1175
1,08-06-2017,25,female,right,Hebrew,MMProc,UFS,,FarBlock,triangle.bmp,father,circle.bmp,close,square.bmp,stranger,triangle.bmp,z,m,1,m,m,819
1,08-06-2017,25,female,right,Hebrew,MMProc,UFS,,CloseBlock,triangle.bmp,father,circle.bmp,close,square.bmp,stranger,triangle.bmp,z,m,1,z,z,566
1,08-06-2017,25,female,right,Hebrew,MMProc,UFS,,MediumBlock,triangle.bmp,father,circle.bmp,close,square.bmp,stranger,square.bmp,z,m,1,m,m,891
1,08-06-2017,25,female,right,Hebrew,MMProc,UFS,,MediumBlock,triangle.bmp,father,circle.bmp,close,square.bmp,stranger,circle.bmp,z,m,1,z,z,1139
1,08-06-2017,25,female,right,Hebrew,MMProc,UFS,,CloseBlock,triangle.bmp,father,circle.bmp,close,square.bmp,stranger,square.bmp,z,m,1,m,m,873
1,08-06-2017,25,female,right,Hebrew,MMProc,UFS,,CloseBlock,triangle.bmp,father,circle.bmp,close,square.bmp,stranger,triangle.bmp,z,m,1,z,z,618
1,08-06-2017,25,female,right,Hebrew,MMProc,UFS,,MediumBlock,triangle.bmp,father,circle.bmp,close,square.bmp,stranger,square.bmp,z,m,1,m,m,917
1,08-06-2017,25,female,right,Hebrew,MMProc,UFS,,MediumBlock,triangle.bmp,father,circle.bmp,close,square.bmp,stranger,circle.bmp,z,m,1,z,z,1060
1,08-06-2017,25,female,right,Hebrew,MMProc,UFS,,MediumBlock,triangle.bmp,father,circle.bmp,close,square.bmp,stranger,square.bmp,z,m,1,m,m,757
1,08-06-2017,25,female,right,Hebrew,MMProc,UFS,,MediumBlock,triangle.bmp,father,circle.bmp,close,square.bmp,stranger,circle.bmp,z,m,1,z,z,730
1,08-06-2017,25,female,right,Hebrew,MMProc,UFS,,FarBlock,triangle.bmp,father,circle.bmp,close,square.bmp,stranger,square.bmp,z,m,1,z,z,920
1,08-06-2017,25,female,right,Hebrew,MMProc,UFS,,CloseBlock,triangle.bmp,father,circle.bmp,close,square.bmp,stranger,square.bmp,z,m,1,m,m,695
1,08-06-2017,25,female,right,Hebrew,MMProc,UFS,,FarBlock,triangle.bmp,father,circle.bmp,close,square.bmp,stranger,square.bmp,z,m,1,z,z,663
1,08-06-2017,25,female,right,Hebrew,MMProc,UFS,,CloseBlock,triangle.bmp,father,circle.bmp,close,square.bmp,stranger,triangle.bmp,z,m,1,z,z,712
1,08-06-2017,25,female,right,Hebrew,MMProc,UFS,,CloseBlock,triangle.bmp,father,circle.bmp,close,square.bmp,stranger,circle.bmp,z,m,1,m,m,983
1,08-06-2017,25,female,right,Hebrew,MMProc,UFS,,CloseBlock,triangle.bmp,father,circle.bmp,close,square.bmp,stranger,triangle.bmp,z,m,1,z,z,675
1,08-06-2017,25,female,right,Hebrew,MMProc,UFS,,CloseBlock,triangle.bmp,father,circle.bmp,close,square.bmp,stranger,triangle.bmp,z,m,1,z,z,868
1,08-06-2017,25,female,right,Hebrew,MMProc,UFS,,FarBlock,triangle.bmp,father,circle.bmp,close,square.bmp,stranger,circle.bmp,z,m,1,m,m,876
1,08-06-2017,25,female,right,Hebrew,MMProc,UFS,,MediumBlock,triangle.bmp,father,circle.bmp,close,square.bmp,stranger,triangle.bmp,z,m,0,m,z,693
1,08-06-2017,25,female,right,Hebrew,MMProc,UFS,,MediumBlock,triangle.bmp,father,circle.bmp,close,square.bmp,stranger,square.bmp,z,m,1,m,m,1468
1,08-06-2017,25,female,right,Hebrew,MMProc,UFS,,CloseBlock,triangle.bmp,father,circle.bmp,close,square.bmp,stranger,square.bmp,z,m,1,m,m,885
1,08-06-2017,25,female,right,Hebrew,MMProc,UFS,,MediumBlock,triangle.bmp,father,circle.bmp,close,square.bmp,stranger,circle.bmp,z,m,1,z,z,1077
1,08-06-2017,25,female,right,Hebrew,MMProc,UFS,,CloseBlock,triangle.bmp,father,circle.bmp,close,square.bmp,stranger,square.bmp,z,m,1,m,m,1606
1,08-06-2017,25,female,right,Hebrew,MMProc,UFS,,CloseBlock,triangle.bmp,father,circle.bmp,close,square.bmp,stranger,circle.bmp,z,m,1,m,m,697
1,08-06-2017,25,female,right,Hebrew,MMProc,UFS,,FarBlock,triangle.bmp,father,circle.bmp,close,square.bmp,stranger,square.bmp,z,m,1,z,z,856
1,08-06-2017,25,female,right,Hebrew,MMProc,UFS,,CloseBlock,triangle.bmp,father,circle.bmp,close,square.bmp,stranger,square.bmp,z,m,1,m,m,729
1,08-06-2017,25,female,right,Hebrew,MMProc,UFS,,MediumBlock,triangle.bmp,father,circle.bmp,close,square.bmp,stranger,circle.bmp,z,m,1,z,z,712
1,08-06-2017,25,female,right,Hebrew,MMProc,UFS,,FarBlock,triangle.bmp,father,circle.bmp,close,square.bmp,stranger,square.bmp,z,m,1,z,z,1447
1,08-06-2017,25,female,right,Hebrew,MMProc,UFS,,MediumBlock,triangle.bmp,father,circle.bmp,close,square.bmp,stranger,circle.bmp,z,m,1,z,z,1048
1,08-06-2017,25,female,right,Hebrew,MMProc,UFS,,MediumBlock,triangle.bmp,father,circle.bmp,close,square.bmp,stranger,square.bmp,z,m,1,m,m,802
1,08-06-2017,25,female,right,Hebrew,MMProc,UFS,,MediumBlock,triangle.bmp,father,circle.bmp,close,square.bmp,stranger,circle.bmp,z,m,1,z,z,677
1,08-06-2017,25,female,right,Hebrew,MMProc,UFS,,MediumBlock,triangle.bmp,father,circle.bmp,close,square.bmp,stranger,circle.bmp,z,m,1,z,z,550
1,08-06-2017,25,female,right,Hebrew,MMProc,UFS,,FarBlock,triangle.bmp,father,circle.bmp,close,square.bmp,stranger,circle.bmp,z,m,1,m,m,723
1,08-06-2017,25,female,right,Hebrew,MMProc,UFS,,MediumBlock,triangle.bmp,father,circle.bmp,close,square.bmp,stranger,triangle.bmp,z,m,1,m,m,922
1,08-06-2017,25,female,right,Hebrew,MMProc,UFS,,CloseBlock,triangle.bmp,father,circle.bmp,close,square.bmp,stranger,triangle.bmp,z,m,1,z,z,809
1,08-06-2017,25,female,right,Hebrew,MMProc,UFS,,FarBlock,triangle.bmp,father,circle.bmp,close,square.bmp,stranger,square.bmp,z,m,1,z,z,1700
1,08-06-2017,25,female,right,Hebrew,MMProc,UFS,,MediumBlock,triangle.bmp,father,circle.bmp,close,square.bmp,stranger,circle.bmp,z,m,1,z,z,947
1,08-06-2017,25,female,right,Hebrew,MMProc,UFS,,MediumBlock,triangle.bmp,father,circle.bmp,close,square.bmp,stranger,circle.bmp,z,m,1,z,z,937
1,08-06-2017,25,female,right,Hebrew,MMProc,UFS,,CloseBlock,triangle.bmp,father,circle.bmp,close,square.bmp,stranger,square.bmp,z,m,1,m,m,583
1,08-06-2017,25,female,right,Hebrew,MMProc,UFS,,MediumBlock,triangle.bmp,father,circle.bmp,close,square.bmp,stranger,triangle.bmp,z,m,1,m,m,1363
1,08-06-2017,25,female,right,Hebrew,MMProc,UFS,,MediumBlock,triangle.bmp,father,circle.bmp,close,square.bmp,stranger,circle.bmp,z,m,1,z,z,1375
1,08-06-2017,25,female,right,Hebrew,MMProc,UFS,,MediumBlock,triangle.bmp,father,circle.bmp,close,square.bmp,stranger,triangle.bmp,z,m,1,m,m,865
1,08-06-2017,25,female,right,Hebrew,MMProc,UFS,,FarBlock,triangle.bmp,father,circle.bmp,close,square.bmp,stranger,square.bmp,z,m,1,z,z,1561
1,08-06-2017,25,female,right,Hebrew,MMProc,UFS,,FarBlock,triangle.bmp,father,circle.bmp,close,square.bmp,stranger,triangle.bmp,z,m,1,m,m,878
1,08-06-2017,25,female,right,Hebrew,MMProc,UFS,,CloseBlock,triangle.bmp,father,circle.bmp,close,square.bmp,stranger,triangle.bmp,z,m,1,z,z,526
1,08-06-2017,25,female,right,Hebrew,MMProc,UFS,,CloseBlock,triangle.bmp,father,circle.bmp,close,square.bmp,stranger,square.bmp,z,m,1,m,m,1268
1,08-06-2017,25,female,right,Hebrew,MMProc,UFS,,FarBlock,triangle.bmp,father,circle.bmp,close,square.bmp,stranger,square.bmp,z,m,1,z,z,716
1,08-06-2017,25,female,right,Hebrew,MMProc,UFS,,FarBlock,triangle.bmp,father,circle.bmp,close,square.bmp,stranger,triangle.bmp,z,m,1,m,m,1107
1,08-06-2017,25,female,right,Hebrew,MMProc,UFS,,FarBlock,triangle.bmp,father,circle.bmp,close,square.bmp,stranger,square.bmp,z,m,1,z,z,626
1,08-06-2017,25,female,right,Hebrew,MMProc,UFS,,CloseBlock,triangle.bmp,father,circle.bmp,close,square.bmp,stranger,square.bmp,z,m,1,m,m,836
1,08-06-2017,25,female,right,Hebrew,MMProc,UFS,,FarBlock,triangle.bmp,father,circle.bmp,close,square.bmp,stranger,triangle.bmp,z,m,1,m,m,663
1,08-06-2017,25,female,right,Hebrew,MMProc,UFS,,FarBlock,triangle.bmp,father,circle.bmp,close,square.bmp,stranger,circle.bmp,z,m,1,m,m,776
1,08-06-2017,25,female,right,Hebrew,MMProc,UFS,,FarBlock,triangle.bmp,father,circle.bmp,close,square.bmp,stranger,square.bmp,z,m,1,z,z,1012
1,08-06-2017,25,female,right,Hebrew,MMProc,UFS,,CloseBlock,triangle.bmp,father,circle.bmp,close,square.bmp,stranger,triangle.bmp,z,m,1,z,z,791
1,08-06-2017,25,female,right,Hebrew,MMProc,UFS,,FarBlock,triangle.bmp,father,circle.bmp,close,square.bmp,stranger,triangle.bmp,z,m,1,m,m,779
1,08-06-2017,25,female,right,Hebrew,MMProc,UFS,,MediumBlock,triangle.bmp,father,circle.bmp,close,square.bmp,stranger,triangle.bmp,z,m,1,m,m,1224
1,08-06-2017,25,female,right,Hebrew,MMProc,UFS,,MediumBlock,triangle.bmp,father,circle.bmp,close,square.bmp,stranger,circle.bmp,z,m,1,z,z,818
1,08-06-2017,25,female,right,Hebrew,MMProc,UFS,,CloseBlock,triangle.bmp,father,circle.bmp,close,square.bmp,stranger,triangle.bmp,z,m,1,z,z,997
1,08-06-2017,25,female,right,Hebrew,MMProc,UFS,,MediumBlock,triangle.bmp,father,circle.bmp,close,square.bmp,stranger,triangle.bmp,z,m,1,m,m,784
1,08-06-2017,25,female,right,Hebrew,MMProc,UFS,,MediumBlock,triangle.bmp,father,circle.bmp,close,square.bmp,stranger,triangle.bmp,z,m,1,m,m,820
1,08-06-2017,25,female,right,Hebrew,MMProc,UFS,,CloseBlock,triangle.bmp,father,circle.bmp,close,square.bmp,stranger,triangle.bmp,z,m,1,z,z,799
1,08-06-2017,25,female,right,Hebrew,MMProc,UFS,,MediumBlock,triangle.bmp,father,circle.bmp,close,square.bmp,stranger,circle.bmp,z,m,1,z,z,713
1,08-06-2017,25,female,right,Hebrew,MMProc,UFS,,MediumBlock,triangle.bmp,father,circle.bmp,close,square.bmp,stranger,square.bmp,z,m,1,m,m,696
1,08-06-2017,25,female,right,Hebrew,MMProc,UFS,,MediumBlock,triangle.bmp,father,circle.bmp,close,square.bmp,stranger,circle.bmp,z,m,1,z,z,840
1,08-06-2017,25,female,right,Hebrew,MMProc,UFS,,CloseBlock,triangle.bmp,father,circle.bmp,close,square.bmp,stranger,circle.bmp,z,m,1,m,m,842
1,08-06-2017,25,female,right,Hebrew,MMProc,UFS,,MediumBlock,triangle.bmp,father,circle.bmp,close,square.bmp,stranger,circle.bmp,z,m,1,z,z,1188
1,08-06-2017,25,female,right,Hebrew,MMProc,UFS,,FarBlock,triangle.bmp,father,circle.bmp,close,square.bmp,stranger,triangle.bmp,z,m,1,m,m,792
1,08-06-2017,25,female,right,Hebrew,MMProc,UFS,,MediumBlock,triangle.bmp,father,circle.bmp,close,square.bmp,stranger,square.bmp,z,m,1,m,m,1012
1,08-06-2017,25,female,right,Hebrew,MMProc,UFS,,CloseBlock,triangle.bmp,father,circle.bmp,close,square.bmp,stranger,circle.bmp,z,m,1,m,m,695
1,08-06-2017,25,female,right,Hebrew,MMProc,UFS,,FarBlock,triangle.bmp,father,circle.bmp,close,square.bmp,stranger,circle.bmp,z,m,1,m,m,758
1,08-06-2017,25,female,right,Hebrew,MMProc,UFS,,MediumBlock,triangle.bmp,father,circle.bmp,close,square.bmp,stranger,triangle.bmp,z,m,1,m,m,1444
1,08-06-2017,25,female,right,Hebrew,MMProc,UFS,,MediumBlock,triangle.bmp,father,circle.bmp,close,square.bmp,stranger,circle.bmp,z,m,1,z,z,885
1,08-06-2017,25,female,right,Hebrew,MMProc,UFS,,CloseBlock,triangle.bmp,father,circle.bmp,close,square.bmp,stranger,triangle.bmp,z,m,1,z,z,613
1,08-06-2017,25,female,right,Hebrew,MMProc,UFS,,FarBlock,triangle.bmp,father,circle.bmp,close,square.bmp,stranger,circle.bmp,z,m,1,m,m,568
1,08-06-2017,25,female,right,Hebrew,MMProc,UFS,,FarBlock,triangle.bmp,father,circle.bmp,close,square.bmp,stranger,square.bmp,z,m,1,z,z,701
1,08-06-2017,25,female,right,Hebrew,MMProc,UFS,,FarBlock,triangle.bmp,father,circle.bmp,close,square.bmp,stranger,circle.bmp,z,m,1,m,m,1540
1,08-06-2017,25,female,right,Hebrew,MMProc,UFS,,FarBlock,triangle.bmp,father,circle.bmp,close,square.bmp,stranger,triangle.bmp,z,m,1,m,m,826
1,08-06-2017,25,female,right,Hebrew,MMProc,UFS,,FarBlock,triangle.bmp,father,circle.bmp,close,square.bmp,stranger,triangle.bmp,z,m,1,m,m,613
1,08-06-2017,25,female,right,Hebrew,MMProc,UFS,,FarBlock,triangle.bmp,father,circle.bmp,close,square.bmp,stranger,square.bmp,z,m,1,z,z,728
1,08-06-2017,25,female,right,Hebrew,MMProc,UFS,,CloseBlock,triangle.bmp,father,circle.bmp,close,square.bmp,stranger,triangle.bmp,z,m,1,z,z,662
1,08-06-2017,25,female,right,Hebrew,MMProc,UFS,,MediumBlock,triangle.bmp,father,circle.bmp,close,square.bmp,stranger,circle.bmp,z,m,1,z,z,1079
1,08-06-2017,25,female,right,Hebrew,MMProc,UFS,,MediumBlock,triangle.bmp,father,circle.bmp,close,square.bmp,stranger,circle.bmp,z,m,1,z,z,696
1,08-06-2017,25,female,right,Hebrew,MMProc,UFS,,FarBlock,triangle.bmp,father,circle.bmp,close,square.bmp,stranger,square.bmp,z,m,1,z,z,728
1,08-06-2017,25,female,right,Hebrew,MMProc,UFS,,FarBlock,triangle.bmp,father,circle.bmp,close,square.bmp,stranger,circle.bmp,z,m,1,m,m,886
1,08-06-2017,25,female,right,Hebrew,MMProc,UFS,,MediumBlock,triangle.bmp,father,circle.bmp,close,square.bmp,stranger,triangle.bmp,z,m,1,m,m,870
1,08-06-2017,25,female,right,Hebrew,MMProc,UFS,,CloseBlock,triangle.bmp,father,circle.bmp,close,square.bmp,stranger,triangle.bmp,z,m,1,z,z,631
1,08-06-2017,25,female,right,Hebrew,MMProc,UFS,,CloseBlock,triangle.bmp,father,circle.bmp,close,square.bmp,stranger,triangle.bmp,z,m,1,z,z,473
1,08-06-2017,25,female,right,Hebrew,MMProc,UFS,,FarBlock,triangle.bmp,father,circle.bmp,close,square.bmp,stranger,circle.bmp,z,m,1,m,m,594
1,08-06-2017,25,female,right,Hebrew,MMProc,UFS,,CloseBlock,triangle.bmp,father,circle.bmp,close,square.bmp,stranger,circle.bmp,z,m,1,m,m,774
1,08-06-2017,25,female,right,Hebrew,MMProc,UFS,,CloseBlock,triangle.bmp,father,circle.bmp,close,square.bmp,stranger,square.bmp,z,m,1,m,m,770
1,08-06-2017,25,female,right,Hebrew,MMProc,UFS,,CloseBlock,triangle.bmp,father,circle.bmp,close,square.bmp,stranger,triangle.bmp,z,m,1,z,z,647
1,08-06-2017,25,female,right,Hebrew,MMProc,UFS,,FarBlock,triangle.bmp,father,circle.bmp,close,square.bmp,stranger,square.bmp,z,m,1,z,z,1081
1,08-06-2017,25,female,right,Hebrew,MMProc,UFS,,FarBlock,triangle.bmp,father,circle.bmp,close,square.bmp,stranger,square.bmp,z,m,1,z,z,793
1,08-06-2017,25,female,right,Hebrew,MMProc,UFS,,CloseBlock,triangle.bmp,father,circle.bmp,close,square.bmp,stranger,circle.bmp,z,m,1,m,m,2565
1,08-06-2017,25,female,right,Hebrew,MMProc,UFS,,CloseBlock,triangle.bmp,father,circle.bmp,close,square.bmp,stranger,triangle.bmp,z,m,1,z,z,538
1,08-06-2017,25,female,right,Hebrew,MMProc,UFS,,FarBlock,triangle.bmp,father,circle.bmp,close,square.bmp,stranger,square.bmp,z,m,1,z,z,856
1,08-06-2017,25,female,right,Hebrew,MMProc,UFS,,FarBlock,triangle.bmp,father,circle.bmp,close,square.bmp,stranger,square.bmp,z,m,1,z,z,561
1,08-06-2017,25,female,right,Hebrew,MMProc,UFS,,FarBlock,triangle.bmp,father,circle.bmp,close,square.bmp,stranger,square.bmp,z,m,1,z,z,486
1,08-06-2017,25,female,right,Hebrew,FBbreak1,UFS,,,triangle.bmp,father,circle.bmp,close,square.bmp,stranger,,z,m,,,,
1,08-06-2017,25,female,right,Hebrew,MMProc,UFS,,CloseBlock,triangle.bmp,father,circle.bmp,close,square.bmp,stranger,circle.bmp,z,m,1,m,m,1481
1,08-06-2017,25,female,right,Hebrew,MMProc,UFS,,MediumBlock,triangle.bmp,father,circle.bmp,close,square.bmp,stranger,square.bmp,z,m,1,m,m,1225
1,08-06-2017,25,female,right,Hebrew,MMProc,UFS,,MediumBlock,triangle.bmp,father,circle.bmp,close,square.bmp,stranger,square.bmp,z,m,1,m,m,867
1,08-06-2017,25,female,right,Hebrew,MMProc,UFS,,MediumBlock,triangle.bmp,father,circle.bmp,close,square.bmp,stranger,triangle.bmp,z,m,1,m,m,788
1,08-06-2017,25,female,right,Hebrew,MMProc,UFS,,FarBlock,triangle.bmp,father,circle.bmp,close,square.bmp,stranger,circle.bmp,z,m,1,m,m,1032
1,08-06-2017,25,female,right,Hebrew,MMProc,UFS,,MediumBlock,triangle.bmp,father,circle.bmp,close,square.bmp,stranger,triangle.bmp,z,m,1,m,m,818
1,08-06-2017,25,female,right,Hebrew,MMProc,UFS,,MediumBlock,triangle.bmp,father,circle.bmp,close,square.bmp,stranger,circle.bmp,z,m,1,z,z,997
1,08-06-2017,25,female,right,Hebrew,MMProc,UFS,,MediumBlock,triangle.bmp,father,circle.bmp,close,square.bmp,stranger,circle.bmp,z,m,1,z,z,601
1,08-06-2017,25,female,right,Hebrew,MMProc,UFS,,FarBlock,triangle.bmp,father,circle.bmp,close,square.bmp,stranger,square.bmp,z,m,1,z,z,708
1,08-06-2017,25,female,right,Hebrew,MMProc,UFS,,MediumBlock,triangle.bmp,father,circle.bmp,close,square.bmp,stranger,square.bmp,z,m,1,m,m,883
1,08-06-2017,25,female,right,Hebrew,MMProc,UFS,,MediumBlock,triangle.bmp,father,circle.bmp,close,square.bmp,stranger,circle.bmp,z,m,1,z,z,707
1,08-06-2017,25,female,right,Hebrew,MMProc,UFS,,MediumBlock,triangle.bmp,father,circle.bmp,close,square.bmp,stranger,circle.bmp,z,m,1,z,z,2411
1,08-06-2017,25,female,right,Hebrew,MMProc,UFS,,FarBlock,triangle.bmp,father,circle.bmp,close,square.bmp,stranger,triangle.bmp,z,m,1,m,m,966
1,08-06-2017,25,female,right,Hebrew,MMProc,UFS,,CloseBlock,triangle.bmp,father,circle.bmp,close,square.bmp,stranger,circle.bmp,z,m,1,m,m,739
1,08-06-2017,25,female,right,Hebrew,MMProc,UFS,,CloseBlock,triangle.bmp,father,circle.bmp,close,square.bmp,stranger,circle.bmp,z,m,1,m,m,496
1,08-06-2017,25,female,right,Hebrew,MMProc,UFS,,FarBlock,triangle.bmp,father,circle.bmp,close,square.bmp,stranger,square.bmp,z,m,1,z,z,648
1,08-06-2017,25,female,right,Hebrew,MMProc,UFS,,FarBlock,triangle.bmp,father,circle.bmp,close,square.bmp,stranger,circle.bmp,z,m,1,m,m,634
1,08-06-2017,25,female,right,Hebrew,MMProc,UFS,,FarBlock,triangle.bmp,father,circle.bmp,close,square.bmp,stranger,square.bmp,z,m,1,z,z,804
1,08-06-2017,25,female,right,Hebrew,MMProc,UFS,,FarBlock,triangle.bmp,father,circle.bmp,close,square.bmp,stranger,square.bmp,z,m,1,z,z,871
1,08-06-2017,25,female,right,Hebrew,MMProc,UFS,,CloseBlock,triangle.bmp,father,circle.bmp,close,square.bmp,stranger,triangle.bmp,z,m,1,z,z,664
1,08-06-2017,25,female,right,Hebrew,MMProc,UFS,,MediumBlock,triangle.bmp,father,circle.bmp,close,square.bmp,stranger,triangle.bmp,z,m,1,m,m,569
1,08-06-2017,25,female,right,Hebrew,MMProc,UFS,,MediumBlock,triangle.bmp,father,circle.bmp,close,square.bmp,stranger,circle.bmp,z,m,1,z,z,710
1,08-06-2017,25,female,right,Hebrew,MMProc,UFS,,MediumBlock,triangle.bmp,father,circle.bmp,close,square.bmp,stranger,circle.bmp,z,m,1,z,z,645
1,08-06-2017,25,female,right,Hebrew,MMProc,UFS,,MediumBlock,triangle.bmp,father,circle.bmp,close,square.bmp,stranger,triangle.bmp,z,m,1,m,m,599
1,08-06-2017,25,female,right,Hebrew,MMProc,UFS,,MediumBlock,triangle.bmp,father,circle.bmp,close,square.bmp,stranger,circle.bmp,z,m,1,z,z,522
1,08-06-2017,25,female,right,Hebrew,MMProc,UFS,,CloseBlock,triangle.bmp,father,circle.bmp,close,square.bmp,stranger,circle.bmp,z,m,1,m,m,697
1,08-06-2017,25,female,right,Hebrew,MMProc,UFS,,FarBlock,triangle.bmp,father,circle.bmp,close,square.bmp,stranger,square.bmp,z,m,1,z,z,624
1,08-06-2017,25,female,right,Hebrew,MMProc,UFS,,FarBlock,triangle.bmp,father,circle.bmp,close,square.bmp,stranger,triangle.bmp,z,m,1,m,m,707
1,08-06-2017,25,female,right,Hebrew,MMProc,UFS,,FarBlock,triangle.bmp,father,circle.bmp,close,square.bmp,stranger,circle.bmp,z,m,1,m,m,634
1,08-06-2017,25,female,right,Hebrew,MMProc,UFS,,FarBlock,triangle.bmp,father,circle.bmp,close,square.bmp,stranger,square.bmp,z,m,1,z,z,516
1,08-06-2017,25,female,right,Hebrew,MMProc,UFS,,FarBlock,triangle.bmp,father,circle.bmp,close,square.bmp,stranger,square.bmp,z,m,1,z,z,787
1,08-06-2017,25,female,right,Hebrew,MMProc,UFS,,FarBlock,triangle.bmp,father,circle.bmp,close,square.bmp,stranger,square.bmp,z,m,1,z,z,599
1,08-06-2017,25,female,right,Hebrew,MMProc,UFS,,CloseBlock,triangle.bmp,father,circle.bmp,close,square.bmp,stranger,triangle.bmp,z,m,1,z,z,667
1,08-06-2017,25,female,right,Hebrew,MMProc,UFS,,MediumBlock,triangle.bmp,father,circle.bmp,close,square.bmp,stranger,square.bmp,z,m,1,m,m,651
1,08-06-2017,25,female,right,Hebrew,MMProc,UFS,,FarBlock,triangle.bmp,father,circle.bmp,close,square.bmp,stranger,circle.bmp,z,m,1,m,m,709
1,08-06-2017,25,female,right,Hebrew,MMProc,UFS,,FarBlock,triangle.bmp,father,circle.bmp,close,square.bmp,stranger,square.bmp,z,m,1,z,z,1092
1,08-06-2017,25,female,right,Hebrew,MMProc,UFS,,MediumBlock,triangle.bmp,father,circle.bmp,close,square.bmp,stranger,triangle.bmp,z,m,1,m,m,1092
1,08-06-2017,25,female,right,Hebrew,MMProc,UFS,,CloseBlock,triangle.bmp,father,circle.bmp,close,square.bmp,stranger,circle.bmp,z,m,1,m,m,723
1,08-06-2017,25,female,right,Hebrew,MMProc,UFS,,MediumBlock,triangle.bmp,father,circle.bmp,close,square.bmp,stranger,circle.bmp,z,m,1,z,z,762
1,08-06-2017,25,female,right,Hebrew,MMProc,UFS,,CloseBlock,triangle.bmp,father,circle.bmp,close,square.bmp,stranger,square.bmp,z,m,1,m,m,1239
1,08-06-2017,25,female,right,Hebrew,MMProc,UFS,,CloseBlock,triangle.bmp,father,circle.bmp,close,square.bmp,stranger,square.bmp,z,m,1,m,m,657
1,08-06-2017,25,female,right,Hebrew,MMProc,UFS,,MediumBlock,triangle.bmp,father,circle.bmp,close,square.bmp,stranger,circle.bmp,z,m,1,z,z,594
1,08-06-2017,25,female,right,Hebrew,MMProc,UFS,,FarBlock,triangle.bmp,father,circle.bmp,close,square.bmp,stranger,circle.bmp,z,m,1,m,m,774
1,08-06-2017,25,female,right,Hebrew,MMProc,UFS,,CloseBlock,triangle.bmp,father,circle.bmp,close,square.bmp,stranger,triangle.bmp,z,m,1,z,z,642
1,08-06-2017,25,female,right,Hebrew,MMProc,UFS,,CloseBlock,triangle.bmp,father,circle.bmp,close,square.bmp,stranger,triangle.bmp,z,m,1,z,z,644
1,08-06-2017,25,female,right,Hebrew,MMProc,UFS,,CloseBlock,triangle.bmp,father,circle.bmp,close,square.bmp,stranger,triangle.bmp,z,m,1,z,z,446
1,08-06-2017,25,female,right,Hebrew,MMProc,UFS,,FarBlock,triangle.bmp,father,circle.bmp,close,square.bmp,stranger,square.bmp,z,m,1,z,z,599
1,08-06-2017,25,female,right,Hebrew,MMProc,UFS,,MediumBlock,triangle.bmp,father,circle.bmp,close,square.bmp,stranger,square.bmp,z,m,1,m,m,643
1,08-06-2017,25,female,right,Hebrew,MMProc,UFS,,CloseBlock,triangle.bmp,father,circle.bmp,close,square.bmp,stranger,square.bmp,z,m,1,m,m,997
1,08-06-2017,25,female,right,Hebrew,MMProc,UFS,,FarBlock,triangle.bmp,father,circle.bmp,close,square.bmp,stranger,circle.bmp,z,m,1,m,m,952
1,08-06-2017,25,female,right,Hebrew,MMProc,UFS,,FarBlock,triangle.bmp,father,circle.bmp,close,square.bmp,stranger,square.bmp,z,m,1,z,z,614
1,08-06-2017,25,female,right,Hebrew,MMProc,UFS,,CloseBlock,triangle.bmp,father,circle.bmp,close,square.bmp,stranger,triangle.bmp,z,m,1,z,z,825
1,08-06-2017,25,female,right,Hebrew,MMProc,UFS,,MediumBlock,triangle.bmp,father,circle.bmp,close,square.bmp,stranger,circle.bmp,z,m,1,z,z,835
1,08-06-2017,25,female,right,Hebrew,MMProc,UFS,,MediumBlock,triangle.bmp,father,circle.bmp,close,square.bmp,stranger,triangle.bmp,z,m,1,m,m,1190
1,08-06-2017,25,female,right,Hebrew,MMProc,UFS,,MediumBlock,triangle.bmp,father,circle.bmp,close,square.bmp,stranger,square.bmp,z,m,1,m,m,1889
1,08-06-2017,25,female,right,Hebrew,MMProc,UFS,,CloseBlock,triangle.bmp,father,circle.bmp,close,square.bmp,stranger,triangle.bmp,z,m,1,z,z,753
1,08-06-2017,25,female,right,Hebrew,MMProc,UFS,,MediumBlock,triangle.bmp,father,circle.bmp,close,square.bmp,stranger,circle.bmp,z,m,1,z,z,1014
1,08-06-2017,25,female,right,Hebrew,MMProc,UFS,,FarBlock,triangle.bmp,father,circle.bmp,close,square.bmp,stranger,square.bmp,z,m,1,z,z,657
1,08-06-2017,25,female,right,Hebrew,MMProc,UFS,,CloseBlock,triangle.bmp,father,circle.bmp,close,square.bmp,stranger,square.bmp,z,m,1,m,m,642
1,08-06-2017,25,female,right,Hebrew,MMProc,UFS,,FarBlock,triangle.bmp,father,circle.bmp,close,square.bmp,stranger,square.bmp,z,m,1,z,z,1268
1,08-06-2017,25,female,right,Hebrew,MMProc,UFS,,MediumBlock,triangle.bmp,father,circle.bmp,close,square.bmp,stranger,square.bmp,z,m,1,m,m,741
1,08-06-2017,25,female,right,Hebrew,MMProc,UFS,,FarBlock,triangle.bmp,father,circle.bmp,close,square.bmp,stranger,circle.bmp,z,m,1,m,m,722
1,08-06-2017,25,female,right,Hebrew,MMProc,UFS,,CloseBlock,triangle.bmp,father,circle.bmp,close,square.bmp,stranger,square.bmp,z,m,1,m,m,1176
1,08-06-2017,25,female,right,Hebrew,MMProc,UFS,,FarBlock,triangle.bmp,father,circle.bmp,close,square.bmp,stranger,circle.bmp,z,m,1,m,m,2069
1,08-06-2017,25,female,right,Hebrew,MMProc,UFS,,CloseBlock,triangle.bmp,father,circle.bmp,close,square.bmp,stranger,square.bmp,z,m,1,m,m,677
1,08-06-2017,25,female,right,Hebrew,MMProc,UFS,,FarBlock,triangle.bmp,father,circle.bmp,close,square.bmp,stranger,triangle.bmp,z,m,1,m,m,605
1,08-06-2017,25,female,right,Hebrew,MMProc,UFS,,MediumBlock,triangle.bmp,father,circle.bmp,close,square.bmp,stranger,circle.bmp,z,m,1,z,z,1081
1,08-06-2017,25,female,right,Hebrew,MMProc,UFS,,MediumBlock,triangle.bmp,father,circle.bmp,close,square.bmp,stranger,circle.bmp,z,m,1,z,z,713
1,08-06-2017,25,female,right,Hebrew,MMProc,UFS,,CloseBlock,triangle.bmp,father,circle.bmp,close,square.bmp,stranger,circle.bmp,z,m,1,m,m,648
1,08-06-2017,25,female,right,Hebrew,MMProc,UFS,,CloseBlock,triangle.bmp,father,circle.bmp,close,square.bmp,stranger,square.bmp,z,m,1,m,m,594
1,08-06-2017,25,female,right,Hebrew,MMProc,UFS,,MediumBlock,triangle.bmp,father,circle.bmp,close,square.bmp,stranger,square.bmp,z,m,0,m,z,726
1,08-06-2017,25,female,right,Hebrew,MMProc,UFS,,CloseBlock,triangle.bmp,father,circle.bmp,close,square.bmp,stranger,triangle.bmp,z,m,1,z,z,1084
1,08-06-2017,25,female,right,Hebrew,MMProc,UFS,,CloseBlock,triangle.bmp,father,circle.bmp,close,square.bmp,stranger,square.bmp,z,m,1,m,m,996
1,08-06-2017,25,female,right,Hebrew,MMProc,UFS,,FarBlock,triangle.bmp,father,circle.bmp,close,square.bmp,stranger,triangle.bmp,z,m,1,m,m,984
1,08-06-2017,25,female,right,Hebrew,MMProc,UFS,,FarBlock,triangle.bmp,father,circle.bmp,close,square.bmp,stranger,circle.bmp,z,m,1,m,m,644
1,08-06-2017,25,female,right,Hebrew,MMProc,UFS,,FarBlock,triangle.bmp,father,circle.bmp,close,square.bmp,stranger,triangle.bmp,z,m,1,m,m,918
1,08-06-2017,25,female,right,Hebrew,MMProc,UFS,,FarBlock,triangle.bmp,father,circle.bmp,close,square.bmp,stranger,square.bmp,z,m,1,z,z,516
1,08-06-2017,25,female,right,Hebrew,MMProc,UFS,,FarBlock,triangle.bmp,father,circle.bmp,close,square.bmp,stranger,square.bmp,z,m,1,z,z,707
1,08-06-2017,25,female,right,Hebrew,MMProc,UFS,,CloseBlock,triangle.bmp,father,circle.bmp,close,square.bmp,stranger,square.bmp,z,m,1,m,m,722
1,08-06-2017,25,female,right,Hebrew,MMProc,UFS,,FarBlock,triangle.bmp,father,circle.bmp,close,square.bmp,stranger,triangle.bmp,z,m,1,m,m,921
1,08-06-2017,25,female,right,Hebrew,MMProc,UFS,,CloseBlock,triangle.bmp,father,circle.bmp,close,square.bmp,stranger,triangle.bmp,z,m,1,z,z,712
1,08-06-2017,25,female,right,Hebrew,MMProc,UFS,,CloseBlock,triangle.bmp,father,circle.bmp,close,square.bmp,stranger,triangle.bmp,z,m,1,z,z,775
1,08-06-2017,25,female,right,Hebrew,MMProc,UFS,,CloseBlock,triangle.bmp,father,circle.bmp,close,square.bmp,stranger,triangle.bmp,z,m,1,z,z,780
1,08-06-2017,25,female,right,Hebrew,MMProc,UFS,,MediumBlock,triangle.bmp,father,circle.bmp,close,square.bmp,stranger,circle.bmp,z,m,1,z,z,696
1,08-06-2017,25,female,right,Hebrew,MMProc,UFS,,CloseBlock,triangle.bmp,father,circle.bmp,close,square.bmp,stranger,triangle.bmp,z,m,1,z,z,808
1,08-06-2017,25,female,right,Hebrew,MMProc,UFS,,MediumBlock,triangle.bmp,father,circle.bmp,close,square.bmp,stranger,circle.bmp,z,m,1,z,z,643
1,08-06-2017,25,female,right,Hebrew,MMProc,UFS,,MediumBlock,triangle.bmp,father,circle.bmp,close,square.bmp,stranger,circle.bmp,z,m,1,z,z,565
1,08-06-2017,25,female,right,Hebrew,MMProc,UFS,,MediumBlock,triangle.bmp,father,circle.bmp,close,square.bmp,stranger,circle.bmp,z,m,1,z,z,602
1,08-06-2017,25,female,right,Hebrew,MMProc,UFS,,MediumBlock,triangle.bmp,father,circle.bmp,close,square.bmp,stranger,triangle.bmp,z,m,1,m,m,645
1,08-06-2017,25,female,right,Hebrew,MMProc,UFS,,FarBlock,triangle.bmp,father,circle.bmp,close,square.bmp,stranger,square.bmp,z,m,1,z,z,839
1,08-06-2017,25,female,right,Hebrew,MMProc,UFS,,FarBlock,triangle.bmp,father,circle.bmp,close,square.bmp,stranger,square.bmp,z,m,1,z,z,417
1,08-06-2017,25,female,right,Hebrew,MMProc,UFS,,FarBlock,triangle.bmp,father,circle.bmp,close,square.bmp,stranger,triangle.bmp,z,m,0,m,z,340
1,08-06-2017,25,female,right,Hebrew,MMProc,UFS,,CloseBlock,triangle.bmp,father,circle.bmp,close,square.bmp,stranger,circle.bmp,z,m,1,m,m,714
1,08-06-2017,25,female,right,Hebrew,MMProc,UFS,,FarBlock,triangle.bmp,father,circle.bmp,close,square.bmp,stranger,circle.bmp,z,m,1,m,m,777
1,08-06-2017,25,female,right,Hebrew,MMProc,UFS,,FarBlock,triangle.bmp,father,circle.bmp,close,square.bmp,stranger,square.bmp,z,m,1,z,z,949
1,08-06-2017,25,female,right,Hebrew,MMProc,UFS,,MediumBlock,triangle.bmp,father,circle.bmp,close,square.bmp,stranger,circle.bmp,z,m,1,z,z,1083
1,08-06-2017,25,female,right,Hebrew,MMProc,UFS,,FarBlock,triangle.bmp,father,circle.bmp,close,square.bmp,stranger,triangle.bmp,z,m,1,m,m,763
1,08-06-2017,25,female,right,Hebrew,MMProc,UFS,,FarBlock,triangle.bmp,father,circle.bmp,close,square.bmp,stranger,square.bmp,z,m,1,z,z,760
1,08-06-2017,25,female,right,Hebrew,MMProc,UFS,,CloseBlock,triangle.bmp,father,circle.bmp,close,square.bmp,stranger,square.bmp,z,m,1,m,m,822
1,08-06-2017,25,female,right,Hebrew,MMProc,UFS,,FarBlock,triangle.bmp,father,circle.bmp,close,square.bmp,stranger,triangle.bmp,z,m,1,m,m,664
1,08-06-2017,25,female,right,Hebrew,MMProc,UFS,,CloseBlock,triangle.bmp,father,circle.bmp,close,square.bmp,stranger,triangle.bmp,z,m,1,z,z,665
1,08-06-2017,25,female,right,Hebrew,MMProc,UFS,,CloseBlock,triangle.bmp,father,circle.bmp,close,square.bmp,stranger,triangle.bmp,z,m,1,z,z,698
1,08-06-2017,25,female,right,Hebrew,MMProc,UFS,,MediumBlock,triangle.bmp,father,circle.bmp,close,square.bmp,stranger,triangle.bmp,z,m,1,m,m,705
1,08-06-2017,25,female,right,Hebrew,MMProc,UFS,,MediumBlock,triangle.bmp,father,circle.bmp,close,square.bmp,stranger,triangle.bmp,z,m,1,m,m,1120
1,08-06-2017,25,female,right,Hebrew,MMProc,UFS,,CloseBlock,triangle.bmp,father,circle.bmp,close,square.bmp,stranger,triangle.bmp,z,m,1,z,z,647
1,08-06-2017,25,female,right,Hebrew,MMProc,UFS,,CloseBlock,triangle.bmp,father,circle.bmp,close,square.bmp,stranger,circle.bmp,z,m,1,m,m,1049
1,08-06-2017,25,female,right,Hebrew,MMProc,UFS,,CloseBlock,triangle.bmp,father,circle.bmp,close,square.bmp,stranger,triangle.bmp,z,m,1,z,z,610
1,08-06-2017,25,female,right,Hebrew,MMProc,UFS,,CloseBlock,triangle.bmp,father,circle.bmp,close,square.bmp,stranger,triangle.bmp,z,m,1,z,z,565
1,08-06-2017,25,female,right,Hebrew,MMProc,UFS,,CloseBlock,triangle.bmp,father,circle.bmp,close,square.bmp,stranger,circle.bmp,z,m,1,m,m,658
1,08-06-2017,25,female,right,Hebrew,MMProc,UFS,,MediumBlock,triangle.bmp,father,circle.bmp,close,square.bmp,stranger,square.bmp,z,m,1,m,m,915
1,08-06-2017,25,female,right,Hebrew,MMProc,UFS,,MediumBlock,triangle.bmp,father,circle.bmp,close,square.bmp,stranger,circle.bmp,z,m,1,z,z,762
1,08-06-2017,25,female,right,Hebrew,MMProc,UFS,,CloseBlock,triangle.bmp,father,circle.bmp,close,square.bmp,stranger,triangle.bmp,z,m,1,z,z,679
1,08-06-2017,25,female,right,Hebrew,MMProc,UFS,,FarBlock,triangle.bmp,father,circle.bmp,close,square.bmp,stranger,triangle.bmp,z,m,1,m,m,712
1,08-06-2017,25,female,right,Hebrew,MMProc,UFS,,MediumBlock,triangle.bmp,father,circle.bmp,close,square.bmp,stranger,triangle.bmp,z,m,1,m,m,663
1,08-06-2017,25,female,right,Hebrew,MMProc,UFS,,CloseBlock,triangle.bmp,father,circle.bmp,close,square.bmp,stranger,triangle.bmp,z,m,1,z,z,840
1,08-06-2017,25,female,right,Hebrew,MMProc,UFS,,MediumBlock,triangle.bmp,father,circle.bmp,close,square.bmp,stranger,circle.bmp,z,m,1,z,z,1242
1,08-06-2017,25,female,right,Hebrew,MMProc,UFS,,MediumBlock,triangle.bmp,father,circle.bmp,close,square.bmp,stranger,square.bmp,z,m,1,m,m,1220
1,08-06-2017,25,female,right,Hebrew,MMProc,UFS,,CloseBlock,triangle.bmp,father,circle.bmp,close,square.bmp,stranger,triangle.bmp,z,m,1,z,z,615
1,08-06-2017,25,female,right,Hebrew,MMProc,UFS,,FarBlock,triangle.bmp,father,circle.bmp,close,square.bmp,stranger,square.bmp,z,m,1,z,z,817
1,08-06-2017,25,female,right,Hebrew,MMProc,UFS,,CloseBlock,triangle.bmp,father,circle.bmp,close,square.bmp,stranger,circle.bmp,z,m,1,m,m,676
1,08-06-2017,25,female,right,Hebrew,FBbreak1,UFS,,,triangle.bmp,father,circle.bmp,close,square.bmp,stranger,,z,m,,,,
1,08-06-2017,25,female,right,Hebrew,MMProc,UFS,,MediumBlock,triangle.bmp,father,circle.bmp,close,square.bmp,stranger,circle.bmp,z,m,1,z,z,1471
1,08-06-2017,25,female,right,Hebrew,MMProc,UFS,,FarBlock,triangle.bmp,father,circle.bmp,close,square.bmp,stranger,circle.bmp,z,m,1,m,m,776
1,08-06-2017,25,female,right,Hebrew,MMProc,UFS,,CloseBlock,triangle.bmp,father,circle.bmp,close,square.bmp,stranger,circle.bmp,z,m,1,m,m,1036
1,08-06-2017,25,female,right,Hebrew,MMProc,UFS,,FarBlock,triangle.bmp,father,circle.bmp,close,square.bmp,stranger,square.bmp,z,m,1,z,z,630
1,08-06-2017,25,female,right,Hebrew,MMProc,UFS,,FarBlock,triangle.bmp,father,circle.bmp,close,square.bmp,stranger,triangle.bmp,z,m,1,m,m,688
1,08-06-2017,25,female,right,Hebrew,MMProc,UFS,,FarBlock,triangle.bmp,father,circle.bmp,close,square.bmp,stranger,square.bmp,z,m,1,z,z,744
1,08-06-2017,25,female,right,Hebrew,MMProc,UFS,,CloseBlock,triangle.bmp,father,circle.bmp,close,square.bmp,stranger,triangle.bmp,z,m,1,z,z,822
1,08-06-2017,25,female,right,Hebrew,MMProc,UFS,,FarBlock,triangle.bmp,father,circle.bmp,close,square.bmp,stranger,circle.bmp,z,m,1,m,m,1513
1,08-06-2017,25,female,right,Hebrew,MMProc,UFS,,FarBlock,triangle.bmp,father,circle.bmp,close,square.bmp,stranger,circle.bmp,z,m,1,m,m,1176
1,08-06-2017,25,female,right,Hebrew,MMProc,UFS,,FarBlock,triangle.bmp,father,circle.bmp,close,square.bmp,stranger,triangle.bmp,z,m,1,m,m,628
1,08-06-2017,25,female,right,Hebrew,MMProc,UFS,,MediumBlock,triangle.bmp,father,circle.bmp,close,square.bmp,stranger,square.bmp,z,m,1,m,m,774
1,08-06-2017,25,female,right,Hebrew,MMProc,UFS,,FarBlock,triangle.bmp,father,circle.bmp,close,square.bmp,stranger,triangle.bmp,z,m,1,m,m,579
1,08-06-2017,25,female,right,Hebrew,MMProc,UFS,,CloseBlock,triangle.bmp,father,circle.bmp,close,square.bmp,stranger,triangle.bmp,z,m,1,z,z,487
1,08-06-2017,25,female,right,Hebrew,MMProc,UFS,,MediumBlock,triangle.bmp,father,circle.bmp,close,square.bmp,stranger,square.bmp,z,m,1,m,m,783
1,08-06-2017,25,female,right,Hebrew,MMProc,UFS,,CloseBlock,triangle.bmp,father,circle.bmp,close,square.bmp,stranger,triangle.bmp,z,m,1,z,z,835
1,08-06-2017,25,female,right,Hebrew,MMProc,UFS,,CloseBlock,triangle.bmp,father,circle.bmp,close,square.bmp,stranger,triangle.bmp,z,m,1,z,z,709
1,08-06-2017,25,female,right,Hebrew,MMProc,UFS,,CloseBlock,triangle.bmp,father,circle.bmp,close,square.bmp,stranger,triangle.bmp,z,m,1,z,z,580
1,08-06-2017,25,female,right,Hebrew,MMProc,UFS,,FarBlock,triangle.bmp,father,circle.bmp,close,square.bmp,stranger,square.bmp,z,m,1,z,z,728
1,08-06-2017,25,female,right,Hebrew,MMProc,UFS,,FarBlock,triangle.bmp,father,circle.bmp,close,square.bmp,stranger,square.bmp,z,m,1,z,z,534
1,08-06-2017,25,female,right,Hebrew,MMProc,UFS,,MediumBlock,triangle.bmp,father,circle.bmp,close,square.bmp,stranger,triangle.bmp,z,m,1,m,m,565
1,08-06-2017,25,female,right,Hebrew,MMProc,UFS,,CloseBlock,triangle.bmp,father,circle.bmp,close,square.bmp,stranger,square.bmp,z,m,1,m,m,833
1,08-06-2017,25,female,right,Hebrew,MMProc,UFS,,FarBlock,triangle.bmp,father,circle.bmp,close,square.bmp,stranger,square.bmp,z,m,1,z,z,835
1,08-06-2017,25,female,right,Hebrew,MMProc,UFS,,CloseBlock,triangle.bmp,father,circle.bmp,close,square.bmp,stranger,square.bmp,z,m,1,m,m,630
1,08-06-2017,25,female,right,Hebrew,MMProc,UFS,,MediumBlock,triangle.bmp,father,circle.bmp,close,square.bmp,stranger,triangle.bmp,z,m,1,m,m,952
1,08-06-2017,25,female,right,Hebrew,MMProc,UFS,,FarBlock,triangle.bmp,father,circle.bmp,close,square.bmp,stranger,circle.bmp,z,m,1,m,m,645
1,08-06-2017,25,female,right,Hebrew,MMProc,UFS,,CloseBlock,triangle.bmp,father,circle.bmp,close,square.bmp,stranger,square.bmp,z,m,1,m,m,679
1,08-06-2017,25,female,right,Hebrew,MMProc,UFS,,CloseBlock,triangle.bmp,father,circle.bmp,close,square.bmp,stranger,triangle.bmp,z,m,1,z,z,792
1,08-06-2017,25,female,right,Hebrew,MMProc,UFS,,MediumBlock,triangle.bmp,father,circle.bmp,close,square.bmp,stranger,circle.bmp,z,m,1,z,z,899
1,08-06-2017,25,female,right,Hebrew,MMProc,UFS,,CloseBlock,triangle.bmp,father,circle.bmp,close,square.bmp,stranger,square.bmp,z,m,1,m,m,619
1,08-06-2017,25,female,right,Hebrew,MMProc,UFS,,CloseBlock,triangle.bmp,father,circle.bmp,close,square.bmp,stranger,circle.bmp,z,m,1,m,m,998
1,08-06-2017,25,female,right,Hebrew,MMProc,UFS,,MediumBlock,triangle.bmp,father,circle.bmp,close,square.bmp,stranger,triangle.bmp,z,m,1,m,m,666
1,08-06-2017,25,female,right,Hebrew,MMProc,UFS,,MediumBlock,triangle.bmp,father,circle.bmp,close,square.bmp,stranger,circle.bmp,z,m,1,z,z,619
1,08-06-2017,25,female,right,Hebrew,MMProc,UFS,,FarBlock,triangle.bmp,father,circle.bmp,close,square.bmp,stranger,triangle.bmp,z,m,1,m,m,854
1,08-06-2017,25,female,right,Hebrew,MMProc,UFS,,FarBlock,triangle.bmp,father,circle.bmp,close,square.bmp,stranger,square.bmp,z,m,1,z,z,615
1,08-06-2017,25,female,right,Hebrew,MMProc,UFS,,MediumBlock,triangle.bmp,father,circle.bmp,close,square.bmp,stranger,circle.bmp,z,m,1,z,z,762
1,08-06-2017,25,female,right,Hebrew,MMProc,UFS,,MediumBlock,triangle.bmp,father,circle.bmp,close,square.bmp,stranger,triangle.bmp,z,m,1,m,m,623
1,08-06-2017,25,female,right,Hebrew,MMProc,UFS,,FarBlock,triangle.bmp,father,circle.bmp,close,square.bmp,stranger,square.bmp,z,m,1,z,z,602
1,08-06-2017,25,female,right,Hebrew,MMProc,UFS,,CloseBlock,triangle.bmp,father,circle.bmp,close,square.bmp,stranger,triangle.bmp,z,m,1,z,z,629
1,08-06-2017,25,female,right,Hebrew,MMProc,UFS,,CloseBlock,triangle.bmp,father,circle.bmp,close,square.bmp,stranger,triangle.bmp,z,m,1,z,z,552
1,08-06-2017,25,female,right,Hebrew,MMProc,UFS,,MediumBlock,triangle.bmp,father,circle.bmp,close,square.bmp,stranger,square.bmp,z,m,1,m,m,885
1,08-06-2017,25,female,right,Hebrew,MMProc,UFS,,FarBlock,triangle.bmp,father,circle.bmp,close,square.bmp,stranger,square.bmp,z,m,1,z,z,613
1,08-06-2017,25,female,right,Hebrew,MMProc,UFS,,MediumBlock,triangle.bmp,father,circle.bmp,close,square.bmp,stranger,circle.bmp,z,m,1,z,z,696
1,08-06-2017,25,female,right,Hebrew,MMProc,UFS,,CloseBlock,triangle.bmp,father,circle.bmp,close,square.bmp,stranger,circle.bmp,z,m,1,m,m,680
1,08-06-2017,25,female,right,Hebrew,MMProc,UFS,,MediumBlock,triangle.bmp,father,circle.bmp,close,square.bmp,stranger,circle.bmp,z,m,1,z,z,1273
1,08-06-2017,25,female,right,Hebrew,MMProc,UFS,,FarBlock,triangle.bmp,father,circle.bmp,close,square.bmp,stranger,square.bmp,z,m,1,z,z,905
1,08-06-2017,25,female,right,Hebrew,MMProc,UFS,,FarBlock,triangle.bmp,father,circle.bmp,close,square.bmp,stranger,square.bmp,z,m,1,z,z,585
1,08-06-2017,25,female,right,Hebrew,MMProc,UFS,,CloseBlock,triangle.bmp,father,circle.bmp,close,square.bmp,stranger,triangle.bmp,z,m,1,z,z,629
1,08-06-2017,25,female,right,Hebrew,MMProc,UFS,,MediumBlock,triangle.bmp,father,circle.bmp,close,square.bmp,stranger,circle.bmp,z,m,1,z,z,711
1,08-06-2017,25,female,right,Hebrew,MMProc,UFS,,CloseBlock,triangle.bmp,father,circle.bmp,close,square.bmp,stranger,circle.bmp,z,m,1,m,m,742
1,08-06-2017,25,female,right,Hebrew,MMProc,UFS,,FarBlock,triangle.bmp,father,circle.bmp,close,square.bmp,stranger,circle.bmp,z,m,1,m,m,932
1,08-06-2017,25,female,right,Hebrew,MMProc,UFS,,MediumBlock,triangle.bmp,father,circle.bmp,close,square.bmp,stranger,circle.bmp,z,m,1,z,z,738
1,08-06-2017,25,female,right,Hebrew,MMProc,UFS,,MediumBlock,triangle.bmp,father,circle.bmp,close,square.bmp,stranger,square.bmp,z,m,1,m,m,1224
1,08-06-2017,25,female,right,Hebrew,MMProc,UFS,,MediumBlock,triangle.bmp,father,circle.bmp,close,square.bmp,stranger,circle.bmp,z,m,1,z,z,859
1,08-06-2017,25,female,right,Hebrew,MMProc,UFS,,MediumBlock,triangle.bmp,father,circle.bmp,close,square.bmp,stranger,circle.bmp,z,m,1,z,z,596
1,08-06-2017,25,female,right,Hebrew,MMProc,UFS,,MediumBlock,triangle.bmp,father,circle.bmp,close,square.bmp,stranger,circle.bmp,z,m,1,z,z,568
1,08-06-2017,25,female,right,Hebrew,MMProc,UFS,,FarBlock,triangle.bmp,father,circle.bmp,close,square.bmp,stranger,circle.bmp,z,m,1,m,m,757
1,08-06-2017,25,female,right,Hebrew,MMProc,UFS,,FarBlock,triangle.bmp,father,circle.bmp,close,square.bmp,stranger,square.bmp,z,m,1,z,z,730
1,08-06-2017,25,female,right,Hebrew,MMProc,UFS,,CloseBlock,triangle.bmp,father,circle.bmp,close,square.bmp,stranger,triangle.bmp,z,m,1,z,z,584
1,08-06-2017,25,female,right,Hebrew,MMProc,UFS,,MediumBlock,triangle.bmp,father,circle.bmp,close,square.bmp,stranger,circle.bmp,z,m,1,z,z,676
1,08-06-2017,25,female,right,Hebrew,MMProc,UFS,,FarBlock,triangle.bmp,father,circle.bmp,close,square.bmp,stranger,circle.bmp,z,m,1,m,m,804
1,08-06-2017,25,female,right,Hebrew,MMProc,UFS,,CloseBlock,triangle.bmp,father,circle.bmp,close,square.bmp,stranger,triangle.bmp,z,m,1,z,z,776
1,08-06-2017,25,female,right,Hebrew,MMProc,UFS,,CloseBlock,triangle.bmp,father,circle.bmp,close,square.bmp,stranger,triangle.bmp,z,m,1,z,z,652
1,08-06-2017,25,female,right,Hebrew,MMProc,UFS,,CloseBlock,triangle.bmp,father,circle.bmp,close,square.bmp,stranger,square.bmp,z,m,1,m,m,965
1,08-06-2017,25,female,right,Hebrew,MMProc,UFS,,FarBlock,triangle.bmp,father,circle.bmp,close,square.bmp,stranger,square.bmp,z,m,1,z,z,962
1,08-06-2017,25,female,right,Hebrew,MMProc,UFS,,FarBlock,triangle.bmp,father,circle.bmp,close,square.bmp,stranger,triangle.bmp,z,m,1,m,m,823
1,08-06-2017,25,female,right,Hebrew,MMProc,UFS,,CloseBlock,triangle.bmp,father,circle.bmp,close,square.bmp,stranger,triangle.bmp,z,m,1,z,z,778
1,08-06-2017,25,female,right,Hebrew,MMProc,UFS,,CloseBlock,triangle.bmp,father,circle.bmp,close,square.bmp,stranger,circle.bmp,z,m,1,m,m,870
1,08-06-2017,25,female,right,Hebrew,MMProc,UFS,,CloseBlock,triangle.bmp,father,circle.bmp,close,square.bmp,stranger,circle.bmp,z,m,1,m,m,1351
1,08-06-2017,25,female,right,Hebrew,MMProc,UFS,,FarBlock,triangle.bmp,father,circle.bmp,close,square.bmp,stranger,triangle.bmp,z,m,1,m,m,821
