"Subject","Block","Trial","Age_Participant1","Age_Participant2","StrangerShape","P1Shape","P2Shape","Shape","Matching","Label_Identity","Origin_Identity","ShapeLoc","Response","RT_ms","RT_sec","ACC","Phase"
1,1,1,23,21,"STAR","TRIANGLE","PENTAGON","Stranger","Nonmatching","P2","Stranger","Top","o",716.866949,0.716866949,1,1
1,1,2,23,21,"STAR","TRIANGLE","PENTAGON","P1","Matching","P1","P1","Top","w",566.84565,0.56684565,1,1
1,1,3,23,21,"STAR","TRIANGLE","PENTAGON","P1","Matching","P1","P1","Top","w",550.16666,0.55016666,1,1
1,1,4,23,21,"STAR","TRIANGLE","PENTAGON","Stranger","Matching","Stranger","Stranger","Bottom","w",833.512501,0.833512501,1,1
1,1,5,23,21,"STAR","TRIANGLE","PENTAGON","Stranger","Matching","Stranger","Stranger","Top","w",650.122167,0.650122167,1,1
1,1,6,23,21,"STAR","TRIANGLE","PENTAGON","P2","Matching","P2","P2","Bottom","w",566.810909,0.566810909,1,1
1,1,7,23,21,"STAR","TRIANGLE","PENTAGON","P2","Nonmatching","Stranger","P2","Top","w",800.027003,0.800027003,0,1
1,1,8,23,21,"STAR","TRIANGLE","PENTAGON","P2","Nonmatching","Stranger","P2","Top","w",600.149546,0.600149546,0,1
1,1,9,23,21,"STAR","TRIANGLE","PENTAGON","P1","Matching","P1","P1","Bottom","w",500.430911,0.500430911,1,1
1,1,10,23,21,"STAR","TRIANGLE","PENTAGON","P2","Nonmatching","P1","P2","Top","None",NA,NA,3,1
1,1,11,23,21,"STAR","TRIANGLE","PENTAGON","Stranger","Matching","Stranger","Stranger","Top","w",600.170469,0.600170469,1,1
1,1,12,23,21,"STAR","TRIANGLE","PENTAGON","P1","Matching","P1","P1","Top","w",683.540551,0.683540551,1,1
1,1,13,23,21,"STAR","TRIANGLE","PENTAGON","P1","Nonmatching","P2","P1","Bottom","o",783.496453,0.783496453,1,1
1,1,14,23,21,"STAR","TRIANGLE","PENTAGON","P1","Matching","P1","P1","Top","w",583.425549,0.583425549,1,1
1,1,15,23,21,"STAR","TRIANGLE","PENTAGON","Stranger","Matching","Stranger","Stranger","Top","w",616.844328,0.616844328,1,1
1,1,16,23,21,"STAR","TRIANGLE","PENTAGON","P1","Matching","P1","P1","Top","w",600.136518,0.600136518,1,1
1,1,17,23,21,"STAR","TRIANGLE","PENTAGON","Stranger","Nonmatching","P1","Stranger","Bottom","o",650.179411,0.650179411,1,1
1,1,18,23,21,"STAR","TRIANGLE","PENTAGON","P1","Matching","P1","P1","Bottom","w",800.193209,0.800193209,1,1
1,1,19,23,21,"STAR","TRIANGLE","PENTAGON","Stranger","Matching","Stranger","Stranger","Top","w",616.843933,0.616843933,1,1
1,1,20,23,21,"STAR","TRIANGLE","PENTAGON","Stranger","Matching","Stranger","Stranger","Top","w",600.078089,0.600078089,1,1
1,1,21,23,21,"STAR","TRIANGLE","PENTAGON","P2","Nonmatching","Stranger","P2","Top","o",766.848651,0.766848651,1,1
1,1,22,23,21,"STAR","TRIANGLE","PENTAGON","P1","Matching","P1","P1","Bottom","w",633.760981,0.633760981,1,1
1,1,23,23,21,"STAR","TRIANGLE","PENTAGON","P1","Nonmatching","P2","P1","Top","o",933.460113,0.933460113,1,1
1,1,24,23,21,"STAR","TRIANGLE","PENTAGON","P2","Matching","P2","P2","Top","w",600.138886,0.600138886,1,1
1,1,25,23,21,"STAR","TRIANGLE","PENTAGON","P2","Nonmatching","P1","P2","Bottom","w",566.874075,0.566874075,0,1
1,1,26,23,21,"STAR","TRIANGLE","PENTAGON","P2","Nonmatching","P1","P2","Top","None",NA,NA,3,1
1,1,27,23,21,"STAR","TRIANGLE","PENTAGON","P1","Nonmatching","Stranger","P1","Top","o",1050.14238,1.05014238,1,1
1,1,28,23,21,"STAR","TRIANGLE","PENTAGON","Stranger","Nonmatching","P1","Stranger","Top","o",883.465383,0.883465383,1,1
1,1,29,23,21,"STAR","TRIANGLE","PENTAGON","P1","Nonmatching","P2","P1","Bottom","o",967.094051,0.967094051,1,1
1,1,30,23,21,"STAR","TRIANGLE","PENTAGON","Stranger","Nonmatching","P1","Stranger","Top","o",816.793637,0.816793637,1,1
1,1,31,23,21,"STAR","TRIANGLE","PENTAGON","Stranger","Nonmatching","P2","Stranger","Bottom","o",600.178365,0.600178365,1,1
1,1,32,23,21,"STAR","TRIANGLE","PENTAGON","P1","Matching","P1","P1","Top","w",616.74721,0.61674721,1,1
1,1,33,23,21,"STAR","TRIANGLE","PENTAGON","Stranger","Nonmatching","P2","Stranger","Top","o",866.783234,0.866783234,1,1
1,1,34,23,21,"STAR","TRIANGLE","PENTAGON","P2","Matching","P2","P2","Top","w",616.805244,0.616805244,1,1
1,1,35,23,21,"STAR","TRIANGLE","PENTAGON","P2","Matching","P2","P2","Bottom","w",950.180951,0.950180951,1,1
1,1,36,23,21,"STAR","TRIANGLE","PENTAGON","P2","Nonmatching","P1","P2","Bottom","o",700.117291,0.700117291,1,1
1,1,37,23,21,"STAR","TRIANGLE","PENTAGON","Stranger","Nonmatching","P2","Stranger","Bottom","o",700.153217,0.700153217,1,1
1,1,38,23,21,"STAR","TRIANGLE","PENTAGON","Stranger","Matching","Stranger","Stranger","Top","w",650.198756,0.650198756,1,1
1,1,39,23,21,"STAR","TRIANGLE","PENTAGON","P2","Nonmatching","Stranger","P2","Top","o",783.486189,0.783486189,1,1
1,1,40,23,21,"STAR","TRIANGLE","PENTAGON","P1","Nonmatching","P2","P1","Bottom","o",683.460804,0.683460804,1,1
1,1,41,23,21,"STAR","TRIANGLE","PENTAGON","P2","Matching","P2","P2","Top","w",800.175838,0.800175838,1,1
1,1,42,23,21,"STAR","TRIANGLE","PENTAGON","P2","Nonmatching","Stranger","P2","Bottom","o",1416.785267,1.416785267,1,1
1,1,43,23,21,"STAR","TRIANGLE","PENTAGON","P1","Matching","P1","P1","Bottom","w",550.189952,0.550189952,1,1
1,1,44,23,21,"STAR","TRIANGLE","PENTAGON","Stranger","Nonmatching","P1","Stranger","Top","o",700.183221,0.700183221,1,1
1,1,45,23,21,"STAR","TRIANGLE","PENTAGON","P2","Matching","P2","P2","Bottom","w",650.425759,0.650425759,1,1
1,1,46,23,21,"STAR","TRIANGLE","PENTAGON","P1","Nonmatching","P2","P1","Top","o",683.477385,0.683477385,1,1
1,1,47,23,21,"STAR","TRIANGLE","PENTAGON","P1","Nonmatching","Stranger","P1","Bottom","o",1383.454527,1.383454527,1,1
1,1,48,23,21,"STAR","TRIANGLE","PENTAGON","P2","Nonmatching","P1","P2","Bottom","o",866.818765,0.866818765,1,1
1,1,49,23,21,"STAR","TRIANGLE","PENTAGON","Stranger","Nonmatching","P2","Stranger","Bottom","o",616.836432,0.616836432,1,1
1,1,50,23,21,"STAR","TRIANGLE","PENTAGON","P2","Matching","P2","P2","Bottom","w",767.196459,0.767196459,1,1
1,1,51,23,21,"STAR","TRIANGLE","PENTAGON","P1","Nonmatching","P2","P1","Top","o",633.509106,0.633509106,1,1
1,1,52,23,21,"STAR","TRIANGLE","PENTAGON","P2","Matching","P2","P2","Top","w",933.48459,0.93348459,1,1
1,1,53,23,21,"STAR","TRIANGLE","PENTAGON","P1","Nonmatching","Stranger","P1","Bottom","o",1383.51256,1.38351256,1,1
1,1,54,23,21,"STAR","TRIANGLE","PENTAGON","P1","Nonmatching","Stranger","P1","Top","o",833.516844,0.833516844,1,1
1,1,55,23,21,"STAR","TRIANGLE","PENTAGON","P1","Nonmatching","Stranger","P1","Top","o",1066.837557,1.066837557,1,1
1,1,56,23,21,"STAR","TRIANGLE","PENTAGON","Stranger","Matching","Stranger","Stranger","Bottom","w",1216.801217,1.216801217,1,1
1,1,57,23,21,"STAR","TRIANGLE","PENTAGON","P2","Matching","P2","P2","Top","w",666.829977,0.666829977,1,1
1,1,58,23,21,"STAR","TRIANGLE","PENTAGON","P2","Nonmatching","P1","P2","Bottom","o",733.496986,0.733496986,1,1
1,1,59,23,21,"STAR","TRIANGLE","PENTAGON","P1","Matching","P1","P1","Bottom","w",516.85171,0.51685171,1,1
1,1,60,23,21,"STAR","TRIANGLE","PENTAGON","Stranger","Matching","Stranger","Stranger","Bottom","w",917.106427,0.917106427,1,1
1,1,61,23,21,"STAR","TRIANGLE","PENTAGON","Stranger","Nonmatching","P2","Stranger","Bottom","o",833.769508,0.833769508,1,1
1,1,62,23,21,"STAR","TRIANGLE","PENTAGON","P2","Nonmatching","P1","P2","Bottom","o",1366.819357,1.366819357,1,1
1,1,63,23,21,"STAR","TRIANGLE","PENTAGON","Stranger","Matching","Stranger","Stranger","Top","o",733.501329,0.733501329,0,1
1,1,64,23,21,"STAR","TRIANGLE","PENTAGON","P2","Nonmatching","P1","P2","Top","o",1350.144315,1.350144315,1,1
1,1,65,23,21,"STAR","TRIANGLE","PENTAGON","P2","Nonmatching","P1","P2","Top","o",916.820601,0.916820601,1,1
1,1,66,23,21,"STAR","TRIANGLE","PENTAGON","P1","Matching","P1","P1","Bottom","w",566.814857,0.566814857,1,1
1,1,67,23,21,"STAR","TRIANGLE","PENTAGON","Stranger","Matching","Stranger","Stranger","Bottom","w",783.63147,0.78363147,1,1
1,1,68,23,21,"STAR","TRIANGLE","PENTAGON","Stranger","Nonmatching","P2","Stranger","Top","o",783.458553,0.783458553,1,1
1,1,69,23,21,"STAR","TRIANGLE","PENTAGON","P2","Nonmatching","Stranger","P2","Bottom","o",1016.814403,1.016814403,1,1
1,1,70,23,21,"STAR","TRIANGLE","PENTAGON","Stranger","Matching","Stranger","Stranger","Bottom","w",666.798789,0.666798789,1,1
1,1,71,23,21,"STAR","TRIANGLE","PENTAGON","P1","Nonmatching","Stranger","P1","Top","o",633.785063,0.633785063,1,1
1,1,72,23,21,"STAR","TRIANGLE","PENTAGON","P1","Matching","P1","P1","Top","w",583.816389,0.583816389,1,1
1,1,73,23,21,"STAR","TRIANGLE","PENTAGON","P2","Matching","P2","P2","Bottom","w",650.455763,0.650455763,1,1
1,1,74,23,21,"STAR","TRIANGLE","PENTAGON","Stranger","Nonmatching","P2","Stranger","Top","o",666.798394,0.666798394,1,1
1,1,75,23,21,"STAR","TRIANGLE","PENTAGON","P1","Nonmatching","P2","P1","Bottom","o",866.808501,0.866808501,1,1
1,1,76,23,21,"STAR","TRIANGLE","PENTAGON","P2","Matching","P2","P2","Top","w",1300.103395,1.300103395,1,1
1,1,77,23,21,"STAR","TRIANGLE","PENTAGON","P1","Matching","P1","P1","Top","w",650.137959,0.650137959,1,1
1,1,78,23,21,"STAR","TRIANGLE","PENTAGON","P1","Matching","P1","P1","Bottom","w",633.472786,0.633472786,1,1
1,1,79,23,21,"STAR","TRIANGLE","PENTAGON","P2","Matching","P2","P2","Top","w",700.130714,0.700130714,1,1
1,1,80,23,21,"STAR","TRIANGLE","PENTAGON","P2","Nonmatching","Stranger","P2","Top","o",833.538557,0.833538557,1,1
1,1,81,23,21,"STAR","TRIANGLE","PENTAGON","P2","Nonmatching","Stranger","P2","Bottom","o",767.129739,0.767129739,1,1
1,1,82,23,21,"STAR","TRIANGLE","PENTAGON","Stranger","Nonmatching","P2","Stranger","Top","o",833.484076,0.833484076,1,1
1,1,83,23,21,"STAR","TRIANGLE","PENTAGON","Stranger","Matching","Stranger","Stranger","Bottom","w",833.466311,0.833466311,1,1
1,1,84,23,21,"STAR","TRIANGLE","PENTAGON","P2","Matching","P2","P2","Bottom","w",866.82824,0.86682824,1,1
1,1,85,23,21,"STAR","TRIANGLE","PENTAGON","Stranger","Matching","Stranger","Stranger","Bottom","w",1450.133379,1.450133379,1,1
1,1,86,23,21,"STAR","TRIANGLE","PENTAGON","P1","Nonmatching","P2","P1","Bottom","o",1100.090525,1.100090525,1,1
1,1,87,23,21,"STAR","TRIANGLE","PENTAGON","Stranger","Nonmatching","P1","Stranger","Bottom","o",1150.09394,1.15009394,1,1
1,1,88,23,21,"STAR","TRIANGLE","PENTAGON","P2","Nonmatching","Stranger","P2","Bottom","o",1333.451506,1.333451506,1,1
1,1,89,23,21,"STAR","TRIANGLE","PENTAGON","P1","Nonmatching","P2","P1","Top","o",783.481451,0.783481451,1,1
1,1,90,23,21,"STAR","TRIANGLE","PENTAGON","P2","Matching","P2","P2","Top","w",683.516074,0.683516074,1,1
1,1,91,23,21,"STAR","TRIANGLE","PENTAGON","P1","Matching","P1","P1","Bottom","w",666.809843,0.666809843,1,1
1,1,92,23,21,"STAR","TRIANGLE","PENTAGON","Stranger","Matching","Stranger","Stranger","Bottom","w",683.617534,0.683617534,1,1
1,1,93,23,21,"STAR","TRIANGLE","PENTAGON","Stranger","Matching","Stranger","Stranger","Top","w",916.799282,0.916799282,1,1
1,1,94,23,21,"STAR","TRIANGLE","PENTAGON","P1","Matching","P1","P1","Bottom","w",716.791545,0.716791545,1,1
1,1,95,23,21,"STAR","TRIANGLE","PENTAGON","P2","Matching","P2","P2","Bottom","w",666.867482,0.666867482,1,1
1,1,96,23,21,"STAR","TRIANGLE","PENTAGON","P2","Nonmatching","P1","P2","Top","o",900.131346,0.900131346,1,1
1,1,97,23,21,"STAR","TRIANGLE","PENTAGON","P2","Matching","P2","P2","Bottom","w",1116.780175,1.116780175,1,1
1,1,98,23,21,"STAR","TRIANGLE","PENTAGON","Stranger","Nonmatching","P2","Stranger","Bottom","o",1283.438222,1.283438222,1,1
1,1,99,23,21,"STAR","TRIANGLE","PENTAGON","Stranger","Matching","Stranger","Stranger","Top","w",900.128977,0.900128977,1,1
1,1,100,23,21,"STAR","TRIANGLE","PENTAGON","P2","Nonmatching","Stranger","P2","Bottom","o",1217.140734,1.217140734,1,1
1,1,101,23,21,"STAR","TRIANGLE","PENTAGON","P1","Nonmatching","Stranger","P1","Bottom","o",766.833649,0.766833649,1,1
1,1,102,23,21,"STAR","TRIANGLE","PENTAGON","P1","Matching","P1","P1","Bottom","w",566.829464,0.566829464,1,1
1,1,103,23,21,"STAR","TRIANGLE","PENTAGON","Stranger","Matching","Stranger","Stranger","Bottom","w",900.130951,0.900130951,1,1
1,1,104,23,21,"STAR","TRIANGLE","PENTAGON","P1","Nonmatching","P2","P1","Top","o",1150.146447,1.150146447,1,1
1,1,105,23,21,"STAR","TRIANGLE","PENTAGON","Stranger","Nonmatching","P1","Stranger","Bottom","None",NA,NA,3,1
1,1,106,23,21,"STAR","TRIANGLE","PENTAGON","P2","Matching","P2","P2","Top","w",850.457184,0.850457184,1,1
1,1,107,23,21,"STAR","TRIANGLE","PENTAGON","Stranger","Matching","Stranger","Stranger","Top","w",666.829188,0.666829188,1,1
1,1,108,23,21,"STAR","TRIANGLE","PENTAGON","P2","Matching","P2","P2","Bottom","w",667.129226,0.667129226,1,1
1,1,109,23,21,"STAR","TRIANGLE","PENTAGON","Stranger","Nonmatching","P1","Stranger","Top","o",983.435893,0.983435893,1,1
1,1,110,23,21,"STAR","TRIANGLE","PENTAGON","P1","Matching","P1","P1","Top","w",616.855382,0.616855382,1,1
1,1,111,23,21,"STAR","TRIANGLE","PENTAGON","P1","Nonmatching","Stranger","P1","Bottom","None",NA,NA,3,1
1,1,112,23,21,"STAR","TRIANGLE","PENTAGON","P2","Matching","P2","P2","Top","w",633.47397,0.63347397,1,1
1,1,113,23,21,"STAR","TRIANGLE","PENTAGON","P1","Nonmatching","Stranger","P1","Bottom","o",916.790597,0.916790597,1,1
1,1,114,23,21,"STAR","TRIANGLE","PENTAGON","Stranger","Matching","Stranger","Stranger","Bottom","w",783.531589,0.783531589,1,1
1,1,115,23,21,"STAR","TRIANGLE","PENTAGON","P1","Matching","P1","P1","Top","w",683.469094,0.683469094,1,1
1,1,116,23,21,"STAR","TRIANGLE","PENTAGON","Stranger","Nonmatching","P1","Stranger","Bottom","o",750.125049,0.750125049,1,1
1,1,117,23,21,"STAR","TRIANGLE","PENTAGON","Stranger","Nonmatching","P1","Stranger","Bottom","o",1033.455889,1.033455889,1,1
1,1,118,23,21,"STAR","TRIANGLE","PENTAGON","P1","Nonmatching","Stranger","P1","Top","None",NA,NA,3,1
1,1,119,23,21,"STAR","TRIANGLE","PENTAGON","Stranger","Nonmatching","P1","Stranger","Top","None",NA,NA,3,1
1,1,120,23,21,"STAR","TRIANGLE","PENTAGON","P2","Matching","P2","P2","Bottom","w",550.187978,0.550187978,1,1
1,2,1,23,21,"STAR","TRIANGLE","PENTAGON","P2","Nonmatching","P1","P2","Bottom","o",1083.446276,1.083446276,1,1
1,2,2,23,21,"STAR","TRIANGLE","PENTAGON","P2","Matching","P2","P2","Top","w",650.192439,0.650192439,1,1
1,2,3,23,21,"STAR","TRIANGLE","PENTAGON","P1","Nonmatching","Stranger","P1","Top","o",833.492762,0.833492762,1,1
1,2,4,23,21,"STAR","TRIANGLE","PENTAGON","P2","Matching","P2","P2","Bottom","w",650.251657,0.650251657,1,1
1,2,5,23,21,"STAR","TRIANGLE","PENTAGON","Stranger","Nonmatching","P1","Stranger","Bottom","o",833.495131,0.833495131,1,1
1,2,6,23,21,"STAR","TRIANGLE","PENTAGON","P1","Matching","P1","P1","Top","w",500.448676,0.500448676,1,1
1,2,7,23,21,"STAR","TRIANGLE","PENTAGON","P2","Nonmatching","Stranger","P2","Top","o",783.526062,0.783526062,1,1
1,2,8,23,21,"STAR","TRIANGLE","PENTAGON","P2","Nonmatching","Stranger","P2","Top","o",849.96291,0.84996291,1,1
1,2,9,23,21,"STAR","TRIANGLE","PENTAGON","Stranger","Matching","Stranger","Stranger","Bottom","w",616.841564,0.616841564,1,1
1,2,10,23,21,"STAR","TRIANGLE","PENTAGON","P2","Matching","P2","P2","Top","w",600.143624,0.600143624,1,1
1,2,11,23,21,"STAR","TRIANGLE","PENTAGON","P2","Nonmatching","Stranger","P2","Bottom","o",900.181484,0.900181484,1,1
1,2,12,23,21,"STAR","TRIANGLE","PENTAGON","P2","Matching","P2","P2","Bottom","w",550.192716,0.550192716,1,1
1,2,13,23,21,"STAR","TRIANGLE","PENTAGON","Stranger","Matching","Stranger","Stranger","Bottom","w",750.182688,0.750182688,1,1
1,2,14,23,21,"STAR","TRIANGLE","PENTAGON","Stranger","Nonmatching","P2","Stranger","Bottom","o",967.112606,0.967112606,1,1
1,2,15,23,21,"STAR","TRIANGLE","PENTAGON","P2","Matching","P2","P2","Top","w",633.509501,0.633509501,1,1
1,2,16,23,21,"STAR","TRIANGLE","PENTAGON","P1","Nonmatching","Stranger","P1","Bottom","o",1266.770285,1.266770285,1,1
1,2,17,23,21,"STAR","TRIANGLE","PENTAGON","Stranger","Matching","Stranger","Stranger","Bottom","w",966.89942,0.96689942,1,1
1,2,18,23,21,"STAR","TRIANGLE","PENTAGON","Stranger","Nonmatching","P2","Stranger","Bottom","o",783.574621,0.783574621,1,1
1,2,19,23,21,"STAR","TRIANGLE","PENTAGON","Stranger","Nonmatching","P1","Stranger","Top","o",683.474226,0.683474226,1,1
1,2,20,23,21,"STAR","TRIANGLE","PENTAGON","Stranger","Matching","Stranger","Stranger","Bottom","w",833.479339,0.833479339,1,1
1,2,21,23,21,"STAR","TRIANGLE","PENTAGON","P1","Matching","P1","P1","Bottom","w",583.465818,0.583465818,1,1
1,2,22,23,21,"STAR","TRIANGLE","PENTAGON","P1","Matching","P1","P1","Bottom","w",667.120541,0.667120541,1,1
1,2,23,23,21,"STAR","TRIANGLE","PENTAGON","P1","Nonmatching","P2","P1","Top","o",700.113344,0.700113344,1,1
1,2,24,23,21,"STAR","TRIANGLE","PENTAGON","P2","Nonmatching","Stranger","P2","Bottom","o",916.822575,0.916822575,1,1
1,2,25,23,21,"STAR","TRIANGLE","PENTAGON","Stranger","Matching","Stranger","Stranger","Bottom","w",650.157698,0.650157698,1,1
1,2,26,23,21,"STAR","TRIANGLE","PENTAGON","P1","Matching","P1","P1","Top","w",1050.147512,1.050147512,1,1
1,2,27,23,21,"STAR","TRIANGLE","PENTAGON","P1","Matching","P1","P1","Top","w",700.137426,0.700137426,1,1
1,2,28,23,21,"STAR","TRIANGLE","PENTAGON","P2","Matching","P2","P2","Top","w",550.144157,0.550144157,1,1
1,2,29,23,21,"STAR","TRIANGLE","PENTAGON","P1","Matching","P1","P1","Top","o",833.471443,0.833471443,0,1
1,2,30,23,21,"STAR","TRIANGLE","PENTAGON","Stranger","Nonmatching","P1","Stranger","Top","o",1000.179234,1.000179234,1,1
1,2,31,23,21,"STAR","TRIANGLE","PENTAGON","Stranger","Nonmatching","P2","Stranger","Top","o",1133.43232,1.13343232,1,1
1,2,32,23,21,"STAR","TRIANGLE","PENTAGON","Stranger","Nonmatching","P1","Stranger","Bottom","o",750.132155,0.750132155,1,1
1,2,33,23,21,"STAR","TRIANGLE","PENTAGON","P1","Nonmatching","P2","P1","Bottom","None",NA,NA,3,1
1,2,34,23,21,"STAR","TRIANGLE","PENTAGON","P1","Matching","P1","P1","Bottom","w",750.161369,0.750161369,1,1
1,2,35,23,21,"STAR","TRIANGLE","PENTAGON","Stranger","Nonmatching","P1","Stranger","Top","o",783.490136,0.783490136,1,1
1,2,36,23,21,"STAR","TRIANGLE","PENTAGON","P2","Matching","P2","P2","Bottom","w",550.193505,0.550193505,1,1
1,2,37,23,21,"STAR","TRIANGLE","PENTAGON","P2","Matching","P2","P2","Top","w",650.127694,0.650127694,1,1
1,2,38,23,21,"STAR","TRIANGLE","PENTAGON","P2","Matching","P2","P2","Bottom","w",533.543729,0.533543729,1,1
1,2,39,23,21,"STAR","TRIANGLE","PENTAGON","Stranger","Matching","Stranger","Stranger","Top","w",616.900782,0.616900782,1,1
1,2,40,23,21,"STAR","TRIANGLE","PENTAGON","Stranger","Nonmatching","P2","Stranger","Top","o",866.785998,0.866785998,1,1
1,2,41,23,21,"STAR","TRIANGLE","PENTAGON","P1","Nonmatching","P2","P1","Bottom","o",966.790459,0.966790459,1,1
1,2,42,23,21,"STAR","TRIANGLE","PENTAGON","P1","Matching","P1","P1","Bottom","w",483.472805,0.483472805,1,1
1,2,43,23,21,"STAR","TRIANGLE","PENTAGON","P2","Matching","P2","P2","Bottom","w",566.846835,0.566846835,1,1
1,2,44,23,21,"STAR","TRIANGLE","PENTAGON","Stranger","Nonmatching","P2","Stranger","Top","o",650.147828,0.650147828,1,1
1,2,45,23,21,"STAR","TRIANGLE","PENTAGON","P1","Nonmatching","Stranger","P1","Top","o",1050.108034,1.050108034,1,1
1,2,46,23,21,"STAR","TRIANGLE","PENTAGON","P2","Matching","P2","P2","Top","w",850.06437,0.85006437,1,1
1,2,47,23,21,"STAR","TRIANGLE","PENTAGON","P1","Matching","P1","P1","Bottom","w",650.179016,0.650179016,1,1
1,2,48,23,21,"STAR","TRIANGLE","PENTAGON","P1","Matching","P1","P1","Top","w",633.498447,0.633498447,1,1
1,2,49,23,21,"STAR","TRIANGLE","PENTAGON","Stranger","Matching","Stranger","Stranger","Top","w",516.966593,0.516966593,1,1
1,2,50,23,21,"STAR","TRIANGLE","PENTAGON","P2","Nonmatching","Stranger","P2","Bottom","o",800.150967,0.800150967,1,1
1,2,51,23,21,"STAR","TRIANGLE","PENTAGON","Stranger","Nonmatching","P1","Stranger","Bottom","o",1000.150809,1.000150809,1,1
1,2,52,23,21,"STAR","TRIANGLE","PENTAGON","P2","Nonmatching","P1","P2","Top","o",733.464219,0.733464219,1,1
1,2,53,23,21,"STAR","TRIANGLE","PENTAGON","P2","Nonmatching","P1","P2","Bottom","o",900.170825,0.900170825,1,1
1,2,54,23,21,"STAR","TRIANGLE","PENTAGON","P2","Matching","P2","P2","Bottom","w",650.176253,0.650176253,1,1
1,2,55,23,21,"STAR","TRIANGLE","PENTAGON","P1","Nonmatching","Stranger","P1","Top","o",850.092795,0.850092795,1,1
1,2,56,23,21,"STAR","TRIANGLE","PENTAGON","P1","Nonmatching","P2","P1","Top","o",1133.482063,1.133482063,1,1
1,2,57,23,21,"STAR","TRIANGLE","PENTAGON","P2","Nonmatching","P1","P2","Top","o",800.221239,0.800221239,1,1
1,2,58,23,21,"STAR","TRIANGLE","PENTAGON","P1","Matching","P1","P1","Bottom","w",533.538597,0.533538597,1,1
1,2,59,23,21,"STAR","TRIANGLE","PENTAGON","P1","Matching","P1","P1","Top","w",633.511475,0.633511475,1,1
1,2,60,23,21,"STAR","TRIANGLE","PENTAGON","P2","Nonmatching","P1","P2","Top","o",816.8722,0.8168722,1,1
1,2,61,23,21,"STAR","TRIANGLE","PENTAGON","Stranger","Matching","Stranger","Stranger","Bottom","w",716.859053,0.716859053,1,1
1,2,62,23,21,"STAR","TRIANGLE","PENTAGON","P1","Nonmatching","P2","P1","Bottom","o",833.476575,0.833476575,1,1
1,2,63,23,21,"STAR","TRIANGLE","PENTAGON","Stranger","Matching","Stranger","Stranger","Top","w",816.78811,0.81678811,1,1
1,2,64,23,21,"STAR","TRIANGLE","PENTAGON","P2","Nonmatching","P1","P2","Bottom","o",1183.44521,1.18344521,1,1
1,2,65,23,21,"STAR","TRIANGLE","PENTAGON","P1","Nonmatching","Stranger","P1","Bottom","o",833.470654,0.833470654,1,1
1,2,66,23,21,"STAR","TRIANGLE","PENTAGON","P1","Nonmatching","P2","P1","Bottom","o",800.156494,0.800156494,1,1
1,2,67,23,21,"STAR","TRIANGLE","PENTAGON","Stranger","Matching","Stranger","Stranger","Bottom","w",566.881576,0.566881576,1,1
1,2,68,23,21,"STAR","TRIANGLE","PENTAGON","Stranger","Nonmatching","P1","Stranger","Bottom","o",800.178602,0.800178602,1,1
1,2,69,23,21,"STAR","TRIANGLE","PENTAGON","Stranger","Matching","Stranger","Stranger","Top","w",1250.1363,1.2501363,1,1
1,2,70,23,21,"STAR","TRIANGLE","PENTAGON","P1","Nonmatching","Stranger","P1","Bottom","o",983.746591,0.983746591,1,1
1,2,71,23,21,"STAR","TRIANGLE","PENTAGON","P2","Nonmatching","Stranger","P2","Top","o",1100.119344,1.100119344,1,1
1,2,72,23,21,"STAR","TRIANGLE","PENTAGON","Stranger","Nonmatching","P1","Stranger","Top","o",1050.224891,1.050224891,1,1
1,2,73,23,21,"STAR","TRIANGLE","PENTAGON","Stranger","Matching","Stranger","Stranger","Bottom","w",616.8313,0.6168313,1,1
1,2,74,23,21,"STAR","TRIANGLE","PENTAGON","Stranger","Nonmatching","P2","Stranger","Bottom","o",783.477108,0.783477108,1,1
1,2,75,23,21,"STAR","TRIANGLE","PENTAGON","P2","Nonmatching","Stranger","P2","Bottom","o",850.155961,0.850155961,1,1
1,2,76,23,21,"STAR","TRIANGLE","PENTAGON","P2","Nonmatching","Stranger","P2","Top","o",966.809409,0.966809409,1,1
1,2,77,23,21,"STAR","TRIANGLE","PENTAGON","P1","Nonmatching","P2","P1","Bottom","None",NA,NA,3,1
1,2,78,23,21,"STAR","TRIANGLE","PENTAGON","P1","Nonmatching","P2","P1","Top","o",833.440255,0.833440255,1,1
1,2,79,23,21,"STAR","TRIANGLE","PENTAGON","P2","Matching","P2","P2","Top","w",666.810633,0.666810633,1,1
1,2,80,23,21,"STAR","TRIANGLE","PENTAGON","P1","Matching","P1","P1","Bottom","w",433.472943,0.433472943,1,1
1,2,81,23,21,"STAR","TRIANGLE","PENTAGON","P2","Matching","P2","P2","Top","w",633.478313,0.633478313,1,1
1,2,82,23,21,"STAR","TRIANGLE","PENTAGON","P1","Matching","P1","P1","Top","w",550.196269,0.550196269,1,1
1,2,83,23,21,"STAR","TRIANGLE","PENTAGON","P2","Nonmatching","Stranger","P2","Bottom","o",950.11818,0.95011818,1,1
1,2,84,23,21,"STAR","TRIANGLE","PENTAGON","Stranger","Matching","Stranger","Stranger","Bottom","w",683.469489,0.683469489,1,1
1,2,85,23,21,"STAR","TRIANGLE","PENTAGON","Stranger","Nonmatching","P1","Stranger","Bottom","o",816.805875,0.816805875,1,1
1,2,86,23,21,"STAR","TRIANGLE","PENTAGON","P2","Nonmatching","P1","P2","Bottom","o",933.450243,0.933450243,1,1
1,2,87,23,21,"STAR","TRIANGLE","PENTAGON","P2","Matching","P2","P2","Top","w",716.767068,0.716767068,1,1
1,2,88,23,21,"STAR","TRIANGLE","PENTAGON","Stranger","Nonmatching","P2","Stranger","Bottom","o",966.860336,0.966860336,1,1
1,2,89,23,21,"STAR","TRIANGLE","PENTAGON","P2","Matching","P2","P2","Bottom","w",1066.824924,1.066824924,1,1
1,2,90,23,21,"STAR","TRIANGLE","PENTAGON","P1","Nonmatching","Stranger","P1","Top","o",1066.827293,1.066827293,1,1
1,2,91,23,21,"STAR","TRIANGLE","PENTAGON","P2","Matching","P2","P2","Top","w",600.078089,0.600078089,1,1
1,2,92,23,21,"STAR","TRIANGLE","PENTAGON","Stranger","Matching","Stranger","Stranger","Top","w",733.54594,0.73354594,1,1
1,2,93,23,21,"STAR","TRIANGLE","PENTAGON","Stranger","Nonmatching","P1","Stranger","Top","o",966.793617,0.966793617,1,1
1,2,94,23,21,"STAR","TRIANGLE","PENTAGON","P1","Nonmatching","P2","P1","Top","o",1366.822121,1.366822121,1,1
1,2,95,23,21,"STAR","TRIANGLE","PENTAGON","Stranger","Matching","Stranger","Stranger","Bottom","w",700.125582,0.700125582,1,1
1,2,96,23,21,"STAR","TRIANGLE","PENTAGON","P1","Matching","P1","P1","Bottom","w",633.468443,0.633468443,1,1
1,2,97,23,21,"STAR","TRIANGLE","PENTAGON","Stranger","Nonmatching","P2","Stranger","Top","o",766.828122,0.766828122,1,1
1,2,98,23,21,"STAR","TRIANGLE","PENTAGON","P2","Nonmatching","Stranger","P2","Top","o",1033.500894,1.033500894,1,1
1,2,99,23,21,"STAR","TRIANGLE","PENTAGON","Stranger","Matching","Stranger","Stranger","Top","w",750.13255,0.75013255,1,1
1,2,100,23,21,"STAR","TRIANGLE","PENTAGON","Stranger","Matching","Stranger","Stranger","Top","w",566.799065,0.566799065,1,1
1,2,101,23,21,"STAR","TRIANGLE","PENTAGON","Stranger","Nonmatching","P2","Stranger","Top","o",866.826661,0.866826661,1,1
1,2,102,23,21,"STAR","TRIANGLE","PENTAGON","P1","Matching","P1","P1","Top","w",566.893814,0.566893814,1,1
1,2,103,23,21,"STAR","TRIANGLE","PENTAGON","P1","Matching","P1","P1","Bottom","w",666.820502,0.666820502,1,1
1,2,104,23,21,"STAR","TRIANGLE","PENTAGON","P2","Matching","P2","P2","Bottom","w",766.824569,0.766824569,1,1
1,2,105,23,21,"STAR","TRIANGLE","PENTAGON","P1","Matching","P1","P1","Top","w",583.5353,0.5835353,1,1
1,2,106,23,21,"STAR","TRIANGLE","PENTAGON","Stranger","Matching","Stranger","Stranger","Top","w",933.892405,0.933892405,1,1
1,2,107,23,21,"STAR","TRIANGLE","PENTAGON","Stranger","Nonmatching","P2","Stranger","Bottom","o",883.514337,0.883514337,1,1
1,2,108,23,21,"STAR","TRIANGLE","PENTAGON","P1","Nonmatching","Stranger","P1","Bottom","o",900.122661,0.900122661,1,1
1,2,109,23,21,"STAR","TRIANGLE","PENTAGON","P1","Matching","P1","P1","Top","w",583.502138,0.583502138,1,1
1,2,110,23,21,"STAR","TRIANGLE","PENTAGON","P1","Nonmatching","Stranger","P1","Bottom","o",933.475904,0.933475904,1,1
1,2,111,23,21,"STAR","TRIANGLE","PENTAGON","Stranger","Matching","Stranger","Stranger","Top","w",750.130181,0.750130181,1,1
1,2,112,23,21,"STAR","TRIANGLE","PENTAGON","P1","Nonmatching","P2","P1","Top","o",983.467081,0.983467081,1,1
1,2,113,23,21,"STAR","TRIANGLE","PENTAGON","Stranger","Matching","Stranger","Stranger","Top","w",600.129411,0.600129411,1,1
1,2,114,23,21,"STAR","TRIANGLE","PENTAGON","P2","Matching","P2","P2","Bottom","w",683.497519,0.683497519,1,1
1,2,115,23,21,"STAR","TRIANGLE","PENTAGON","P2","Nonmatching","P1","P2","Top","o",1133.477326,1.133477326,1,1
1,2,116,23,21,"STAR","TRIANGLE","PENTAGON","P1","Matching","P1","P1","Bottom","w",650.161646,0.650161646,1,1
1,2,117,23,21,"STAR","TRIANGLE","PENTAGON","P1","Nonmatching","Stranger","P1","Top","o",733.885062,0.733885062,1,1
1,2,118,23,21,"STAR","TRIANGLE","PENTAGON","P2","Nonmatching","P1","P2","Bottom","o",1200.038926,1.200038926,1,1
1,2,119,23,21,"STAR","TRIANGLE","PENTAGON","P2","Nonmatching","P1","P2","Top","o",750.120706,0.750120706,1,1
1,2,120,23,21,"STAR","TRIANGLE","PENTAGON","P2","Matching","P2","P2","Bottom","o",716.861817,0.716861817,0,1
1,3,1,23,21,"TRIANGLE","PENTAGON","STAR","Stranger","Nonmatching","P2","Stranger","Top","o",850.130694,0.850130694,1,2
1,3,2,23,21,"TRIANGLE","PENTAGON","STAR","P2","Nonmatching","Stranger","P2","Top","o",916.842709,0.916842709,1,2
1,3,3,23,21,"TRIANGLE","PENTAGON","STAR","P1","Matching","P1","P1","Bottom","w",666.867087,0.666867087,1,2
1,3,4,23,21,"TRIANGLE","PENTAGON","STAR","Stranger","Nonmatching","P1","Stranger","Top","o",883.509994,0.883509994,1,2
1,3,5,23,21,"TRIANGLE","PENTAGON","STAR","Stranger","Nonmatching","P2","Stranger","Bottom","o",716.838524,0.716838524,1,2
1,3,6,23,21,"TRIANGLE","PENTAGON","STAR","P1","Matching","P1","P1","Top","w",733.594104,0.733594104,1,2
1,3,7,23,21,"TRIANGLE","PENTAGON","STAR","P2","Matching","P2","P2","Top","w",683.50581,0.68350581,1,2
1,3,8,23,21,"TRIANGLE","PENTAGON","STAR","P1","Matching","P1","P1","Bottom","w",650.157303,0.650157303,1,2
1,3,9,23,21,"TRIANGLE","PENTAGON","STAR","P1","Matching","P1","P1","Bottom","w",516.815785,0.516815785,1,2
1,3,10,23,21,"TRIANGLE","PENTAGON","STAR","Stranger","Matching","Stranger","Stranger","Top","o",866.798631,0.866798631,0,2
1,3,11,23,21,"TRIANGLE","PENTAGON","STAR","Stranger","Matching","Stranger","Stranger","Bottom","w",466.812764,0.466812764,1,2
1,3,12,23,21,"TRIANGLE","PENTAGON","STAR","P2","Matching","P2","P2","Bottom","w",583.483188,0.583483188,1,2
1,3,13,23,21,"TRIANGLE","PENTAGON","STAR","P1","Matching","P1","P1","Bottom","w",533.474641,0.533474641,1,2
1,3,14,23,21,"TRIANGLE","PENTAGON","STAR","P2","Matching","P2","P2","Bottom","w",783.510665,0.783510665,1,2
1,3,15,23,21,"TRIANGLE","PENTAGON","STAR","Stranger","Nonmatching","P2","Stranger","Top","o",850.137801,0.850137801,1,2
1,3,16,23,21,"TRIANGLE","PENTAGON","STAR","P2","Matching","P2","P2","Bottom","w",533.468719,0.533468719,1,2
1,3,17,23,21,"TRIANGLE","PENTAGON","STAR","Stranger","Matching","Stranger","Stranger","Bottom","w",750.584187,0.750584187,1,2
1,3,18,23,21,"TRIANGLE","PENTAGON","STAR","P2","Nonmatching","P1","P2","Top","w",850.174121,0.850174121,0,2
1,3,19,23,21,"TRIANGLE","PENTAGON","STAR","P2","Nonmatching","P1","P2","Bottom","o",766.827332,0.766827332,1,2
1,3,20,23,21,"TRIANGLE","PENTAGON","STAR","P2","Nonmatching","Stranger","P2","Bottom","o",933.445111,0.933445111,1,2
1,3,21,23,21,"TRIANGLE","PENTAGON","STAR","P1","Nonmatching","P2","P1","Top","o",867.049321,0.867049321,1,2
1,3,22,23,21,"TRIANGLE","PENTAGON","STAR","P2","Matching","P2","P2","Top","w",1066.847427,1.066847427,1,2
1,3,23,23,21,"TRIANGLE","PENTAGON","STAR","P2","Nonmatching","Stranger","P2","Top","o",1000.123569,1.000123569,1,2
1,3,24,23,21,"TRIANGLE","PENTAGON","STAR","P2","Matching","P2","P2","Bottom","w",767.098156,0.767098156,1,2
1,3,25,23,21,"TRIANGLE","PENTAGON","STAR","P2","Matching","P2","P2","Top","w",583.455948,0.583455948,1,2
1,3,26,23,21,"TRIANGLE","PENTAGON","STAR","P1","Nonmatching","Stranger","P1","Bottom","o",1000.134623,1.000134623,1,2
1,3,27,23,21,"TRIANGLE","PENTAGON","STAR","Stranger","Nonmatching","P1","Stranger","Bottom","o",1200.101697,1.200101697,1,2
1,3,28,23,21,"TRIANGLE","PENTAGON","STAR","Stranger","Matching","Stranger","Stranger","Top","w",783.458553,0.783458553,1,2
1,3,29,23,21,"TRIANGLE","PENTAGON","STAR","P1","Nonmatching","P2","P1","Top","o",916.795729,0.916795729,1,2
1,3,30,23,21,"TRIANGLE","PENTAGON","STAR","Stranger","Nonmatching","P2","Stranger","Bottom","o",1000.12041,1.00012041,1,2
1,3,31,23,21,"TRIANGLE","PENTAGON","STAR","P1","Matching","P1","P1","Top","w",816.808639,0.816808639,1,2
1,3,32,23,21,"TRIANGLE","PENTAGON","STAR","Stranger","Nonmatching","P2","Stranger","Top","o",900.131346,0.900131346,1,2
1,3,33,23,21,"TRIANGLE","PENTAGON","STAR","P1","Matching","P1","P1","Bottom","w",833.473022,0.833473022,1,2
1,3,34,23,21,"TRIANGLE","PENTAGON","STAR","P2","Matching","P2","P2","Bottom","w",716.832603,0.716832603,1,2
1,3,35,23,21,"TRIANGLE","PENTAGON","STAR","P2","Matching","P2","P2","Top","w",850.202941,0.850202941,1,2
1,3,36,23,21,"TRIANGLE","PENTAGON","STAR","P1","Nonmatching","P2","P1","Bottom","o",850.167015,0.850167015,1,2
1,3,37,23,21,"TRIANGLE","PENTAGON","STAR","Stranger","Matching","Stranger","Stranger","Top","w",717.07974,0.71707974,1,2
1,3,38,23,21,"TRIANGLE","PENTAGON","STAR","P2","Matching","P2","P2","Bottom","w",666.798394,0.666798394,1,2
1,3,39,23,21,"TRIANGLE","PENTAGON","STAR","P2","Matching","P2","P2","Top","w",666.866692,0.666866692,1,2
1,3,40,23,21,"TRIANGLE","PENTAGON","STAR","Stranger","Nonmatching","P1","Stranger","Top","o",1466.798947,1.466798947,1,2
1,3,41,23,21,"TRIANGLE","PENTAGON","STAR","P1","Nonmatching","Stranger","P1","Bottom","o",1100.151322,1.100151322,1,2
1,3,42,23,21,"TRIANGLE","PENTAGON","STAR","P2","Nonmatching","Stranger","P2","Top","o",933.485774,0.933485774,1,2
1,3,43,23,21,"TRIANGLE","PENTAGON","STAR","Stranger","Matching","Stranger","Stranger","Bottom","w",583.80494,0.58380494,1,2
1,3,44,23,21,"TRIANGLE","PENTAGON","STAR","P1","Nonmatching","Stranger","P1","Top","o",1000.141729,1.000141729,1,2
1,3,45,23,21,"TRIANGLE","PENTAGON","STAR","P2","Nonmatching","P1","P2","Bottom","o",733.487116,0.733487116,1,2
1,3,46,23,21,"TRIANGLE","PENTAGON","STAR","P2","Matching","P2","P2","Bottom","w",767.099341,0.767099341,1,2
1,3,47,23,21,"TRIANGLE","PENTAGON","STAR","Stranger","Matching","Stranger","Stranger","Top","w",1016.83888,1.01683888,1,2
1,3,48,23,21,"TRIANGLE","PENTAGON","STAR","Stranger","Matching","Stranger","Stranger","Bottom","w",550.169028,0.550169028,1,2
1,3,49,23,21,"TRIANGLE","PENTAGON","STAR","P2","Nonmatching","Stranger","P2","Bottom","o",717.034734,0.717034734,1,2
1,3,50,23,21,"TRIANGLE","PENTAGON","STAR","P1","Nonmatching","P2","P1","Bottom","o",983.470634,0.983470634,1,2
1,3,51,23,21,"TRIANGLE","PENTAGON","STAR","Stranger","Matching","Stranger","Stranger","Bottom","w",1116.765173,1.116765173,1,2
1,3,52,23,21,"TRIANGLE","PENTAGON","STAR","P1","Nonmatching","Stranger","P1","Bottom","o",733.457902,0.733457902,1,2
1,3,53,23,21,"TRIANGLE","PENTAGON","STAR","Stranger","Matching","Stranger","Stranger","Bottom","w",550.12876,0.55012876,1,2
1,3,54,23,21,"TRIANGLE","PENTAGON","STAR","P1","Nonmatching","Stranger","P1","Top","o",866.80929,0.86680929,1,2
1,3,55,23,21,"TRIANGLE","PENTAGON","STAR","P2","Nonmatching","Stranger","P2","Top","o",1250.170647,1.250170647,1,2
1,3,56,23,21,"TRIANGLE","PENTAGON","STAR","P1","Matching","P1","P1","Bottom","w",583.529773,0.583529773,1,2
1,3,57,23,21,"TRIANGLE","PENTAGON","STAR","P1","Nonmatching","P2","P1","Bottom","o",800.416659,0.800416659,1,2
1,3,58,23,21,"TRIANGLE","PENTAGON","STAR","Stranger","Matching","Stranger","Stranger","Top","w",816.882859,0.816882859,1,2
1,3,59,23,21,"TRIANGLE","PENTAGON","STAR","Stranger","Nonmatching","P1","Stranger","Bottom","o",1233.470733,1.233470733,1,2
1,3,60,23,21,"TRIANGLE","PENTAGON","STAR","P1","Nonmatching","Stranger","P1","Top","o",1083.458119,1.083458119,1,2
1,3,61,23,21,"TRIANGLE","PENTAGON","STAR","P1","Nonmatching","Stranger","P1","Top","o",1016.779267,1.016779267,1,2
1,3,62,23,21,"TRIANGLE","PENTAGON","STAR","P1","Matching","P1","P1","Top","w",967.074706,0.967074706,1,2
1,3,63,23,21,"TRIANGLE","PENTAGON","STAR","P2","Nonmatching","Stranger","P2","Bottom","o",766.788248,0.766788248,1,2
1,3,64,23,21,"TRIANGLE","PENTAGON","STAR","P1","Matching","P1","P1","Top","w",750.072147,0.750072147,1,2
1,3,65,23,21,"TRIANGLE","PENTAGON","STAR","P2","Nonmatching","P1","P2","Top","o",783.497637,0.783497637,1,2
1,3,66,23,21,"TRIANGLE","PENTAGON","STAR","P2","Matching","P2","P2","Bottom","w",700.160323,0.700160323,1,2
1,3,67,23,21,"TRIANGLE","PENTAGON","STAR","P1","Matching","P1","P1","Top","w",616.84038,0.61684038,1,2
1,3,68,23,21,"TRIANGLE","PENTAGON","STAR","Stranger","Nonmatching","P1","Stranger","Top","o",900.128977,0.900128977,1,2
1,3,69,23,21,"TRIANGLE","PENTAGON","STAR","Stranger","Matching","Stranger","Stranger","Top","w",883.526575,0.883526575,1,2
1,3,70,23,21,"TRIANGLE","PENTAGON","STAR","P2","Nonmatching","P1","P2","Bottom","o",766.826543,0.766826543,1,2
1,3,71,23,21,"TRIANGLE","PENTAGON","STAR","P2","Nonmatching","Stranger","P2","Top","w",683.472647,0.683472647,0,2
1,3,72,23,21,"TRIANGLE","PENTAGON","STAR","Stranger","Matching","Stranger","Stranger","Bottom","w",766.809961,0.766809961,1,2
1,3,73,23,21,"TRIANGLE","PENTAGON","STAR","P1","Nonmatching","P2","P1","Bottom","o",883.489071,0.883489071,1,2
1,3,74,23,21,"TRIANGLE","PENTAGON","STAR","P2","Nonmatching","P1","P2","Top","o",1116.823601,1.116823601,1,2
1,3,75,23,21,"TRIANGLE","PENTAGON","STAR","Stranger","Nonmatching","P2","Stranger","Bottom","o",850.543642,0.850543642,1,2
1,3,76,23,21,"TRIANGLE","PENTAGON","STAR","P1","Nonmatching","Stranger","P1","Bottom","None",NA,NA,3,2
1,3,77,23,21,"TRIANGLE","PENTAGON","STAR","Stranger","Nonmatching","P1","Stranger","Top","w",800.142281,0.800142281,0,2
1,3,78,23,21,"TRIANGLE","PENTAGON","STAR","Stranger","Matching","Stranger","Stranger","Top","w",983.588675,0.983588675,1,2
1,3,79,23,21,"TRIANGLE","PENTAGON","STAR","P1","Matching","P1","P1","Bottom","w",666.892748,0.666892748,1,2
1,3,80,23,21,"TRIANGLE","PENTAGON","STAR","P1","Matching","P1","P1","Bottom","w",600.166521,0.600166521,1,2
1,3,81,23,21,"TRIANGLE","PENTAGON","STAR","P2","Nonmatching","P1","P2","Bottom","o",733.496986,0.733496986,1,2
1,3,82,23,21,"TRIANGLE","PENTAGON","STAR","P2","Matching","P2","P2","Top","w",800.182155,0.800182155,1,2
1,3,83,23,21,"TRIANGLE","PENTAGON","STAR","P1","Nonmatching","P2","P1","Top","o",850.162672,0.850162672,1,2
1,3,84,23,21,"TRIANGLE","PENTAGON","STAR","P1","Matching","P1","P1","Bottom","w",750.556157,0.750556157,1,2
1,3,85,23,21,"TRIANGLE","PENTAGON","STAR","Stranger","Nonmatching","P1","Stranger","Bottom","o",866.81008,0.86681008,1,2
1,3,86,23,21,"TRIANGLE","PENTAGON","STAR","Stranger","Nonmatching","P2","Stranger","Bottom","o",966.823621,0.966823621,1,2
1,3,87,23,21,"TRIANGLE","PENTAGON","STAR","P2","Nonmatching","P1","P2","Top","o",900.040939,0.900040939,1,2
1,3,88,23,21,"TRIANGLE","PENTAGON","STAR","Stranger","Matching","Stranger","Stranger","Bottom","w",716.844051,0.716844051,1,2
1,3,89,23,21,"TRIANGLE","PENTAGON","STAR","P2","Nonmatching","P1","P2","Top","o",900.128977,0.900128977,1,2
1,3,90,23,21,"TRIANGLE","PENTAGON","STAR","P2","Matching","P2","P2","Top","w",1216.768055,1.216768055,1,2
1,3,91,23,21,"TRIANGLE","PENTAGON","STAR","Stranger","Matching","Stranger","Stranger","Bottom","w",800.192025,0.800192025,1,2
1,3,92,23,21,"TRIANGLE","PENTAGON","STAR","Stranger","Nonmatching","P1","Stranger","Bottom","o",716.849184,0.716849184,1,2
1,3,93,23,21,"TRIANGLE","PENTAGON","STAR","P1","Matching","P1","P1","Bottom","w",567.29176,0.56729176,1,2
1,3,94,23,21,"TRIANGLE","PENTAGON","STAR","Stranger","Nonmatching","P1","Stranger","Top","o",1066.851375,1.066851375,1,2
1,3,95,23,21,"TRIANGLE","PENTAGON","STAR","P2","Matching","P2","P2","Bottom","w",716.808915,0.716808915,1,2
1,3,96,23,21,"TRIANGLE","PENTAGON","STAR","Stranger","Matching","Stranger","Stranger","Bottom","w",800.207816,0.800207816,1,2
1,3,97,23,21,"TRIANGLE","PENTAGON","STAR","P2","Nonmatching","Stranger","P2","Bottom","o",833.488024,0.833488024,1,2
1,3,98,23,21,"TRIANGLE","PENTAGON","STAR","P2","Nonmatching","Stranger","P2","Bottom","o",1183.549039,1.183549039,1,2
1,3,99,23,21,"TRIANGLE","PENTAGON","STAR","P1","Matching","P1","P1","Top","w",600.160205,0.600160205,1,2
1,3,100,23,21,"TRIANGLE","PENTAGON","STAR","Stranger","Matching","Stranger","Stranger","Top","w",866.783629,0.866783629,1,2
1,3,101,23,21,"TRIANGLE","PENTAGON","STAR","P2","Matching","P2","P2","Top","w",866.851533,0.866851533,1,2
1,3,102,23,21,"TRIANGLE","PENTAGON","STAR","P1","Nonmatching","Stranger","P1","Top","o",1150.137761,1.150137761,1,2
1,3,103,23,21,"TRIANGLE","PENTAGON","STAR","Stranger","Matching","Stranger","Stranger","Top","w",617.079226,0.617079226,1,2
1,3,104,23,21,"TRIANGLE","PENTAGON","STAR","Stranger","Matching","Stranger","Stranger","Top","w",666.850111,0.666850111,1,2
1,3,105,23,21,"TRIANGLE","PENTAGON","STAR","P2","Nonmatching","P1","P2","Bottom","o",1450.1697,1.4501697,1,2
1,3,106,23,21,"TRIANGLE","PENTAGON","STAR","P1","Nonmatching","P2","P1","Bottom","o",883.537235,0.883537235,1,2
1,3,107,23,21,"TRIANGLE","PENTAGON","STAR","Stranger","Nonmatching","P1","Stranger","Bottom","w",616.814324,0.616814324,0,2
1,3,108,23,21,"TRIANGLE","PENTAGON","STAR","P2","Matching","P2","P2","Bottom","w",783.497243,0.783497243,1,2
1,3,109,23,21,"TRIANGLE","PENTAGON","STAR","Stranger","Nonmatching","P2","Stranger","Top","o",1016.81914,1.01681914,1,2
1,3,110,23,21,"TRIANGLE","PENTAGON","STAR","Stranger","Nonmatching","P2","Stranger","Top","o",716.835761,0.716835761,1,2
1,3,111,23,21,"TRIANGLE","PENTAGON","STAR","P1","Nonmatching","P2","P1","Top","o",900.148717,0.900148717,1,2
1,3,112,23,21,"TRIANGLE","PENTAGON","STAR","P1","Matching","P1","P1","Top","w",716.823522,0.716823522,1,2
1,3,113,23,21,"TRIANGLE","PENTAGON","STAR","P1","Nonmatching","P2","P1","Top","o",1050.121851,1.050121851,1,2
1,3,114,23,21,"TRIANGLE","PENTAGON","STAR","P1","Matching","P1","P1","Top","w",733.765047,0.733765047,1,2
1,3,115,23,21,"TRIANGLE","PENTAGON","STAR","P1","Nonmatching","Stranger","P1","Bottom","o",916.788228,0.916788228,1,2
1,3,116,23,21,"TRIANGLE","PENTAGON","STAR","P2","Matching","P2","P2","Top","w",900.155428,0.900155428,1,2
1,3,117,23,21,"TRIANGLE","PENTAGON","STAR","P2","Matching","P2","P2","Top","w",633.451072,0.633451072,1,2
1,3,118,23,21,"TRIANGLE","PENTAGON","STAR","P1","Matching","P1","P1","Top","w",650.147828,0.650147828,1,2
1,3,119,23,21,"TRIANGLE","PENTAGON","STAR","P1","Matching","P1","P1","Top","w",550.142183,0.550142183,1,2
1,3,120,23,21,"TRIANGLE","PENTAGON","STAR","Stranger","Nonmatching","P2","Stranger","Bottom","o",816.790084,0.816790084,1,2
1,4,1,23,21,"TRIANGLE","PENTAGON","STAR","P2","Nonmatching","P1","P2","Bottom","o",1283.478885,1.283478885,1,2
1,4,2,23,21,"TRIANGLE","PENTAGON","STAR","Stranger","Matching","Stranger","Stranger","Bottom","w",883.454724,0.883454724,1,2
1,4,3,23,21,"TRIANGLE","PENTAGON","STAR","P1","Matching","P1","P1","Bottom","w",750.16058,0.75016058,1,2
1,4,4,23,21,"TRIANGLE","PENTAGON","STAR","Stranger","Nonmatching","P1","Stranger","Bottom","o",850.093979,0.850093979,1,2
1,4,5,23,21,"TRIANGLE","PENTAGON","STAR","Stranger","Matching","Stranger","Stranger","Top","w",950.1545,0.9501545,1,2
1,4,6,23,21,"TRIANGLE","PENTAGON","STAR","P2","Nonmatching","Stranger","P2","Bottom","o",800.385076,0.800385076,1,2
1,4,7,23,21,"TRIANGLE","PENTAGON","STAR","Stranger","Nonmatching","P2","Stranger","Bottom","o",1033.471285,1.033471285,1,2
1,4,8,23,21,"TRIANGLE","PENTAGON","STAR","Stranger","Matching","Stranger","Stranger","Top","w",600.185076,0.600185076,1,2
1,4,9,23,21,"TRIANGLE","PENTAGON","STAR","P1","Nonmatching","Stranger","P1","Top","o",966.829148,0.966829148,1,2
1,4,10,23,21,"TRIANGLE","PENTAGON","STAR","Stranger","Matching","Stranger","Stranger","Bottom","w",1017.089965,1.017089965,1,2
1,4,11,23,21,"TRIANGLE","PENTAGON","STAR","P1","Matching","P1","P1","Bottom","w",617.140418,0.617140418,1,2
1,4,12,23,21,"TRIANGLE","PENTAGON","STAR","Stranger","Nonmatching","P1","Stranger","Top","o",750.124654,0.750124654,1,2
1,4,13,23,21,"TRIANGLE","PENTAGON","STAR","P1","Nonmatching","P2","P1","Bottom","o",1167.196143,1.167196143,1,2
1,4,14,23,21,"TRIANGLE","PENTAGON","STAR","Stranger","Matching","Stranger","Stranger","Top","w",866.808106,0.866808106,1,2
1,4,15,23,21,"TRIANGLE","PENTAGON","STAR","P2","Nonmatching","Stranger","P2","Top","o",783.51106,0.78351106,1,2
1,4,16,23,21,"TRIANGLE","PENTAGON","STAR","Stranger","Matching","Stranger","Stranger","Bottom","w",1283.459935,1.283459935,1,2
1,4,17,23,21,"TRIANGLE","PENTAGON","STAR","P1","Nonmatching","Stranger","P1","Bottom","o",916.78507,0.91678507,1,2
1,4,18,23,21,"TRIANGLE","PENTAGON","STAR","Stranger","Nonmatching","P2","Stranger","Top","o",733.466193,0.733466193,1,2
1,4,19,23,21,"TRIANGLE","PENTAGON","STAR","Stranger","Nonmatching","P1","Stranger","Top","o",1283.446512,1.283446512,1,2
1,4,20,23,21,"TRIANGLE","PENTAGON","STAR","P2","Nonmatching","Stranger","P2","Bottom","o",850.134248,0.850134248,1,2
1,4,21,23,21,"TRIANGLE","PENTAGON","STAR","Stranger","Nonmatching","P2","Stranger","Top","o",1283.435853,1.283435853,1,2
1,4,22,23,21,"TRIANGLE","PENTAGON","STAR","P2","Matching","P2","P2","Bottom","w",933.452217,0.933452217,1,2
1,4,23,23,21,"TRIANGLE","PENTAGON","STAR","P1","Nonmatching","Stranger","P1","Bottom","o",933.519726,0.933519726,1,2
1,4,24,23,21,"TRIANGLE","PENTAGON","STAR","P2","Nonmatching","Stranger","P2","Bottom","o",700.608802,0.700608802,1,2
1,4,25,23,21,"TRIANGLE","PENTAGON","STAR","P1","Matching","P1","P1","Bottom","w",700.150848,0.700150848,1,2
1,4,26,23,21,"TRIANGLE","PENTAGON","STAR","P1","Matching","P1","P1","Top","w",883.469726,0.883469726,1,2
1,4,27,23,21,"TRIANGLE","PENTAGON","STAR","P2","Matching","P2","P2","Bottom","w",683.465541,0.683465541,1,2
1,4,28,23,21,"TRIANGLE","PENTAGON","STAR","P1","Nonmatching","P2","P1","Bottom","w",550.169818,0.550169818,0,2
1,4,29,23,21,"TRIANGLE","PENTAGON","STAR","P2","Nonmatching","P1","P2","Top","o",983.526299,0.983526299,1,2
1,4,30,23,21,"TRIANGLE","PENTAGON","STAR","Stranger","Nonmatching","P1","Stranger","Bottom","o",1100.055389,1.100055389,1,2
1,4,31,23,21,"TRIANGLE","PENTAGON","STAR","P2","Matching","P2","P2","Top","w",700.148085,0.700148085,1,2
1,4,32,23,21,"TRIANGLE","PENTAGON","STAR","Stranger","Nonmatching","P2","Stranger","Top","o",800.166758,0.800166758,1,2
1,4,33,23,21,"TRIANGLE","PENTAGON","STAR","Stranger","Nonmatching","P1","Stranger","Bottom","o",1033.478391,1.033478391,1,2
1,4,34,23,21,"TRIANGLE","PENTAGON","STAR","P1","Matching","P1","P1","Bottom","w",617.096202,0.617096202,1,2
1,4,35,23,21,"TRIANGLE","PENTAGON","STAR","P2","Matching","P2","P2","Top","w",883.697124,0.883697124,1,2
1,4,36,23,21,"TRIANGLE","PENTAGON","STAR","P2","Nonmatching","Stranger","P2","Bottom","o",950.154895,0.950154895,1,2
1,4,37,23,21,"TRIANGLE","PENTAGON","STAR","P2","Matching","P2","P2","Top","w",767.148689,0.767148689,1,2
1,4,38,23,21,"TRIANGLE","PENTAGON","STAR","Stranger","Nonmatching","P2","Stranger","Bottom","o",866.816396,0.866816396,1,2
1,4,39,23,21,"TRIANGLE","PENTAGON","STAR","P1","Matching","P1","P1","Top","w",1333.444795,1.333444795,1,2
1,4,40,23,21,"TRIANGLE","PENTAGON","STAR","P1","Matching","P1","P1","Top","w",650.202309,0.650202309,1,2
1,4,41,23,21,"TRIANGLE","PENTAGON","STAR","Stranger","Matching","Stranger","Stranger","Bottom","w",817.093281,0.817093281,1,2
1,4,42,23,21,"TRIANGLE","PENTAGON","STAR","Stranger","Nonmatching","P2","Stranger","Bottom","o",883.544736,0.883544736,1,2
1,4,43,23,21,"TRIANGLE","PENTAGON","STAR","P2","Matching","P2","P2","Bottom","w",766.829701,0.766829701,1,2
1,4,44,23,21,"TRIANGLE","PENTAGON","STAR","P2","Nonmatching","Stranger","P2","Top","o",1500.135215,1.500135215,1,2
1,4,45,23,21,"TRIANGLE","PENTAGON","STAR","P1","Nonmatching","Stranger","P1","Top","o",966.88205,0.96688205,1,2
1,4,46,23,21,"TRIANGLE","PENTAGON","STAR","P2","Matching","P2","P2","Bottom","w",850.608388,0.850608388,1,2
1,4,47,23,21,"TRIANGLE","PENTAGON","STAR","P2","Matching","P2","P2","Top","w",700.20296,0.70020296,1,2
1,4,48,23,21,"TRIANGLE","PENTAGON","STAR","P1","Matching","P1","P1","Bottom","w",583.528589,0.583528589,1,2
1,4,49,23,21,"TRIANGLE","PENTAGON","STAR","P1","Matching","P1","P1","Top","w",666.808264,0.666808264,1,2
1,4,50,23,21,"TRIANGLE","PENTAGON","STAR","P2","Nonmatching","P1","P2","Bottom","o",816.809823,0.816809823,1,2
1,4,51,23,21,"TRIANGLE","PENTAGON","STAR","Stranger","Matching","Stranger","Stranger","Top","w",716.813258,0.716813258,1,2
1,4,52,23,21,"TRIANGLE","PENTAGON","STAR","P2","Matching","P2","P2","Top","w",683.527918,0.683527918,1,2
1,4,53,23,21,"TRIANGLE","PENTAGON","STAR","P2","Nonmatching","P1","P2","Bottom","o",816.822456,0.816822456,1,2
1,4,54,23,21,"TRIANGLE","PENTAGON","STAR","P2","Matching","P2","P2","Top","w",866.847585,0.866847585,1,2
1,4,55,23,21,"TRIANGLE","PENTAGON","STAR","P1","Matching","P1","P1","Top","w",833.924265,0.833924265,1,2
1,4,56,23,21,"TRIANGLE","PENTAGON","STAR","Stranger","Nonmatching","P1","Stranger","Bottom","o",750.15979,0.75015979,1,2
1,4,57,23,21,"TRIANGLE","PENTAGON","STAR","Stranger","Matching","Stranger","Stranger","Bottom","w",883.505652,0.883505652,1,2
1,4,58,23,21,"TRIANGLE","PENTAGON","STAR","P2","Nonmatching","P1","P2","Bottom","o",1266.82753,1.26682753,1,2
1,4,59,23,21,"TRIANGLE","PENTAGON","STAR","P2","Matching","P2","P2","Bottom","w",650.177832,0.650177832,1,2
1,4,60,23,21,"TRIANGLE","PENTAGON","STAR","P1","Nonmatching","P2","P1","Top","o",766.856941,0.766856941,1,2
1,4,61,23,21,"TRIANGLE","PENTAGON","STAR","P1","Nonmatching","Stranger","P1","Bottom","o",966.814146,0.966814146,1,2
1,4,62,23,21,"TRIANGLE","PENTAGON","STAR","P1","Matching","P1","P1","Top","w",616.813929,0.616813929,1,2
1,4,63,23,21,"TRIANGLE","PENTAGON","STAR","Stranger","Nonmatching","P2","Stranger","Bottom","o",783.467239,0.783467239,1,2
1,4,64,23,21,"TRIANGLE","PENTAGON","STAR","P1","Nonmatching","P2","P1","Top","o",1050.1712,1.0501712,1,2
1,4,65,23,21,"TRIANGLE","PENTAGON","STAR","P1","Nonmatching","P2","P1","Bottom","o",650.200335,0.650200335,1,2
1,4,66,23,21,"TRIANGLE","PENTAGON","STAR","P2","Matching","P2","P2","Bottom","w",850.105033,0.850105033,1,2
1,4,67,23,21,"TRIANGLE","PENTAGON","STAR","P1","Nonmatching","Stranger","P1","Bottom","o",783.522114,0.783522114,1,2
1,4,68,23,21,"TRIANGLE","PENTAGON","STAR","Stranger","Nonmatching","P1","Stranger","Top","o",933.471956,0.933471956,1,2
1,4,69,23,21,"TRIANGLE","PENTAGON","STAR","Stranger","Nonmatching","P2","Stranger","Top","o",883.455514,0.883455514,1,2
1,4,70,23,21,"TRIANGLE","PENTAGON","STAR","Stranger","Nonmatching","P1","Stranger","Bottom","o",1350.100888,1.350100888,1,2
1,4,71,23,21,"TRIANGLE","PENTAGON","STAR","Stranger","Matching","Stranger","Stranger","Top","w",733.478036,0.733478036,1,2
1,4,72,23,21,"TRIANGLE","PENTAGON","STAR","P2","Matching","P2","P2","Top","w",700.133083,0.700133083,1,2
1,4,73,23,21,"TRIANGLE","PENTAGON","STAR","P2","Nonmatching","Stranger","P2","Top","o",1216.854118,1.216854118,1,2
1,4,74,23,21,"TRIANGLE","PENTAGON","STAR","P2","Nonmatching","P1","P2","Top","None",NA,NA,3,2
1,4,75,23,21,"TRIANGLE","PENTAGON","STAR","P1","Nonmatching","Stranger","P1","Top","o",1300.102605,1.300102605,1,2
1,4,76,23,21,"TRIANGLE","PENTAGON","STAR","P2","Matching","P2","P2","Bottom","w",750.16966,0.75016966,1,2
1,4,77,23,21,"TRIANGLE","PENTAGON","STAR","P1","Nonmatching","P2","P1","Top","o",833.451704,0.833451704,1,2
1,4,78,23,21,"TRIANGLE","PENTAGON","STAR","Stranger","Matching","Stranger","Stranger","Top","w",600.080063,0.600080063,1,2
1,4,79,23,21,"TRIANGLE","PENTAGON","STAR","P1","Nonmatching","P2","P1","Top","o",883.607112,0.883607112,1,2
1,4,80,23,21,"TRIANGLE","PENTAGON","STAR","Stranger","Matching","Stranger","Stranger","Top","w",800.19084,0.80019084,1,2
1,4,81,23,21,"TRIANGLE","PENTAGON","STAR","Stranger","Nonmatching","P2","Stranger","Top","o",733.492643,0.733492643,1,2
1,4,82,23,21,"TRIANGLE","PENTAGON","STAR","P2","Nonmatching","P1","P2","Top","o",833.478549,0.833478549,1,2
1,4,83,23,21,"TRIANGLE","PENTAGON","STAR","P1","Nonmatching","P2","P1","Top","o",1116.8161,1.1168161,1,2
1,4,84,23,21,"TRIANGLE","PENTAGON","STAR","P1","Nonmatching","P2","P1","Bottom","o",800.148993,0.800148993,1,2
1,4,85,23,21,"TRIANGLE","PENTAGON","STAR","P2","Nonmatching","P1","P2","Bottom","o",933.531569,0.933531569,1,2
1,4,86,23,21,"TRIANGLE","PENTAGON","STAR","P2","Matching","P2","P2","Top","w",883.506046,0.883506046,1,2
1,4,87,23,21,"TRIANGLE","PENTAGON","STAR","P2","Matching","P2","P2","Bottom","w",816.82443,0.81682443,1,2
1,4,88,23,21,"TRIANGLE","PENTAGON","STAR","P1","Matching","P1","P1","Bottom","w",650.233892,0.650233892,1,2
1,4,89,23,21,"TRIANGLE","PENTAGON","STAR","P2","Nonmatching","Stranger","P2","Top","o",883.740155,0.883740155,1,2
1,4,90,23,21,"TRIANGLE","PENTAGON","STAR","P2","Matching","P2","P2","Top","w",850.447709,0.850447709,1,2
1,4,91,23,21,"TRIANGLE","PENTAGON","STAR","P2","Nonmatching","Stranger","P2","Bottom","o",716.805757,0.716805757,1,2
1,4,92,23,21,"TRIANGLE","PENTAGON","STAR","Stranger","Matching","Stranger","Stranger","Bottom","w",866.914304,0.866914304,1,2
1,4,93,23,21,"TRIANGLE","PENTAGON","STAR","Stranger","Matching","Stranger","Stranger","Top","w",616.796953,0.616796953,1,2
1,4,94,23,21,"TRIANGLE","PENTAGON","STAR","Stranger","Nonmatching","P2","Stranger","Bottom","o",733.470535,0.733470535,1,2
1,4,95,23,21,"TRIANGLE","PENTAGON","STAR","Stranger","Matching","Stranger","Stranger","Top","w",750.106494,0.750106494,1,2
1,4,96,23,21,"TRIANGLE","PENTAGON","STAR","P1","Nonmatching","P2","P1","Bottom","o",833.461179,0.833461179,1,2
1,4,97,23,21,"TRIANGLE","PENTAGON","STAR","Stranger","Nonmatching","P1","Stranger","Top","o",1066.788209,1.066788209,1,2
1,4,98,23,21,"TRIANGLE","PENTAGON","STAR","P1","Matching","P1","P1","Top","o",850.128326,0.850128326,0,2
1,4,99,23,21,"TRIANGLE","PENTAGON","STAR","P2","Nonmatching","Stranger","P2","Top","w",816.854039,0.816854039,0,2
1,4,100,23,21,"TRIANGLE","PENTAGON","STAR","Stranger","Matching","Stranger","Stranger","Bottom","w",716.839314,0.716839314,1,2
1,4,101,23,21,"TRIANGLE","PENTAGON","STAR","P1","Matching","P1","P1","Bottom","w",683.74742,0.68374742,1,2
1,4,102,23,21,"TRIANGLE","PENTAGON","STAR","P2","Matching","P2","P2","Bottom","w",666.858402,0.666858402,1,2
1,4,103,23,21,"TRIANGLE","PENTAGON","STAR","P1","Matching","P1","P1","Bottom","w",633.493314,0.633493314,1,2
1,4,104,23,21,"TRIANGLE","PENTAGON","STAR","P2","Matching","P2","P2","Bottom","w",883.513547,0.883513547,1,2
1,4,105,23,21,"TRIANGLE","PENTAGON","STAR","Stranger","Matching","Stranger","Stranger","Top","w",600.204026,0.600204026,1,2
1,4,106,23,21,"TRIANGLE","PENTAGON","STAR","P1","Matching","P1","P1","Top","w",650.14388,0.65014388,1,2
1,4,107,23,21,"TRIANGLE","PENTAGON","STAR","P1","Nonmatching","Stranger","P1","Top","o",1233.685497,1.233685497,1,2
1,4,108,23,21,"TRIANGLE","PENTAGON","STAR","P2","Nonmatching","P1","P2","Top","o",783.511455,0.783511455,1,2
1,4,109,23,21,"TRIANGLE","PENTAGON","STAR","P1","Nonmatching","Stranger","P1","Bottom","o",1033.540768,1.033540768,1,2
1,4,110,23,21,"TRIANGLE","PENTAGON","STAR","P1","Matching","P1","P1","Bottom","w",750.134524,0.750134524,1,2
1,4,111,23,21,"TRIANGLE","PENTAGON","STAR","P2","Matching","P2","P2","Top","w",766.827332,0.766827332,1,2
1,4,112,23,21,"TRIANGLE","PENTAGON","STAR","P2","Nonmatching","P1","P2","Top","o",1000.426371,1.000426371,1,2
1,4,113,23,21,"TRIANGLE","PENTAGON","STAR","Stranger","Matching","Stranger","Stranger","Bottom","w",733.78755,0.73378755,1,2
1,4,114,23,21,"TRIANGLE","PENTAGON","STAR","Stranger","Nonmatching","P1","Stranger","Top","o",683.807822,0.683807822,1,2
1,4,115,23,21,"TRIANGLE","PENTAGON","STAR","P1","Matching","P1","P1","Top","w",783.56791,0.78356791,1,2
1,4,116,23,21,"TRIANGLE","PENTAGON","STAR","P1","Matching","P1","P1","Bottom","w",683.523575,0.683523575,1,2
1,4,117,23,21,"TRIANGLE","PENTAGON","STAR","Stranger","Matching","Stranger","Stranger","Bottom","w",733.436583,0.733436583,1,2
1,4,118,23,21,"TRIANGLE","PENTAGON","STAR","Stranger","Matching","Stranger","Stranger","Bottom","w",666.803921,0.666803921,1,2
1,4,119,23,21,"TRIANGLE","PENTAGON","STAR","P1","Nonmatching","Stranger","P1","Top","o",716.80852,0.71680852,1,2
1,4,120,23,21,"TRIANGLE","PENTAGON","STAR","P1","Matching","P1","P1","Top","w",616.819851,0.616819851,1,2
2,1,1,21,22,"STAR","TRIANGLE","CIRCLE","P1","Nonmatching","P2","P1","Bottom","w",1316.736985,1.316736985,1,1
2,1,2,21,22,"STAR","TRIANGLE","CIRCLE","P1","Nonmatching","P2","P1","Top","w",750.134919,0.750134919,1,1
2,1,3,21,22,"STAR","TRIANGLE","CIRCLE","P1","Matching","P1","P1","Bottom","o",400.293801,0.400293801,1,1
2,1,4,21,22,"STAR","TRIANGLE","CIRCLE","Stranger","Nonmatching","P1","Stranger","Top","w",983.386149,0.983386149,1,1
2,1,5,21,22,"STAR","TRIANGLE","CIRCLE","P2","Matching","P2","P2","Bottom","o",783.475924,0.783475924,1,1
2,1,6,21,22,"STAR","TRIANGLE","CIRCLE","Stranger","Matching","Stranger","Stranger","Bottom","o",650.162041,0.650162041,1,1
2,1,7,21,22,"STAR","TRIANGLE","CIRCLE","P1","Nonmatching","Stranger","P1","Top","w",716.770621,0.716770621,1,1
2,1,8,21,22,"STAR","TRIANGLE","CIRCLE","P1","Matching","P1","P1","Bottom","o",516.80552,0.51680552,1,1
2,1,9,21,22,"STAR","TRIANGLE","CIRCLE","P1","Nonmatching","Stranger","P1","Bottom","w",1000.150414,1.000150414,1,1
2,1,10,21,22,"STAR","TRIANGLE","CIRCLE","Stranger","Matching","Stranger","Stranger","Top","o",400.438293,0.400438293,1,1
2,1,11,21,22,"STAR","TRIANGLE","CIRCLE","P2","Matching","P2","P2","Bottom","w",433.709816,0.433709816,0,1
2,1,12,21,22,"STAR","TRIANGLE","CIRCLE","P2","Nonmatching","P1","P2","Bottom","o",416.818824,0.416818824,0,1
2,1,13,21,22,"STAR","TRIANGLE","CIRCLE","P2","Matching","P2","P2","Top","w",450.170489,0.450170489,0,1
2,1,14,21,22,"STAR","TRIANGLE","CIRCLE","Stranger","Nonmatching","P1","Stranger","Top","o",483.533603,0.483533603,0,1
2,1,15,21,22,"STAR","TRIANGLE","CIRCLE","P1","Nonmatching","Stranger","P1","Bottom","None",NA,NA,3,1
2,1,16,21,22,"STAR","TRIANGLE","CIRCLE","P1","Nonmatching","Stranger","P1","Bottom","None",NA,NA,3,1
2,1,17,21,22,"STAR","TRIANGLE","CIRCLE","P1","Nonmatching","Stranger","P1","Top","w",716.789571,0.716789571,1,1
2,1,18,21,22,"STAR","TRIANGLE","CIRCLE","P2","Nonmatching","P1","P2","Bottom","w",1300.157481,1.300157481,1,1
2,1,19,21,22,"STAR","TRIANGLE","CIRCLE","Stranger","Matching","Stranger","Stranger","Bottom","o",733.478826,0.733478826,1,1
2,1,20,21,22,"STAR","TRIANGLE","CIRCLE","Stranger","Matching","Stranger","Stranger","Top","w",666.85327,0.66685327,0,1
2,1,21,21,22,"STAR","TRIANGLE","CIRCLE","Stranger","Matching","Stranger","Stranger","Bottom","o",616.849065,0.616849065,1,1
2,1,22,21,22,"STAR","TRIANGLE","CIRCLE","Stranger","Matching","Stranger","Stranger","Top","o",450.147197,0.450147197,1,1
2,1,23,21,22,"STAR","TRIANGLE","CIRCLE","Stranger","Matching","Stranger","Stranger","Bottom","o",333.475983,0.333475983,1,1
2,1,24,21,22,"STAR","TRIANGLE","CIRCLE","P2","Nonmatching","P1","P2","Bottom","w",816.776266,0.816776266,1,1
2,1,25,21,22,"STAR","TRIANGLE","CIRCLE","P2","Nonmatching","Stranger","P2","Bottom","None",NA,NA,3,1
2,1,26,21,22,"STAR","TRIANGLE","CIRCLE","Stranger","Matching","Stranger","Stranger","Top","o",616.814324,0.616814324,1,1
2,1,27,21,22,"STAR","TRIANGLE","CIRCLE","Stranger","Matching","Stranger","Stranger","Bottom","o",616.823404,0.616823404,1,1
2,1,28,21,22,"STAR","TRIANGLE","CIRCLE","Stranger","Matching","Stranger","Stranger","Top","o",333.462166,0.333462166,1,1
2,1,29,21,22,"STAR","TRIANGLE","CIRCLE","Stranger","Nonmatching","P2","Stranger","Top","w",733.482774,0.733482774,1,1
2,1,30,21,22,"STAR","TRIANGLE","CIRCLE","Stranger","Nonmatching","P1","Stranger","Bottom","w",916.815469,0.916815469,1,1
2,1,31,21,22,"STAR","TRIANGLE","CIRCLE","P1","Matching","P1","P1","Top","o",750.161764,0.750161764,1,1
2,1,32,21,22,"STAR","TRIANGLE","CIRCLE","P2","Nonmatching","P1","P2","Top","o",516.869081,0.516869081,0,1
2,1,33,21,22,"STAR","TRIANGLE","CIRCLE","P1","Nonmatching","P2","P1","Top","w",800.158468,0.800158468,1,1
2,1,34,21,22,"STAR","TRIANGLE","CIRCLE","Stranger","Nonmatching","P2","Stranger","Top","w",650.132826,0.650132826,1,1
2,1,35,21,22,"STAR","TRIANGLE","CIRCLE","P2","Nonmatching","P1","P2","Top","w",866.799815,0.866799815,1,1
2,1,36,21,22,"STAR","TRIANGLE","CIRCLE","P1","Matching","P1","P1","Top","o",533.511356,0.533511356,1,1
2,1,37,21,22,"STAR","TRIANGLE","CIRCLE","P1","Matching","P1","P1","Top","o",516.850526,0.516850526,1,1
2,1,38,21,22,"STAR","TRIANGLE","CIRCLE","P2","Matching","P2","P2","Top","w",466.871983,0.466871983,0,1
2,1,39,21,22,"STAR","TRIANGLE","CIRCLE","P1","Nonmatching","Stranger","P1","Bottom","None",NA,NA,3,1
2,1,40,21,22,"STAR","TRIANGLE","CIRCLE","P2","Matching","P2","P2","Bottom","o",1050.152645,1.050152645,1,1
2,1,41,21,22,"STAR","TRIANGLE","CIRCLE","Stranger","Nonmatching","P1","Stranger","Top","o",500.423015,0.500423015,0,1
2,1,42,21,22,"STAR","TRIANGLE","CIRCLE","P2","Nonmatching","Stranger","P2","Bottom","w",933.716725,0.933716725,1,1
2,1,43,21,22,"STAR","TRIANGLE","CIRCLE","P1","Matching","P1","P1","Bottom","o",550.141393,0.550141393,1,1
2,1,44,21,22,"STAR","TRIANGLE","CIRCLE","Stranger","Nonmatching","P1","Stranger","Bottom","w",766.803645,0.766803645,1,1
2,1,45,21,22,"STAR","TRIANGLE","CIRCLE","P2","Nonmatching","P1","P2","Bottom","w",1033.755927,1.033755927,1,1
2,1,46,21,22,"STAR","TRIANGLE","CIRCLE","P2","Matching","P2","P2","Top","o",633.50121,0.63350121,1,1
2,1,47,21,22,"STAR","TRIANGLE","CIRCLE","P2","Matching","P2","P2","Bottom","o",516.852105,0.516852105,1,1
2,1,48,21,22,"STAR","TRIANGLE","CIRCLE","P1","Matching","P1","P1","Top","o",666.813001,0.666813001,1,1
2,1,49,21,22,"STAR","TRIANGLE","CIRCLE","P2","Nonmatching","Stranger","P2","Bottom","w",950.138314,0.950138314,1,1
2,1,50,21,22,"STAR","TRIANGLE","CIRCLE","P2","Matching","P2","P2","Top","w",716.827865,0.716827865,0,1
2,1,51,21,22,"STAR","TRIANGLE","CIRCLE","P2","Matching","P2","P2","Bottom","o",466.833293,0.466833293,1,1
2,1,52,21,22,"STAR","TRIANGLE","CIRCLE","P1","Nonmatching","P2","P1","Top","w",716.825891,0.716825891,1,1
2,1,53,21,22,"STAR","TRIANGLE","CIRCLE","P1","Nonmatching","P2","P1","Bottom","w",1200.1242,1.2001242,1,1
2,1,54,21,22,"STAR","TRIANGLE","CIRCLE","P2","Matching","P2","P2","Top","o",566.827885,0.566827885,1,1
2,1,55,21,22,"STAR","TRIANGLE","CIRCLE","P2","Nonmatching","Stranger","P2","Top","w",567.104236,0.567104236,1,1
2,1,56,21,22,"STAR","TRIANGLE","CIRCLE","Stranger","Nonmatching","P2","Stranger","Top","w",766.81312,0.76681312,1,1
2,1,57,21,22,"STAR","TRIANGLE","CIRCLE","Stranger","Matching","Stranger","Stranger","Top","o",366.819357,0.366819357,1,1
2,1,58,21,22,"STAR","TRIANGLE","CIRCLE","Stranger","Matching","Stranger","Stranger","Bottom","o",600.119937,0.600119937,1,1
2,1,59,21,22,"STAR","TRIANGLE","CIRCLE","Stranger","Nonmatching","P1","Stranger","Top","w",716.826286,0.716826286,1,1
2,1,60,21,22,"STAR","TRIANGLE","CIRCLE","Stranger","Matching","Stranger","Stranger","Top","o",633.442782,0.633442782,1,1
2,1,61,21,22,"STAR","TRIANGLE","CIRCLE","P2","Nonmatching","Stranger","P2","Top","w",750.157027,0.750157027,1,1
2,1,62,21,22,"STAR","TRIANGLE","CIRCLE","P2","Nonmatching","Stranger","P2","Top","w",616.832089,0.616832089,1,1
2,1,63,21,22,"STAR","TRIANGLE","CIRCLE","P1","Matching","P1","P1","Bottom","o",483.493334,0.483493334,1,1
2,1,64,21,22,"STAR","TRIANGLE","CIRCLE","P1","Matching","P1","P1","Top","o",533.4853,0.5334853,1,1
2,1,65,21,22,"STAR","TRIANGLE","CIRCLE","Stranger","Matching","Stranger","Stranger","Top","w",550.162712,0.550162712,0,1
2,1,66,21,22,"STAR","TRIANGLE","CIRCLE","P2","Nonmatching","P1","P2","Top","o",650.149407,0.650149407,0,1
2,1,67,21,22,"STAR","TRIANGLE","CIRCLE","P1","Matching","P1","P1","Top","w",616.830115,0.616830115,0,1
2,1,68,21,22,"STAR","TRIANGLE","CIRCLE","P1","Matching","P1","P1","Bottom","o",450.165357,0.450165357,1,1
2,1,69,21,22,"STAR","TRIANGLE","CIRCLE","Stranger","Nonmatching","P2","Stranger","Bottom","w",616.803665,0.616803665,1,1
2,1,70,21,22,"STAR","TRIANGLE","CIRCLE","P2","Matching","P2","P2","Bottom","o",366.811462,0.366811462,1,1
2,1,71,21,22,"STAR","TRIANGLE","CIRCLE","P1","Matching","P1","P1","Bottom","o",400.170627,0.400170627,1,1
2,1,72,21,22,"STAR","TRIANGLE","CIRCLE","Stranger","Nonmatching","P2","Stranger","Bottom","w",383.479003,0.383479003,1,1
2,1,73,21,22,"STAR","TRIANGLE","CIRCLE","P2","Nonmatching","P1","P2","Bottom","o",416.864225,0.416864225,0,1
2,1,74,21,22,"STAR","TRIANGLE","CIRCLE","P1","Nonmatching","P2","P1","Bottom","w",733.454349,0.733454349,1,1
2,1,75,21,22,"STAR","TRIANGLE","CIRCLE","P1","Matching","P1","P1","Bottom","o",616.810376,0.616810376,1,1
2,1,76,21,22,"STAR","TRIANGLE","CIRCLE","P1","Matching","P1","P1","Top","o",433.476102,0.433476102,1,1
2,1,77,21,22,"STAR","TRIANGLE","CIRCLE","P1","Matching","P1","P1","Bottom","o",333.512699,0.333512699,1,1
2,1,78,21,22,"STAR","TRIANGLE","CIRCLE","P2","Nonmatching","Stranger","P2","Bottom","w",650.164409,0.650164409,1,1
2,1,79,21,22,"STAR","TRIANGLE","CIRCLE","P2","Matching","P2","P2","Bottom","w",616.819456,0.616819456,0,1
2,1,80,21,22,"STAR","TRIANGLE","CIRCLE","P1","Nonmatching","P2","P1","Bottom","o",600.154283,0.600154283,0,1
2,1,81,21,22,"STAR","TRIANGLE","CIRCLE","Stranger","Matching","Stranger","Stranger","Top","w",750.138077,0.750138077,0,1
2,1,82,21,22,"STAR","TRIANGLE","CIRCLE","Stranger","Nonmatching","P2","Stranger","Bottom","w",1000.116462,1.000116462,1,1
2,1,83,21,22,"STAR","TRIANGLE","CIRCLE","Stranger","Nonmatching","P2","Stranger","Bottom","o",566.812883,0.566812883,0,1
2,1,84,21,22,"STAR","TRIANGLE","CIRCLE","Stranger","Nonmatching","P2","Stranger","Top","w",666.82445,0.66682445,1,1
2,1,85,21,22,"STAR","TRIANGLE","CIRCLE","P2","Nonmatching","P1","P2","Top","w",900.060284,0.900060284,1,1
2,1,86,21,22,"STAR","TRIANGLE","CIRCLE","P1","Nonmatching","Stranger","P1","Bottom","o",583.49898,0.58349898,0,1
2,1,87,21,22,"STAR","TRIANGLE","CIRCLE","P1","Nonmatching","P2","P1","Bottom","w",850.140959,0.850140959,1,1
2,1,88,21,22,"STAR","TRIANGLE","CIRCLE","P2","Nonmatching","Stranger","P2","Top","w",1083.452987,1.083452987,1,1
2,1,89,21,22,"STAR","TRIANGLE","CIRCLE","P1","Matching","P1","P1","Bottom","o",516.814995,0.516814995,1,1
2,1,90,21,22,"STAR","TRIANGLE","CIRCLE","Stranger","Nonmatching","P2","Stranger","Top","w",850.398755,0.850398755,1,1
2,1,91,21,22,"STAR","TRIANGLE","CIRCLE","P2","Matching","P2","P2","Top","o",566.838939,0.566838939,1,1
2,1,92,21,22,"STAR","TRIANGLE","CIRCLE","Stranger","Nonmatching","P2","Stranger","Bottom","w",500.174299,0.500174299,1,1
2,1,93,21,22,"STAR","TRIANGLE","CIRCLE","P1","Nonmatching","P2","P1","Top","w",1083.414693,1.083414693,1,1
2,1,94,21,22,"STAR","TRIANGLE","CIRCLE","P2","Matching","P2","P2","Top","o",666.807474,0.666807474,1,1
2,1,95,21,22,"STAR","TRIANGLE","CIRCLE","Stranger","Nonmatching","P1","Stranger","Bottom","w",916.788623,0.916788623,1,1
2,1,96,21,22,"STAR","TRIANGLE","CIRCLE","P2","Nonmatching","P1","P2","Top","w",833.456441,0.833456441,1,1
2,1,97,21,22,"STAR","TRIANGLE","CIRCLE","P2","Matching","P2","P2","Bottom","w",650.130852,0.650130852,0,1
2,1,98,21,22,"STAR","TRIANGLE","CIRCLE","P2","Matching","P2","P2","Bottom","o",483.479911,0.483479911,1,1
2,1,99,21,22,"STAR","TRIANGLE","CIRCLE","Stranger","Matching","Stranger","Stranger","Bottom","w",616.826957,0.616826957,0,1
2,1,100,21,22,"STAR","TRIANGLE","CIRCLE","P1","Nonmatching","Stranger","P1","Top","o",483.47399,0.48347399,0,1
2,1,101,21,22,"STAR","TRIANGLE","CIRCLE","P2","Matching","P2","P2","Top","o",1366.817778,1.366817778,1,1
2,1,102,21,22,"STAR","TRIANGLE","CIRCLE","P2","Nonmatching","Stranger","P2","Bottom","w",666.828003,0.666828003,1,1
2,1,103,21,22,"STAR","TRIANGLE","CIRCLE","Stranger","Matching","Stranger","Stranger","Bottom","o",1366.797644,1.366797644,1,1
2,1,104,21,22,"STAR","TRIANGLE","CIRCLE","P1","Nonmatching","Stranger","P1","Top","w",850.126352,0.850126352,1,1
2,1,105,21,22,"STAR","TRIANGLE","CIRCLE","Stranger","Nonmatching","P1","Stranger","Top","o",483.700203,0.483700203,0,1
2,1,106,21,22,"STAR","TRIANGLE","CIRCLE","P1","Nonmatching","Stranger","P1","Top","None",NA,NA,3,1
2,1,107,21,22,"STAR","TRIANGLE","CIRCLE","Stranger","Nonmatching","P1","Stranger","Bottom","w",1016.80177,1.01680177,1,1
2,1,108,21,22,"STAR","TRIANGLE","CIRCLE","P1","Matching","P1","P1","Top","o",616.816298,0.616816298,1,1
2,1,109,21,22,"STAR","TRIANGLE","CIRCLE","P1","Matching","P1","P1","Bottom","o",466.818686,0.466818686,1,1
2,1,110,21,22,"STAR","TRIANGLE","CIRCLE","Stranger","Matching","Stranger","Stranger","Bottom","o",800.138728,0.800138728,1,1
2,1,111,21,22,"STAR","TRIANGLE","CIRCLE","P1","Matching","P1","P1","Top","o",450.435392,0.450435392,1,1
2,1,112,21,22,"STAR","TRIANGLE","CIRCLE","Stranger","Matching","Stranger","Stranger","Bottom","w",733.474483,0.733474483,0,1
2,1,113,21,22,"STAR","TRIANGLE","CIRCLE","P1","Nonmatching","P2","P1","Top","w",916.824154,0.916824154,1,1
2,1,114,21,22,"STAR","TRIANGLE","CIRCLE","P2","Nonmatching","Stranger","P2","Top","w",1366.770404,1.366770404,1,1
2,1,115,21,22,"STAR","TRIANGLE","CIRCLE","P2","Matching","P2","P2","Bottom","o",633.45502,0.63345502,1,1
2,1,116,21,22,"STAR","TRIANGLE","CIRCLE","P1","Matching","P1","P1","Top","o",566.791959,0.566791959,1,1
2,1,117,21,22,"STAR","TRIANGLE","CIRCLE","Stranger","Matching","Stranger","Stranger","Top","o",350.161685,0.350161685,1,1
2,1,118,21,22,"STAR","TRIANGLE","CIRCLE","P2","Matching","P2","P2","Top","o",600.152309,0.600152309,1,1
2,1,119,21,22,"STAR","TRIANGLE","CIRCLE","Stranger","Nonmatching","P1","Stranger","Bottom","o",400.13786,0.40013786,0,1
2,1,120,21,22,"STAR","TRIANGLE","CIRCLE","P2","Matching","P2","P2","Top","o",716.778122,0.716778122,1,1
2,2,1,21,22,"STAR","TRIANGLE","CIRCLE","Stranger","Nonmatching","P2","Stranger","Bottom","w",1150.099072,1.150099072,1,1
2,2,2,21,22,"STAR","TRIANGLE","CIRCLE","P1","Matching","P1","P1","Top","o",516.833945,0.516833945,1,1
2,2,3,21,22,"STAR","TRIANGLE","CIRCLE","P2","Matching","P2","P2","Bottom","o",400.146545,0.400146545,1,1
2,2,4,21,22,"STAR","TRIANGLE","CIRCLE","P2","Matching","P2","P2","Bottom","o",500.137189,0.500137189,1,1
2,2,5,21,22,"STAR","TRIANGLE","CIRCLE","P1","Matching","P1","P1","Bottom","o",516.807889,0.516807889,1,1
2,2,6,21,22,"STAR","TRIANGLE","CIRCLE","Stranger","Matching","Stranger","Stranger","Bottom","o",383.50427,0.38350427,1,1
2,2,7,21,22,"STAR","TRIANGLE","CIRCLE","P1","Nonmatching","Stranger","P1","Top","o",550.152447,0.550152447,0,1
2,2,8,21,22,"STAR","TRIANGLE","CIRCLE","P2","Matching","P2","P2","Top","o",683.526338,0.683526338,1,1
2,2,9,21,22,"STAR","TRIANGLE","CIRCLE","P1","Matching","P1","P1","Bottom","o",1133.467456,1.133467456,1,1
2,2,10,21,22,"STAR","TRIANGLE","CIRCLE","P2","Matching","P2","P2","Top","o",533.465561,0.533465561,1,1
2,2,11,21,22,"STAR","TRIANGLE","CIRCLE","Stranger","Nonmatching","P1","Stranger","Bottom","w",583.52622,0.58352622,1,1
2,2,12,21,22,"STAR","TRIANGLE","CIRCLE","Stranger","Nonmatching","P2","Stranger","Bottom","o",650.156119,0.650156119,0,1
2,2,13,21,22,"STAR","TRIANGLE","CIRCLE","Stranger","Nonmatching","P2","Stranger","Top","w",1433.448861,1.433448861,1,1
2,2,14,21,22,"STAR","TRIANGLE","CIRCLE","P1","Nonmatching","P2","P1","Top","w",733.502118,0.733502118,1,1
2,2,15,21,22,"STAR","TRIANGLE","CIRCLE","P1","Nonmatching","P2","P1","Bottom","w",733.481194,0.733481194,1,1
2,2,16,21,22,"STAR","TRIANGLE","CIRCLE","Stranger","Nonmatching","P2","Stranger","Bottom","w",433.498605,0.433498605,1,1
2,2,17,21,22,"STAR","TRIANGLE","CIRCLE","P2","Matching","P2","P2","Bottom","o",883.461435,0.883461435,1,1
2,2,18,21,22,"STAR","TRIANGLE","CIRCLE","P2","Nonmatching","P1","P2","Top","w",783.482635,0.783482635,1,1
2,2,19,21,22,"STAR","TRIANGLE","CIRCLE","Stranger","Matching","Stranger","Stranger","Bottom","o",533.475431,0.533475431,1,1
2,2,20,21,22,"STAR","TRIANGLE","CIRCLE","P1","Matching","P1","P1","Top","o",616.805244,0.616805244,1,1
2,2,21,21,22,"STAR","TRIANGLE","CIRCLE","P2","Nonmatching","Stranger","P2","Top","w",616.788268,0.616788268,1,1
2,2,22,21,22,"STAR","TRIANGLE","CIRCLE","P2","Nonmatching","P1","P2","Bottom","w",1383.478214,1.383478214,1,1
2,2,23,21,22,"STAR","TRIANGLE","CIRCLE","P1","Matching","P1","P1","Top","o",500.174299,0.500174299,1,1
2,2,24,21,22,"STAR","TRIANGLE","CIRCLE","P1","Nonmatching","P2","P1","Top","w",400.111804,0.400111804,1,1
2,2,25,21,22,"STAR","TRIANGLE","CIRCLE","Stranger","Nonmatching","P1","Stranger","Top","w",850.159514,0.850159514,1,1
2,2,26,21,22,"STAR","TRIANGLE","CIRCLE","P2","Nonmatching","P1","P2","Bottom","w",733.488301,0.733488301,1,1
2,2,27,21,22,"STAR","TRIANGLE","CIRCLE","Stranger","Matching","Stranger","Stranger","Bottom","o",550.154026,0.550154026,1,1
2,2,28,21,22,"STAR","TRIANGLE","CIRCLE","P2","Matching","P2","P2","Bottom","w",533.496749,0.533496749,0,1
2,2,29,21,22,"STAR","TRIANGLE","CIRCLE","Stranger","Nonmatching","P1","Stranger","Top","o",716.830629,0.716830629,0,1
2,2,30,21,22,"STAR","TRIANGLE","CIRCLE","P2","Matching","P2","P2","Top","o",700.157165,0.700157165,1,1
2,2,31,21,22,"STAR","TRIANGLE","CIRCLE","P2","Matching","P2","P2","Top","o",633.513843,0.633513843,1,1
2,2,32,21,22,"STAR","TRIANGLE","CIRCLE","P1","Nonmatching","P2","P1","Bottom","w",1016.789926,1.016789926,1,1
2,2,33,21,22,"STAR","TRIANGLE","CIRCLE","Stranger","Matching","Stranger","Stranger","Bottom","o",533.51412,0.53351412,1,1
2,2,34,21,22,"STAR","TRIANGLE","CIRCLE","P2","Matching","P2","P2","Top","o",466.823424,0.466823424,1,1
2,2,35,21,22,"STAR","TRIANGLE","CIRCLE","P1","Nonmatching","Stranger","P1","Bottom","w",1083.47549,1.08347549,1,1
2,2,36,21,22,"STAR","TRIANGLE","CIRCLE","Stranger","Nonmatching","P2","Stranger","Bottom","w",816.815745,0.816815745,1,1
2,2,37,21,22,"STAR","TRIANGLE","CIRCLE","Stranger","Nonmatching","P1","Stranger","Bottom","w",666.828398,0.666828398,1,1
2,2,38,21,22,"STAR","TRIANGLE","CIRCLE","P1","Matching","P1","P1","Top","o",383.48532,0.38348532,1,1
2,2,39,21,22,"STAR","TRIANGLE","CIRCLE","Stranger","Matching","Stranger","Stranger","Bottom","o",616.814719,0.616814719,1,1
2,2,40,21,22,"STAR","TRIANGLE","CIRCLE","P1","Nonmatching","Stranger","P1","Top","w",733.493433,0.733493433,1,1
2,2,41,21,22,"STAR","TRIANGLE","CIRCLE","P1","Nonmatching","P2","P1","Bottom","o",500.158112,0.500158112,0,1
2,2,42,21,22,"STAR","TRIANGLE","CIRCLE","Stranger","Nonmatching","P2","Stranger","Top","w",683.475806,0.683475806,1,1
2,2,43,21,22,"STAR","TRIANGLE","CIRCLE","Stranger","Matching","Stranger","Stranger","Bottom","o",816.794427,0.816794427,1,1
2,2,44,21,22,"STAR","TRIANGLE","CIRCLE","P1","Nonmatching","P2","P1","Top","o",616.807218,0.616807218,0,1
2,2,45,21,22,"STAR","TRIANGLE","CIRCLE","P2","Matching","P2","P2","Top","w",633.479892,0.633479892,0,1
2,2,46,21,22,"STAR","TRIANGLE","CIRCLE","Stranger","Matching","Stranger","Stranger","Bottom","None",NA,NA,3,1
2,2,47,21,22,"STAR","TRIANGLE","CIRCLE","Stranger","Nonmatching","P1","Stranger","Top","w",683.465146,0.683465146,1,1
2,2,48,21,22,"STAR","TRIANGLE","CIRCLE","P2","Nonmatching","Stranger","P2","Bottom","w",1133.455612,1.133455612,1,1
2,2,49,21,22,"STAR","TRIANGLE","CIRCLE","P1","Nonmatching","Stranger","P1","Bottom","w",833.456836,0.833456836,1,1
2,2,50,21,22,"STAR","TRIANGLE","CIRCLE","P1","Nonmatching","P2","P1","Top","w",1050.119877,1.050119877,1,1
2,2,51,21,22,"STAR","TRIANGLE","CIRCLE","P2","Nonmatching","Stranger","P2","Top","w",833.470259,0.833470259,1,1
2,2,52,21,22,"STAR","TRIANGLE","CIRCLE","P1","Matching","P1","P1","Top","o",500.142716,0.500142716,1,1
2,2,53,21,22,"STAR","TRIANGLE","CIRCLE","Stranger","Nonmatching","P2","Stranger","Top","w",883.423141,0.883423141,1,1
2,2,54,21,22,"STAR","TRIANGLE","CIRCLE","Stranger","Nonmatching","P1","Stranger","Bottom","w",1033.478391,1.033478391,1,1
2,2,55,21,22,"STAR","TRIANGLE","CIRCLE","P1","Nonmatching","Stranger","P1","Bottom","w",883.481964,0.883481964,1,1
2,2,56,21,22,"STAR","TRIANGLE","CIRCLE","P1","Matching","P1","P1","Top","o",566.823937,0.566823937,1,1
2,2,57,21,22,"STAR","TRIANGLE","CIRCLE","P2","Nonmatching","Stranger","P2","Top","w",633.472785,0.633472785,1,1
2,2,58,21,22,"STAR","TRIANGLE","CIRCLE","Stranger","Matching","Stranger","Stranger","Top","o",883.493808,0.883493808,1,1
2,2,59,21,22,"STAR","TRIANGLE","CIRCLE","P2","Nonmatching","Stranger","P2","Bottom","w",1066.810317,1.066810317,1,1
2,2,60,21,22,"STAR","TRIANGLE","CIRCLE","Stranger","Matching","Stranger","Stranger","Top","w",750.138077,0.750138077,0,1
2,2,61,21,22,"STAR","TRIANGLE","CIRCLE","Stranger","Matching","Stranger","Stranger","Top","o",516.808678,0.516808678,1,1
2,2,62,21,22,"STAR","TRIANGLE","CIRCLE","P2","Matching","P2","P2","Bottom","w",583.566488,0.583566488,0,1
2,2,63,21,22,"STAR","TRIANGLE","CIRCLE","P2","Matching","P2","P2","Top","o",533.484116,0.533484116,1,1
2,2,64,21,22,"STAR","TRIANGLE","CIRCLE","P2","Matching","P2","P2","Top","o",367.120975,0.367120975,1,1
2,2,65,21,22,"STAR","TRIANGLE","CIRCLE","P2","Nonmatching","Stranger","P2","Bottom","w",650.180201,0.650180201,1,1
2,2,66,21,22,"STAR","TRIANGLE","CIRCLE","Stranger","Matching","Stranger","Stranger","Top","o",583.482793,0.583482793,1,1
2,2,67,21,22,"STAR","TRIANGLE","CIRCLE","P1","Matching","P1","P1","Bottom","o",500.136004,0.500136004,1,1
2,2,68,21,22,"STAR","TRIANGLE","CIRCLE","Stranger","Matching","Stranger","Stranger","Top","o",516.822101,0.516822101,1,1
2,2,69,21,22,"STAR","TRIANGLE","CIRCLE","P2","Nonmatching","P1","P2","Top","o",383.532695,0.383532695,0,1
2,2,70,21,22,"STAR","TRIANGLE","CIRCLE","Stranger","Nonmatching","P1","Stranger","Top","w",966.867048,0.966867048,1,1
2,2,71,21,22,"STAR","TRIANGLE","CIRCLE","P1","Nonmatching","Stranger","P1","Top","w",1200.11512,1.20011512,1,1
2,2,72,21,22,"STAR","TRIANGLE","CIRCLE","Stranger","Nonmatching","P2","Stranger","Bottom","w",783.456185,0.783456185,1,1
2,2,73,21,22,"STAR","TRIANGLE","CIRCLE","Stranger","Matching","Stranger","Stranger","Top","o",583.496611,0.583496611,1,1
2,2,74,21,22,"STAR","TRIANGLE","CIRCLE","P2","Nonmatching","P1","P2","Bottom","w",1200.133675,1.200133675,1,1
2,2,75,21,22,"STAR","TRIANGLE","CIRCLE","P2","Nonmatching","P1","P2","Bottom","w",583.48832,0.58348832,1,1
2,2,76,21,22,"STAR","TRIANGLE","CIRCLE","P1","Nonmatching","P2","P1","Bottom","w",750.152289,0.750152289,1,1
2,2,77,21,22,"STAR","TRIANGLE","CIRCLE","Stranger","Nonmatching","P1","Stranger","Bottom","w",916.789018,0.916789018,1,1
2,2,78,21,22,"STAR","TRIANGLE","CIRCLE","Stranger","Nonmatching","P1","Stranger","Top","w",650.136379,0.650136379,1,1
2,2,79,21,22,"STAR","TRIANGLE","CIRCLE","Stranger","Nonmatching","P1","Stranger","Bottom","w",733.489485,0.733489485,1,1
2,2,80,21,22,"STAR","TRIANGLE","CIRCLE","P2","Nonmatching","P1","P2","Top","w",716.857869,0.716857869,1,1
2,2,81,21,22,"STAR","TRIANGLE","CIRCLE","P2","Matching","P2","P2","Top","o",683.435537,0.683435537,1,1
2,2,82,21,22,"STAR","TRIANGLE","CIRCLE","P1","Matching","P1","P1","Top","o",766.797723,0.766797723,1,1
2,2,83,21,22,"STAR","TRIANGLE","CIRCLE","Stranger","Matching","Stranger","Stranger","Bottom","o",516.844999,0.516844999,1,1
2,2,84,21,22,"STAR","TRIANGLE","CIRCLE","P1","Nonmatching","Stranger","P1","Top","w",933.533149,0.933533149,1,1
2,2,85,21,22,"STAR","TRIANGLE","CIRCLE","P2","Matching","P2","P2","Bottom","o",516.837893,0.516837893,1,1
2,2,86,21,22,"STAR","TRIANGLE","CIRCLE","P1","Matching","P1","P1","Top","o",600.146387,0.600146387,1,1
2,2,87,21,22,"STAR","TRIANGLE","CIRCLE","Stranger","Nonmatching","P2","Stranger","Top","w",667.157651,0.667157651,1,1
2,2,88,21,22,"STAR","TRIANGLE","CIRCLE","P1","Matching","P1","P1","Bottom","o",483.490176,0.483490176,1,1
2,2,89,21,22,"STAR","TRIANGLE","CIRCLE","P1","Nonmatching","P2","P1","Bottom","w",933.473536,0.933473536,1,1
2,2,90,21,22,"STAR","TRIANGLE","CIRCLE","P1","Matching","P1","P1","Bottom","o",500.147453,0.500147453,1,1
2,2,91,21,22,"STAR","TRIANGLE","CIRCLE","Stranger","Nonmatching","P2","Stranger","Top","w",666.788919,0.666788919,1,1
2,2,92,21,22,"STAR","TRIANGLE","CIRCLE","P2","Nonmatching","Stranger","P2","Top","None",NA,NA,3,1
2,2,93,21,22,"STAR","TRIANGLE","CIRCLE","P2","Nonmatching","Stranger","P2","Bottom","o",800.145835,0.800145835,0,1
2,2,94,21,22,"STAR","TRIANGLE","CIRCLE","Stranger","Matching","Stranger","Stranger","Top","o",550.180872,0.550180872,1,1
2,2,95,21,22,"STAR","TRIANGLE","CIRCLE","P1","Matching","P1","P1","Top","w",566.833807,0.566833807,0,1
2,2,96,21,22,"STAR","TRIANGLE","CIRCLE","P2","Nonmatching","P1","P2","Top","w",1216.748315,1.216748315,1,1
2,2,97,21,22,"STAR","TRIANGLE","CIRCLE","P2","Matching","P2","P2","Bottom","o",716.837735,0.716837735,1,1
2,2,98,21,22,"STAR","TRIANGLE","CIRCLE","P2","Matching","P2","P2","Bottom","o",416.829089,0.416829089,1,1
2,2,99,21,22,"STAR","TRIANGLE","CIRCLE","P1","Matching","P1","P1","Bottom","o",583.52543,0.58352543,1,1
2,2,100,21,22,"STAR","TRIANGLE","CIRCLE","Stranger","Matching","Stranger","Stranger","Top","o",366.848966,0.366848966,1,1
2,2,101,21,22,"STAR","TRIANGLE","CIRCLE","P1","Nonmatching","Stranger","P1","Bottom","o",416.915942,0.416915942,0,1
2,2,102,21,22,"STAR","TRIANGLE","CIRCLE","P1","Matching","P1","P1","Bottom","o",566.746559,0.566746559,1,1
2,2,103,21,22,"STAR","TRIANGLE","CIRCLE","P1","Nonmatching","Stranger","P1","Bottom","w",716.823128,0.716823128,1,1
2,2,104,21,22,"STAR","TRIANGLE","CIRCLE","P1","Nonmatching","Stranger","P1","Top","w",766.810751,0.766810751,1,1
2,2,105,21,22,"STAR","TRIANGLE","CIRCLE","P1","Matching","P1","P1","Top","o",583.478451,0.583478451,1,1
2,2,106,21,22,"STAR","TRIANGLE","CIRCLE","P2","Matching","P2","P2","Bottom","w",650.171516,0.650171516,0,1
2,2,107,21,22,"STAR","TRIANGLE","CIRCLE","P2","Nonmatching","P1","P2","Top","None",NA,NA,3,1
2,2,108,21,22,"STAR","TRIANGLE","CIRCLE","P2","Matching","P2","P2","Top","o",700.182037,0.700182037,1,1
2,2,109,21,22,"STAR","TRIANGLE","CIRCLE","P2","Nonmatching","Stranger","P2","Bottom","w",983.471423,0.983471423,1,1
2,2,110,21,22,"STAR","TRIANGLE","CIRCLE","P1","Matching","P1","P1","Bottom","o",450.198124,0.450198124,1,1
2,2,111,21,22,"STAR","TRIANGLE","CIRCLE","P1","Nonmatching","P2","P1","Top","w",833.833069,0.833833069,1,1
2,2,112,21,22,"STAR","TRIANGLE","CIRCLE","P1","Matching","P1","P1","Bottom","o",666.802737,0.666802737,1,1
2,2,113,21,22,"STAR","TRIANGLE","CIRCLE","P2","Nonmatching","Stranger","P2","Top","w",883.475253,0.883475253,1,1
2,2,114,21,22,"STAR","TRIANGLE","CIRCLE","P2","Matching","P2","P2","Bottom","o",633.7519,0.6337519,1,1
2,2,115,21,22,"STAR","TRIANGLE","CIRCLE","P2","Nonmatching","P1","P2","Bottom","w",783.489742,0.783489742,1,1
2,2,116,21,22,"STAR","TRIANGLE","CIRCLE","Stranger","Matching","Stranger","Stranger","Top","o",483.496098,0.483496098,1,1
2,2,117,21,22,"STAR","TRIANGLE","CIRCLE","Stranger","Matching","Stranger","Stranger","Top","o",416.840933,0.416840933,1,1
2,2,118,21,22,"STAR","TRIANGLE","CIRCLE","Stranger","Matching","Stranger","Stranger","Bottom","o",400.207737,0.400207737,1,1
2,2,119,21,22,"STAR","TRIANGLE","CIRCLE","P1","Matching","P1","P1","Bottom","o",516.829602,0.516829602,1,1
2,2,120,21,22,"STAR","TRIANGLE","CIRCLE","Stranger","Matching","Stranger","Stranger","Bottom","o",533.496354,0.533496354,1,1
2,3,1,21,22,"TRIANGLE","CIRCLE","STAR","P2","Matching","P2","P2","Top","o",800.1257,0.8001257,1,2
2,3,2,21,22,"TRIANGLE","CIRCLE","STAR","P1","Matching","P1","P1","Top","o",416.877253,0.416877253,1,2
2,3,3,21,22,"TRIANGLE","CIRCLE","STAR","P2","Nonmatching","Stranger","P2","Top","None",NA,NA,3,2
2,3,4,21,22,"TRIANGLE","CIRCLE","STAR","P1","Matching","P1","P1","Bottom","o",766.85023,0.76685023,1,2
2,3,5,21,22,"TRIANGLE","CIRCLE","STAR","Stranger","Nonmatching","P1","Stranger","Bottom","o",483.505178,0.483505178,0,2
2,3,6,21,22,"TRIANGLE","CIRCLE","STAR","P1","Nonmatching","Stranger","P1","Bottom","w",866.778497,0.866778497,1,2
2,3,7,21,22,"TRIANGLE","CIRCLE","STAR","P1","Matching","P1","P1","Bottom","o",866.815607,0.866815607,1,2
2,3,8,21,22,"TRIANGLE","CIRCLE","STAR","P2","Nonmatching","Stranger","P2","Bottom","w",916.792966,0.916792966,1,2
2,3,9,21,22,"TRIANGLE","CIRCLE","STAR","P2","Nonmatching","Stranger","P2","Bottom","w",716.799835,0.716799835,1,2
2,3,10,21,22,"TRIANGLE","CIRCLE","STAR","P2","Matching","P2","P2","Top","o",616.853408,0.616853408,1,2
2,3,11,21,22,"TRIANGLE","CIRCLE","STAR","P2","Matching","P2","P2","Top","o",483.475964,0.483475964,1,2
2,3,12,21,22,"TRIANGLE","CIRCLE","STAR","P1","Nonmatching","Stranger","P1","Bottom","o",666.823661,0.666823661,0,2
2,3,13,21,22,"TRIANGLE","CIRCLE","STAR","Stranger","Nonmatching","P1","Stranger","Top","o",716.792334,0.716792334,0,2
2,3,14,21,22,"TRIANGLE","CIRCLE","STAR","Stranger","Nonmatching","P1","Stranger","Top","w",400.184445,0.400184445,1,2
2,3,15,21,22,"TRIANGLE","CIRCLE","STAR","Stranger","Nonmatching","P2","Stranger","Top","w",700.142558,0.700142558,1,2
2,3,16,21,22,"TRIANGLE","CIRCLE","STAR","Stranger","Nonmatching","P1","Stranger","Top","w",733.580681,0.733580681,1,2
2,3,17,21,22,"TRIANGLE","CIRCLE","STAR","P2","Matching","P2","P2","Bottom","o",616.819456,0.616819456,1,2
2,3,18,21,22,"TRIANGLE","CIRCLE","STAR","P2","Nonmatching","P1","P2","Bottom","w",683.438696,0.683438696,1,2
2,3,19,21,22,"TRIANGLE","CIRCLE","STAR","P2","Nonmatching","Stranger","P2","Top","w",750.184267,0.750184267,1,2
2,3,20,21,22,"TRIANGLE","CIRCLE","STAR","Stranger","Matching","Stranger","Stranger","Bottom","o",700.153217,0.700153217,1,2
2,3,21,21,22,"TRIANGLE","CIRCLE","STAR","P2","Nonmatching","Stranger","P2","Top","w",633.470022,0.633470022,1,2
2,3,22,21,22,"TRIANGLE","CIRCLE","STAR","P1","Nonmatching","P2","P1","Top","o",416.800664,0.416800664,0,2
2,3,23,21,22,"TRIANGLE","CIRCLE","STAR","Stranger","Matching","Stranger","Stranger","Top","w",1150.225009,1.150225009,0,2
2,3,24,21,22,"TRIANGLE","CIRCLE","STAR","Stranger","Matching","Stranger","Stranger","Bottom","w",433.481234,0.433481234,0,2
2,3,25,21,22,"TRIANGLE","CIRCLE","STAR","P2","Matching","P2","P2","Top","o",983.502612,0.983502612,1,2
2,3,26,21,22,"TRIANGLE","CIRCLE","STAR","Stranger","Nonmatching","P1","Stranger","Bottom","w",516.891189,0.516891189,1,2
2,3,27,21,22,"TRIANGLE","CIRCLE","STAR","P2","Nonmatching","Stranger","P2","Bottom","w",800.502723,0.800502723,1,2
2,3,28,21,22,"TRIANGLE","CIRCLE","STAR","Stranger","Nonmatching","P2","Stranger","Top","w",1166.769377,1.166769377,1,2
2,3,29,21,22,"TRIANGLE","CIRCLE","STAR","P1","Matching","P1","P1","Bottom","o",416.751711,0.416751711,1,2
2,3,30,21,22,"TRIANGLE","CIRCLE","STAR","P1","Nonmatching","Stranger","P1","Bottom","w",566.868548,0.566868548,1,2
2,3,31,21,22,"TRIANGLE","CIRCLE","STAR","P2","Matching","P2","P2","Bottom","o",516.835524,0.516835524,1,2
2,3,32,21,22,"TRIANGLE","CIRCLE","STAR","P1","Matching","P1","P1","Top","o",733.472904,0.733472904,1,2
2,3,33,21,22,"TRIANGLE","CIRCLE","STAR","P1","Nonmatching","Stranger","P1","Top","w",700.107027,0.700107027,1,2
2,3,34,21,22,"TRIANGLE","CIRCLE","STAR","Stranger","Nonmatching","P2","Stranger","Bottom","w",800.196367,0.800196367,1,2
2,3,35,21,22,"TRIANGLE","CIRCLE","STAR","P1","Matching","P1","P1","Bottom","o",566.831438,0.566831438,1,2
2,3,36,21,22,"TRIANGLE","CIRCLE","STAR","P2","Nonmatching","Stranger","P2","Top","w",433.493078,0.433493078,1,2
2,3,37,21,22,"TRIANGLE","CIRCLE","STAR","P2","Nonmatching","Stranger","P2","Bottom","w",483.489781,0.483489781,1,2
2,3,38,21,22,"TRIANGLE","CIRCLE","STAR","P1","Matching","P1","P1","Top","o",583.498585,0.583498585,1,2
2,3,39,21,22,"TRIANGLE","CIRCLE","STAR","Stranger","Nonmatching","P1","Stranger","Top","w",550.204954,0.550204954,1,2
2,3,40,21,22,"TRIANGLE","CIRCLE","STAR","P1","Nonmatching","P2","P1","Bottom","w",683.424878,0.683424878,1,2
2,3,41,21,22,"TRIANGLE","CIRCLE","STAR","Stranger","Matching","Stranger","Stranger","Top","w",750.150315,0.750150315,0,2
2,3,42,21,22,"TRIANGLE","CIRCLE","STAR","P2","Nonmatching","Stranger","P2","Bottom","w",933.557625,0.933557625,1,2
2,3,43,21,22,"TRIANGLE","CIRCLE","STAR","P2","Matching","P2","P2","Bottom","o",633.477128,0.633477128,1,2
2,3,44,21,22,"TRIANGLE","CIRCLE","STAR","Stranger","Matching","Stranger","Stranger","Top","o",500.168377,0.500168377,1,2
2,3,45,21,22,"TRIANGLE","CIRCLE","STAR","P1","Matching","P1","P1","Bottom","o",483.518601,0.483518601,1,2
2,3,46,21,22,"TRIANGLE","CIRCLE","STAR","Stranger","Matching","Stranger","Stranger","Top","o",350.173529,0.350173529,1,2
2,3,47,21,22,"TRIANGLE","CIRCLE","STAR","Stranger","Matching","Stranger","Stranger","Bottom","w",700.429569,0.700429569,0,2
2,3,48,21,22,"TRIANGLE","CIRCLE","STAR","P2","Matching","P2","P2","Bottom","o",450.165357,0.450165357,1,2
2,3,49,21,22,"TRIANGLE","CIRCLE","STAR","P2","Matching","P2","P2","Top","w",567.305973,0.567305973,0,2
2,3,50,21,22,"TRIANGLE","CIRCLE","STAR","P1","Nonmatching","P2","P1","Top","w",683.46712,0.68346712,1,2
2,3,51,21,22,"TRIANGLE","CIRCLE","STAR","Stranger","Nonmatching","P2","Stranger","Bottom","o",483.446749,0.483446749,0,2
2,3,52,21,22,"TRIANGLE","CIRCLE","STAR","P2","Nonmatching","P1","P2","Top","w",866.804158,0.866804158,1,2
2,3,53,21,22,"TRIANGLE","CIRCLE","STAR","P1","Matching","P1","P1","Top","o",433.494657,0.433494657,1,2
2,3,54,21,22,"TRIANGLE","CIRCLE","STAR","P2","Matching","P2","P2","Top","w",516.862764,0.516862764,0,2
2,3,55,21,22,"TRIANGLE","CIRCLE","STAR","P1","Nonmatching","P2","P1","Bottom","w",766.819042,0.766819042,1,2
2,3,56,21,22,"TRIANGLE","CIRCLE","STAR","Stranger","Nonmatching","P2","Stranger","Top","w",883.442091,0.883442091,1,2
2,3,57,21,22,"TRIANGLE","CIRCLE","STAR","P2","Nonmatching","P1","P2","Top","w",883.459856,0.883459856,1,2
2,3,58,21,22,"TRIANGLE","CIRCLE","STAR","P2","Nonmatching","Stranger","P2","Top","w",983.503007,0.983503007,1,2
2,3,59,21,22,"TRIANGLE","CIRCLE","STAR","Stranger","Nonmatching","P1","Stranger","Top","w",1233.455731,1.233455731,1,2
2,3,60,21,22,"TRIANGLE","CIRCLE","STAR","P1","Nonmatching","P2","P1","Bottom","w",816.794032,0.816794032,1,2
2,3,61,21,22,"TRIANGLE","CIRCLE","STAR","P1","Matching","P1","P1","Top","o",500.185353,0.500185353,1,2
2,3,62,21,22,"TRIANGLE","CIRCLE","STAR","Stranger","Matching","Stranger","Stranger","Bottom","o",750.138472,0.750138472,1,2
2,3,63,21,22,"TRIANGLE","CIRCLE","STAR","P2","Matching","P2","P2","Bottom","o",350.166423,0.350166423,1,2
2,3,64,21,22,"TRIANGLE","CIRCLE","STAR","P1","Matching","P1","P1","Top","o",450.164567,0.450164567,1,2
2,3,65,21,22,"TRIANGLE","CIRCLE","STAR","Stranger","Matching","Stranger","Stranger","Top","o",433.494657,0.433494657,1,2
2,3,66,21,22,"TRIANGLE","CIRCLE","STAR","P2","Nonmatching","P1","P2","Bottom","w",1233.462837,1.233462837,1,2
2,3,67,21,22,"TRIANGLE","CIRCLE","STAR","P1","Matching","P1","P1","Top","o",567.266889,0.567266889,1,2
2,3,68,21,22,"TRIANGLE","CIRCLE","STAR","P1","Matching","P1","P1","Top","w",333.5277,0.3335277,0,2
2,3,69,21,22,"TRIANGLE","CIRCLE","STAR","P1","Nonmatching","Stranger","P1","Bottom","w",1266.878062,1.266878062,1,2
2,3,70,21,22,"TRIANGLE","CIRCLE","STAR","P1","Nonmatching","Stranger","P1","Top","w",666.796025,0.666796025,1,2
2,3,71,21,22,"TRIANGLE","CIRCLE","STAR","P2","Nonmatching","P1","P2","Top","w",750.05833,0.75005833,1,2
2,3,72,21,22,"TRIANGLE","CIRCLE","STAR","Stranger","Nonmatching","P2","Stranger","Bottom","o",616.843933,0.616843933,0,2
2,3,73,21,22,"TRIANGLE","CIRCLE","STAR","Stranger","Matching","Stranger","Stranger","Top","w",883.494598,0.883494598,0,2
2,3,74,21,22,"TRIANGLE","CIRCLE","STAR","P2","Nonmatching","P1","P2","Top","w",1433.446493,1.433446493,1,2
2,3,75,21,22,"TRIANGLE","CIRCLE","STAR","P1","Matching","P1","P1","Bottom","o",483.497677,0.483497677,1,2
2,3,76,21,22,"TRIANGLE","CIRCLE","STAR","P2","Matching","P2","P2","Bottom","o",550.156,0.550156,1,2
2,3,77,21,22,"TRIANGLE","CIRCLE","STAR","P2","Nonmatching","P1","P2","Bottom","o",533.512541,0.533512541,0,2
2,3,78,21,22,"TRIANGLE","CIRCLE","STAR","Stranger","Nonmatching","P2","Stranger","Top","w",883.472095,0.883472095,1,2
2,3,79,21,22,"TRIANGLE","CIRCLE","STAR","P1","Nonmatching","P2","P1","Top","w",766.815883,0.766815883,1,2
2,3,80,21,22,"TRIANGLE","CIRCLE","STAR","Stranger","Matching","Stranger","Stranger","Bottom","o",683.483701,0.683483701,1,2
2,3,81,21,22,"TRIANGLE","CIRCLE","STAR","P1","Nonmatching","Stranger","P1","Top","w",966.810593,0.966810593,1,2
2,3,82,21,22,"TRIANGLE","CIRCLE","STAR","Stranger","Matching","Stranger","Stranger","Bottom","o",800.155309,0.800155309,1,2
2,3,83,21,22,"TRIANGLE","CIRCLE","STAR","P1","Matching","P1","P1","Bottom","o",583.503322,0.583503322,1,2
2,3,84,21,22,"TRIANGLE","CIRCLE","STAR","P1","Matching","P1","P1","Bottom","o",516.843814,0.516843814,1,2
2,3,85,21,22,"TRIANGLE","CIRCLE","STAR","P2","Nonmatching","P1","P2","Bottom","w",516.820917,0.516820917,1,2
2,3,86,21,22,"TRIANGLE","CIRCLE","STAR","P1","Nonmatching","P2","P1","Bottom","w",683.517258,0.683517258,1,2
2,3,87,21,22,"TRIANGLE","CIRCLE","STAR","Stranger","Matching","Stranger","Stranger","Top","o",650.167568,0.650167568,1,2
2,3,88,21,22,"TRIANGLE","CIRCLE","STAR","P2","Matching","P2","P2","Top","o",450.225365,0.450225365,1,2
2,3,89,21,22,"TRIANGLE","CIRCLE","STAR","P2","Matching","P2","P2","Top","o",433.510053,0.433510053,1,2
2,3,90,21,22,"TRIANGLE","CIRCLE","STAR","P2","Matching","P2","P2","Top","o",400.18405,0.40018405,1,2
2,3,91,21,22,"TRIANGLE","CIRCLE","STAR","Stranger","Nonmatching","P2","Stranger","Bottom","w",700.161902,0.700161902,1,2
2,3,92,21,22,"TRIANGLE","CIRCLE","STAR","Stranger","Nonmatching","P1","Stranger","Bottom","o",516.844604,0.516844604,0,2
2,3,93,21,22,"TRIANGLE","CIRCLE","STAR","P1","Nonmatching","P2","P1","Bottom","w",733.475667,0.733475667,1,2
2,3,94,21,22,"TRIANGLE","CIRCLE","STAR","P2","Matching","P2","P2","Bottom","o",650.169936,0.650169936,1,2
2,3,95,21,22,"TRIANGLE","CIRCLE","STAR","Stranger","Nonmatching","P1","Stranger","Bottom","w",450.18786,0.45018786,1,2
2,3,96,21,22,"TRIANGLE","CIRCLE","STAR","Stranger","Nonmatching","P2","Stranger","Bottom","w",750.167686,0.750167686,1,2
2,3,97,21,22,"TRIANGLE","CIRCLE","STAR","Stranger","Matching","Stranger","Stranger","Bottom","o",666.786551,0.666786551,1,2
2,3,98,21,22,"TRIANGLE","CIRCLE","STAR","P1","Matching","P1","P1","Top","o",516.813811,0.516813811,1,2
2,3,99,21,22,"TRIANGLE","CIRCLE","STAR","Stranger","Matching","Stranger","Stranger","Top","w",433.483603,0.433483603,0,2
2,3,100,21,22,"TRIANGLE","CIRCLE","STAR","P1","Nonmatching","Stranger","P1","Top","w",1016.807691,1.016807691,1,2
2,3,101,21,22,"TRIANGLE","CIRCLE","STAR","P2","Nonmatching","P1","P2","Bottom","w",1050.129747,1.050129747,1,2
2,3,102,21,22,"TRIANGLE","CIRCLE","STAR","Stranger","Matching","Stranger","Stranger","Bottom","o",600.108488,0.600108488,1,2
2,3,103,21,22,"TRIANGLE","CIRCLE","STAR","P1","Nonmatching","Stranger","P1","Top","w",816.784952,0.816784952,1,2
2,3,104,21,22,"TRIANGLE","CIRCLE","STAR","Stranger","Matching","Stranger","Stranger","Top","o",400.172206,0.400172206,1,2
2,3,105,21,22,"TRIANGLE","CIRCLE","STAR","P1","Matching","P1","P1","Bottom","o",583.915086,0.583915086,1,2
2,3,106,21,22,"TRIANGLE","CIRCLE","STAR","P2","Matching","P2","P2","Bottom","o",367.237832,0.367237832,1,2
2,3,107,21,22,"TRIANGLE","CIRCLE","STAR","Stranger","Nonmatching","P2","Stranger","Top","o",383.487294,0.383487294,0,2
2,3,108,21,22,"TRIANGLE","CIRCLE","STAR","P2","Matching","P2","P2","Bottom","o",616.806823,0.616806823,1,2
2,3,109,21,22,"TRIANGLE","CIRCLE","STAR","P2","Matching","P2","P2","Bottom","o",483.481885,0.483481885,1,2
2,3,110,21,22,"TRIANGLE","CIRCLE","STAR","P1","Matching","P1","P1","Bottom","o",466.851454,0.466851454,1,2
2,3,111,21,22,"TRIANGLE","CIRCLE","STAR","Stranger","Matching","Stranger","Stranger","Top","o",733.763862,0.733763862,1,2
2,3,112,21,22,"TRIANGLE","CIRCLE","STAR","Stranger","Nonmatching","P1","Stranger","Bottom","o",650.146249,0.650146249,0,2
2,3,113,21,22,"TRIANGLE","CIRCLE","STAR","P2","Nonmatching","P1","P2","Top","w",766.826543,0.766826543,1,2
2,3,114,21,22,"TRIANGLE","CIRCLE","STAR","P1","Nonmatching","Stranger","P1","Bottom","w",666.831951,0.666831951,1,2
2,3,115,21,22,"TRIANGLE","CIRCLE","STAR","Stranger","Matching","Stranger","Stranger","Bottom","o",400.16589,0.40016589,1,2
2,3,116,21,22,"TRIANGLE","CIRCLE","STAR","P1","Nonmatching","P2","P1","Top","w",350.170371,0.350170371,1,2
2,3,117,21,22,"TRIANGLE","CIRCLE","STAR","P2","Matching","P2","P2","Top","o",850.146091,0.850146091,1,2
2,3,118,21,22,"TRIANGLE","CIRCLE","STAR","P1","Nonmatching","P2","P1","Top","w",733.493828,0.733493828,1,2
2,3,119,21,22,"TRIANGLE","CIRCLE","STAR","P1","Matching","P1","P1","Top","o",450.155487,0.450155487,1,2
2,3,120,21,22,"TRIANGLE","CIRCLE","STAR","Stranger","Matching","Stranger","Stranger","Bottom","w",500.156928,0.500156928,0,2
2,4,1,21,22,"TRIANGLE","CIRCLE","STAR","P1","Matching","P1","P1","Bottom","o",766.815488,0.766815488,1,2
2,4,2,21,22,"TRIANGLE","CIRCLE","STAR","P2","Matching","P2","P2","Bottom","o",567.305578,0.567305578,1,2
2,4,3,21,22,"TRIANGLE","CIRCLE","STAR","Stranger","Matching","Stranger","Stranger","Top","o",300.190248,0.300190248,1,2
2,4,4,21,22,"TRIANGLE","CIRCLE","STAR","P1","Nonmatching","P2","P1","Top","w",583.415679,0.583415679,1,2
2,4,5,21,22,"TRIANGLE","CIRCLE","STAR","Stranger","Nonmatching","P2","Stranger","Bottom","w",716.836945,0.716836945,1,2
2,4,6,21,22,"TRIANGLE","CIRCLE","STAR","P1","Nonmatching","Stranger","P1","Top","o",616.826957,0.616826957,0,2
2,4,7,21,22,"TRIANGLE","CIRCLE","STAR","P2","Matching","P2","P2","Top","o",616.811166,0.616811166,1,2
2,4,8,21,22,"TRIANGLE","CIRCLE","STAR","P1","Matching","P1","P1","Top","o",633.491341,0.633491341,1,2
2,4,9,21,22,"TRIANGLE","CIRCLE","STAR","P2","Nonmatching","P1","P2","Bottom","w",717.089609,0.717089609,1,2
2,4,10,21,22,"TRIANGLE","CIRCLE","STAR","P2","Nonmatching","Stranger","P2","Bottom","o",600.174417,0.600174417,0,2
2,4,11,21,22,"TRIANGLE","CIRCLE","STAR","P2","Matching","P2","P2","Top","w",650.164015,0.650164015,0,2
2,4,12,21,22,"TRIANGLE","CIRCLE","STAR","Stranger","Nonmatching","P1","Stranger","Top","None",NA,NA,3,2
2,4,13,21,22,"TRIANGLE","CIRCLE","STAR","Stranger","Matching","Stranger","Stranger","Bottom","o",1116.861896,1.116861896,1,2
2,4,14,21,22,"TRIANGLE","CIRCLE","STAR","Stranger","Matching","Stranger","Stranger","Bottom","o",533.58755,0.53358755,1,2
2,4,15,21,22,"TRIANGLE","CIRCLE","STAR","P2","Matching","P2","P2","Top","o",400.154441,0.400154441,1,2
2,4,16,21,22,"TRIANGLE","CIRCLE","STAR","Stranger","Nonmatching","P2","Stranger","Top","o",433.49742,0.43349742,0,2
2,4,17,21,22,"TRIANGLE","CIRCLE","STAR","Stranger","Matching","Stranger","Stranger","Top","o",1366.784221,1.366784221,1,2
2,4,18,21,22,"TRIANGLE","CIRCLE","STAR","P2","Matching","P2","P2","Bottom","o",533.491617,0.533491617,1,2
2,4,19,21,22,"TRIANGLE","CIRCLE","STAR","P2","Matching","P2","P2","Bottom","o",516.8146,0.5168146,1,2
2,4,20,21,22,"TRIANGLE","CIRCLE","STAR","Stranger","Nonmatching","P1","Stranger","Bottom","o",366.816989,0.366816989,0,2
2,4,21,21,22,"TRIANGLE","CIRCLE","STAR","P1","Nonmatching","Stranger","P1","Bottom","w",900.121871,0.900121871,1,2
2,4,22,21,22,"TRIANGLE","CIRCLE","STAR","Stranger","Nonmatching","P2","Stranger","Top","w",717.125535,0.717125535,1,2
2,4,23,21,22,"TRIANGLE","CIRCLE","STAR","Stranger","Matching","Stranger","Stranger","Bottom","o",900.078444,0.900078444,1,2
2,4,24,21,22,"TRIANGLE","CIRCLE","STAR","P1","Matching","P1","P1","Top","o",516.826049,0.516826049,1,2
2,4,25,21,22,"TRIANGLE","CIRCLE","STAR","P2","Matching","P2","P2","Top","o",517.115428,0.517115428,1,2
2,4,26,21,22,"TRIANGLE","CIRCLE","STAR","P1","Matching","P1","P1","Top","o",616.827352,0.616827352,1,2
2,4,27,21,22,"TRIANGLE","CIRCLE","STAR","Stranger","Nonmatching","P1","Stranger","Top","o",350.172739,0.350172739,0,2
2,4,28,21,22,"TRIANGLE","CIRCLE","STAR","P1","Matching","P1","P1","Top","o",583.560567,0.583560567,1,2
2,4,29,21,22,"TRIANGLE","CIRCLE","STAR","Stranger","Matching","Stranger","Stranger","Bottom","o",650.156119,0.650156119,1,2
2,4,30,21,22,"TRIANGLE","CIRCLE","STAR","Stranger","Nonmatching","P1","Stranger","Top","w",850.138985,0.850138985,1,2
2,4,31,21,22,"TRIANGLE","CIRCLE","STAR","Stranger","Nonmatching","P1","Stranger","Bottom","o",566.844861,0.566844861,0,2
2,4,32,21,22,"TRIANGLE","CIRCLE","STAR","P1","Nonmatching","P2","P1","Bottom","w",800.132807,0.800132807,1,2
2,4,33,21,22,"TRIANGLE","CIRCLE","STAR","Stranger","Matching","Stranger","Stranger","Bottom","o",783.494479,0.783494479,1,2
2,4,34,21,22,"TRIANGLE","CIRCLE","STAR","Stranger","Matching","Stranger","Stranger","Top","w",516.836708,0.516836708,0,2
2,4,35,21,22,"TRIANGLE","CIRCLE","STAR","P1","Nonmatching","P2","P1","Top","w",733.466587,0.733466587,1,2
2,4,36,21,22,"TRIANGLE","CIRCLE","STAR","P1","Matching","P1","P1","Top","o",616.827747,0.616827747,1,2
2,4,37,21,22,"TRIANGLE","CIRCLE","STAR","P2","Nonmatching","P1","P2","Bottom","w",767.108026,0.767108026,1,2
2,4,38,21,22,"TRIANGLE","CIRCLE","STAR","P2","Matching","P2","P2","Bottom","o",833.504605,0.833504605,1,2
2,4,39,21,22,"TRIANGLE","CIRCLE","STAR","P2","Nonmatching","P1","P2","Bottom","w",866.787577,0.866787577,1,2
2,4,40,21,22,"TRIANGLE","CIRCLE","STAR","Stranger","Nonmatching","P2","Stranger","Bottom","w",800.155309,0.800155309,1,2
2,4,41,21,22,"TRIANGLE","CIRCLE","STAR","P2","Matching","P2","P2","Bottom","o",383.482162,0.383482162,1,2
2,4,42,21,22,"TRIANGLE","CIRCLE","STAR","Stranger","Nonmatching","P2","Stranger","Top","w",750.182293,0.750182293,1,2
2,4,43,21,22,"TRIANGLE","CIRCLE","STAR","Stranger","Matching","Stranger","Stranger","Bottom","o",600.157836,0.600157836,1,2
2,4,44,21,22,"TRIANGLE","CIRCLE","STAR","P1","Nonmatching","Stranger","P1","Bottom","w",566.83657,0.56683657,1,2
