SessionDate,Subject,Age,Handedness,MotherTongue,Sex,Procedure[SubTrial],LabelOrder,BlockType,CloseShape,CloseWord,MediumShape,MediumWord,FarShape,FarWord,Target.ACC,Target.CRESP,Target.RESP,Target.RT,Congruent,Incongruent,Stimulus,Word
11-20-2016,8,27,right,Hebrew,female,Assos,USF,,triangle.bmp,Self,square.bmp,Friend,circle.bmp,Stranger,,,,,m,z,,
11-20-2016,8,27,right,Hebrew,female,PracProc,USF,MediumBlock,triangle.bmp,Self,square.bmp,Friend,circle.bmp,Stranger,,,,,m,z,circle.bmp,Friend
11-20-2016,8,27,right,Hebrew,female,PracProc,USF,MediumBlock,triangle.bmp,Self,square.bmp,Friend,circle.bmp,Stranger,,,,,m,z,square.bmp,Friend
11-20-2016,8,27,right,Hebrew,female,PracProc,USF,CloseBlock,triangle.bmp,Self,square.bmp,Friend,circle.bmp,Stranger,,,,,m,z,triangle.bmp,Self
11-20-2016,8,27,right,Hebrew,female,PracProc,USF,FarBlock,triangle.bmp,Self,square.bmp,Friend,circle.bmp,Stranger,,,,,m,z,square.bmp,Stranger
11-20-2016,8,27,right,Hebrew,female,PracProc,USF,MediumBlock,triangle.bmp,Self,square.bmp,Friend,circle.bmp,Stranger,,,,,m,z,square.bmp,Friend
11-20-2016,8,27,right,Hebrew,female,PracProc,USF,CloseBlock,triangle.bmp,Self,square.bmp,Friend,circle.bmp,Stranger,,,,,m,z,square.bmp,Self
11-20-2016,8,27,right,Hebrew,female,PracProc,USF,CloseBlock,triangle.bmp,Self,square.bmp,Friend,circle.bmp,Stranger,,,,,m,z,triangle.bmp,Self
11-20-2016,8,27,right,Hebrew,female,PracProc,USF,MediumBlock,triangle.bmp,Self,square.bmp,Friend,circle.bmp,Stranger,,,,,m,z,triangle.bmp,Friend
11-20-2016,8,27,right,Hebrew,female,PracProc,USF,FarBlock,triangle.bmp,Self,square.bmp,Friend,circle.bmp,Stranger,,,,,m,z,triangle.bmp,Stranger
11-20-2016,8,27,right,Hebrew,female,PracProc,USF,FarBlock,triangle.bmp,Self,square.bmp,Friend,circle.bmp,Stranger,,,,,m,z,circle.bmp,Stranger
11-20-2016,8,27,right,Hebrew,female,PracProc,USF,FarBlock,triangle.bmp,Self,square.bmp,Friend,circle.bmp,Stranger,,,,,m,z,circle.bmp,Stranger
11-20-2016,8,27,right,Hebrew,female,PracProc,USF,CloseBlock,triangle.bmp,Self,square.bmp,Friend,circle.bmp,Stranger,,,,,m,z,circle.bmp,Self
11-20-2016,8,27,right,Hebrew,female,FBbreak,USF,,triangle.bmp,Self,square.bmp,Friend,circle.bmp,Stranger,,,,,m,z,,
11-20-2016,8,27,right,Hebrew,female,inst,USF,,triangle.bmp,Self,square.bmp,Friend,circle.bmp,Stranger,,,,,m,z,,
11-20-2016,8,27,right,Hebrew,female,MMProc,USF,MediumBlock,triangle.bmp,Self,square.bmp,Friend,circle.bmp,Stranger,0,m,z,1389,m,z,square.bmp,Friend
11-20-2016,8,27,right,Hebrew,female,MMProc,USF,MediumBlock,triangle.bmp,Self,square.bmp,Friend,circle.bmp,Stranger,1,z,z,2581,m,z,triangle.bmp,Friend
11-20-2016,8,27,right,Hebrew,female,MMProc,USF,MediumBlock,triangle.bmp,Self,square.bmp,Friend,circle.bmp,Stranger,1,m,m,3013,m,z,square.bmp,Friend
11-20-2016,8,27,right,Hebrew,female,MMProc,USF,MediumBlock,triangle.bmp,Self,square.bmp,Friend,circle.bmp,Stranger,1,m,m,979,m,z,square.bmp,Friend
11-20-2016,8,27,right,Hebrew,female,MMProc,USF,CloseBlock,triangle.bmp,Self,square.bmp,Friend,circle.bmp,Stranger,1,z,z,917,m,z,square.bmp,Self
11-20-2016,8,27,right,Hebrew,female,MMProc,USF,FarBlock,triangle.bmp,Self,square.bmp,Friend,circle.bmp,Stranger,1,m,m,1289,m,z,circle.bmp,Stranger
11-20-2016,8,27,right,Hebrew,female,MMProc,USF,CloseBlock,triangle.bmp,Self,square.bmp,Friend,circle.bmp,Stranger,1,z,z,1326,m,z,circle.bmp,Self
11-20-2016,8,27,right,Hebrew,female,MMProc,USF,CloseBlock,triangle.bmp,Self,square.bmp,Friend,circle.bmp,Stranger,1,z,z,1201,m,z,circle.bmp,Self
11-20-2016,8,27,right,Hebrew,female,MMProc,USF,FarBlock,triangle.bmp,Self,square.bmp,Friend,circle.bmp,Stranger,1,z,z,1322,m,z,square.bmp,Stranger
11-20-2016,8,27,right,Hebrew,female,MMProc,USF,FarBlock,triangle.bmp,Self,square.bmp,Friend,circle.bmp,Stranger,1,m,m,1244,m,z,circle.bmp,Stranger
11-20-2016,8,27,right,Hebrew,female,MMProc,USF,CloseBlock,triangle.bmp,Self,square.bmp,Friend,circle.bmp,Stranger,1,m,m,1010,m,z,triangle.bmp,Self
11-20-2016,8,27,right,Hebrew,female,MMProc,USF,FarBlock,triangle.bmp,Self,square.bmp,Friend,circle.bmp,Stranger,1,z,z,1042,m,z,triangle.bmp,Stranger
11-20-2016,8,27,right,Hebrew,female,MMProc,USF,CloseBlock,triangle.bmp,Self,square.bmp,Friend,circle.bmp,Stranger,1,z,z,1297,m,z,square.bmp,Self
11-20-2016,8,27,right,Hebrew,female,MMProc,USF,CloseBlock,triangle.bmp,Self,square.bmp,Friend,circle.bmp,Stranger,1,m,m,1078,m,z,triangle.bmp,Self
11-20-2016,8,27,right,Hebrew,female,MMProc,USF,CloseBlock,triangle.bmp,Self,square.bmp,Friend,circle.bmp,Stranger,1,z,z,1459,m,z,circle.bmp,Self
11-20-2016,8,27,right,Hebrew,female,MMProc,USF,CloseBlock,triangle.bmp,Self,square.bmp,Friend,circle.bmp,Stranger,1,m,m,785,m,z,triangle.bmp,Self
11-20-2016,8,27,right,Hebrew,female,MMProc,USF,CloseBlock,triangle.bmp,Self,square.bmp,Friend,circle.bmp,Stranger,1,m,m,874,m,z,triangle.bmp,Self
11-20-2016,8,27,right,Hebrew,female,MMProc,USF,CloseBlock,triangle.bmp,Self,square.bmp,Friend,circle.bmp,Stranger,1,m,m,608,m,z,triangle.bmp,Self
11-20-2016,8,27,right,Hebrew,female,MMProc,USF,CloseBlock,triangle.bmp,Self,square.bmp,Friend,circle.bmp,Stranger,1,m,m,448,m,z,triangle.bmp,Self
11-20-2016,8,27,right,Hebrew,female,MMProc,USF,FarBlock,triangle.bmp,Self,square.bmp,Friend,circle.bmp,Stranger,1,m,m,1032,m,z,circle.bmp,Stranger
11-20-2016,8,27,right,Hebrew,female,MMProc,USF,MediumBlock,triangle.bmp,Self,square.bmp,Friend,circle.bmp,Stranger,1,z,z,1015,m,z,triangle.bmp,Friend
11-20-2016,8,27,right,Hebrew,female,MMProc,USF,FarBlock,triangle.bmp,Self,square.bmp,Friend,circle.bmp,Stranger,1,m,m,1480,m,z,circle.bmp,Stranger
11-20-2016,8,27,right,Hebrew,female,MMProc,USF,FarBlock,triangle.bmp,Self,square.bmp,Friend,circle.bmp,Stranger,1,m,m,565,m,z,circle.bmp,Stranger
11-20-2016,8,27,right,Hebrew,female,MMProc,USF,FarBlock,triangle.bmp,Self,square.bmp,Friend,circle.bmp,Stranger,1,m,m,503,m,z,circle.bmp,Stranger
11-20-2016,8,27,right,Hebrew,female,MMProc,USF,FarBlock,triangle.bmp,Self,square.bmp,Friend,circle.bmp,Stranger,1,m,m,781,m,z,circle.bmp,Stranger
11-20-2016,8,27,right,Hebrew,female,MMProc,USF,MediumBlock,triangle.bmp,Self,square.bmp,Friend,circle.bmp,Stranger,0,z,m,2550,m,z,triangle.bmp,Friend
11-20-2016,8,27,right,Hebrew,female,MMProc,USF,MediumBlock,triangle.bmp,Self,square.bmp,Friend,circle.bmp,Stranger,1,m,m,1599,m,z,square.bmp,Friend
11-20-2016,8,27,right,Hebrew,female,MMProc,USF,CloseBlock,triangle.bmp,Self,square.bmp,Friend,circle.bmp,Stranger,1,z,z,1159,m,z,square.bmp,Self
11-20-2016,8,27,right,Hebrew,female,MMProc,USF,MediumBlock,triangle.bmp,Self,square.bmp,Friend,circle.bmp,Stranger,1,z,z,1712,m,z,circle.bmp,Friend
11-20-2016,8,27,right,Hebrew,female,MMProc,USF,CloseBlock,triangle.bmp,Self,square.bmp,Friend,circle.bmp,Stranger,1,m,m,948,m,z,triangle.bmp,Self
11-20-2016,8,27,right,Hebrew,female,MMProc,USF,MediumBlock,triangle.bmp,Self,square.bmp,Friend,circle.bmp,Stranger,1,m,m,3606,m,z,square.bmp,Friend
11-20-2016,8,27,right,Hebrew,female,MMProc,USF,FarBlock,triangle.bmp,Self,square.bmp,Friend,circle.bmp,Stranger,1,z,z,1453,m,z,triangle.bmp,Stranger
11-20-2016,8,27,right,Hebrew,female,MMProc,USF,FarBlock,triangle.bmp,Self,square.bmp,Friend,circle.bmp,Stranger,1,z,z,1692,m,z,triangle.bmp,Stranger
11-20-2016,8,27,right,Hebrew,female,MMProc,USF,CloseBlock,triangle.bmp,Self,square.bmp,Friend,circle.bmp,Stranger,1,m,m,1968,m,z,triangle.bmp,Self
11-20-2016,8,27,right,Hebrew,female,MMProc,USF,CloseBlock,triangle.bmp,Self,square.bmp,Friend,circle.bmp,Stranger,1,m,m,761,m,z,triangle.bmp,Self
11-20-2016,8,27,right,Hebrew,female,MMProc,USF,FarBlock,triangle.bmp,Self,square.bmp,Friend,circle.bmp,Stranger,0,z,m,371,m,z,triangle.bmp,Stranger
11-20-2016,8,27,right,Hebrew,female,MMProc,USF,FarBlock,triangle.bmp,Self,square.bmp,Friend,circle.bmp,Stranger,1,z,z,1557,m,z,square.bmp,Stranger
11-20-2016,8,27,right,Hebrew,female,MMProc,USF,MediumBlock,triangle.bmp,Self,square.bmp,Friend,circle.bmp,Stranger,1,m,m,1552,m,z,square.bmp,Friend
11-20-2016,8,27,right,Hebrew,female,MMProc,USF,MediumBlock,triangle.bmp,Self,square.bmp,Friend,circle.bmp,Stranger,1,m,m,906,m,z,square.bmp,Friend
11-20-2016,8,27,right,Hebrew,female,MMProc,USF,FarBlock,triangle.bmp,Self,square.bmp,Friend,circle.bmp,Stranger,1,m,m,1615,m,z,circle.bmp,Stranger
11-20-2016,8,27,right,Hebrew,female,MMProc,USF,FarBlock,triangle.bmp,Self,square.bmp,Friend,circle.bmp,Stranger,1,m,m,582,m,z,circle.bmp,Stranger
11-20-2016,8,27,right,Hebrew,female,MMProc,USF,CloseBlock,triangle.bmp,Self,square.bmp,Friend,circle.bmp,Stranger,1,m,m,888,m,z,triangle.bmp,Self
11-20-2016,8,27,right,Hebrew,female,MMProc,USF,FarBlock,triangle.bmp,Self,square.bmp,Friend,circle.bmp,Stranger,1,z,z,990,m,z,triangle.bmp,Stranger
11-20-2016,8,27,right,Hebrew,female,MMProc,USF,FarBlock,triangle.bmp,Self,square.bmp,Friend,circle.bmp,Stranger,1,m,m,1167,m,z,circle.bmp,Stranger
11-20-2016,8,27,right,Hebrew,female,MMProc,USF,MediumBlock,triangle.bmp,Self,square.bmp,Friend,circle.bmp,Stranger,1,z,z,3048,m,z,triangle.bmp,Friend
11-20-2016,8,27,right,Hebrew,female,MMProc,USF,MediumBlock,triangle.bmp,Self,square.bmp,Friend,circle.bmp,Stranger,1,z,z,1189,m,z,triangle.bmp,Friend
11-20-2016,8,27,right,Hebrew,female,MMProc,USF,MediumBlock,triangle.bmp,Self,square.bmp,Friend,circle.bmp,Stranger,1,z,z,1134,m,z,circle.bmp,Friend
11-20-2016,8,27,right,Hebrew,female,MMProc,USF,FarBlock,triangle.bmp,Self,square.bmp,Friend,circle.bmp,Stranger,1,m,m,1642,m,z,circle.bmp,Stranger
11-20-2016,8,27,right,Hebrew,female,MMProc,USF,MediumBlock,triangle.bmp,Self,square.bmp,Friend,circle.bmp,Stranger,1,m,m,1680,m,z,square.bmp,Friend
11-20-2016,8,27,right,Hebrew,female,MMProc,USF,CloseBlock,triangle.bmp,Self,square.bmp,Friend,circle.bmp,Stranger,1,z,z,1524,m,z,circle.bmp,Self
11-20-2016,8,27,right,Hebrew,female,MMProc,USF,FarBlock,triangle.bmp,Self,square.bmp,Friend,circle.bmp,Stranger,1,z,z,2271,m,z,square.bmp,Stranger
11-20-2016,8,27,right,Hebrew,female,MMProc,USF,FarBlock,triangle.bmp,Self,square.bmp,Friend,circle.bmp,Stranger,1,z,z,2364,m,z,triangle.bmp,Stranger
11-20-2016,8,27,right,Hebrew,female,MMProc,USF,CloseBlock,triangle.bmp,Self,square.bmp,Friend,circle.bmp,Stranger,1,z,z,1973,m,z,circle.bmp,Self
11-20-2016,8,27,right,Hebrew,female,MMProc,USF,FarBlock,triangle.bmp,Self,square.bmp,Friend,circle.bmp,Stranger,1,m,m,2334,m,z,circle.bmp,Stranger
11-20-2016,8,27,right,Hebrew,female,MMProc,USF,FarBlock,triangle.bmp,Self,square.bmp,Friend,circle.bmp,Stranger,1,z,z,1080,m,z,triangle.bmp,Stranger
11-20-2016,8,27,right,Hebrew,female,MMProc,USF,CloseBlock,triangle.bmp,Self,square.bmp,Friend,circle.bmp,Stranger,1,m,m,1542,m,z,triangle.bmp,Self
11-20-2016,8,27,right,Hebrew,female,MMProc,USF,MediumBlock,triangle.bmp,Self,square.bmp,Friend,circle.bmp,Stranger,1,m,m,1697,m,z,square.bmp,Friend
11-20-2016,8,27,right,Hebrew,female,MMProc,USF,CloseBlock,triangle.bmp,Self,square.bmp,Friend,circle.bmp,Stranger,1,m,m,1525,m,z,triangle.bmp,Self
11-20-2016,8,27,right,Hebrew,female,MMProc,USF,CloseBlock,triangle.bmp,Self,square.bmp,Friend,circle.bmp,Stranger,1,z,z,864,m,z,square.bmp,Self
11-20-2016,8,27,right,Hebrew,female,MMProc,USF,CloseBlock,triangle.bmp,Self,square.bmp,Friend,circle.bmp,Stranger,1,z,z,1109,m,z,circle.bmp,Self
11-20-2016,8,27,right,Hebrew,female,MMProc,USF,MediumBlock,triangle.bmp,Self,square.bmp,Friend,circle.bmp,Stranger,1,m,m,1233,m,z,square.bmp,Friend
11-20-2016,8,27,right,Hebrew,female,MMProc,USF,MediumBlock,triangle.bmp,Self,square.bmp,Friend,circle.bmp,Stranger,1,m,m,760,m,z,square.bmp,Friend
11-20-2016,8,27,right,Hebrew,female,MMProc,USF,MediumBlock,triangle.bmp,Self,square.bmp,Friend,circle.bmp,Stranger,1,z,z,914,m,z,circle.bmp,Friend
11-20-2016,8,27,right,Hebrew,female,MMProc,USF,MediumBlock,triangle.bmp,Self,square.bmp,Friend,circle.bmp,Stranger,1,z,z,2503,m,z,triangle.bmp,Friend
11-20-2016,8,27,right,Hebrew,female,MMProc,USF,MediumBlock,triangle.bmp,Self,square.bmp,Friend,circle.bmp,Stranger,1,m,m,859,m,z,square.bmp,Friend
11-20-2016,8,27,right,Hebrew,female,MMProc,USF,FarBlock,triangle.bmp,Self,square.bmp,Friend,circle.bmp,Stranger,1,z,z,1617,m,z,triangle.bmp,Stranger
11-20-2016,8,27,right,Hebrew,female,MMProc,USF,FarBlock,triangle.bmp,Self,square.bmp,Friend,circle.bmp,Stranger,1,z,z,1001,m,z,square.bmp,Stranger
11-20-2016,8,27,right,Hebrew,female,MMProc,USF,MediumBlock,triangle.bmp,Self,square.bmp,Friend,circle.bmp,Stranger,1,z,z,1386,m,z,triangle.bmp,Friend
11-20-2016,8,27,right,Hebrew,female,MMProc,USF,FarBlock,triangle.bmp,Self,square.bmp,Friend,circle.bmp,Stranger,1,z,z,1100,m,z,square.bmp,Stranger
11-20-2016,8,27,right,Hebrew,female,MMProc,USF,CloseBlock,triangle.bmp,Self,square.bmp,Friend,circle.bmp,Stranger,1,m,m,760,m,z,triangle.bmp,Self
11-20-2016,8,27,right,Hebrew,female,MMProc,USF,CloseBlock,triangle.bmp,Self,square.bmp,Friend,circle.bmp,Stranger,1,z,z,899,m,z,square.bmp,Self
11-20-2016,8,27,right,Hebrew,female,MMProc,USF,FarBlock,triangle.bmp,Self,square.bmp,Friend,circle.bmp,Stranger,1,m,m,1240,m,z,circle.bmp,Stranger
11-20-2016,8,27,right,Hebrew,female,MMProc,USF,CloseBlock,triangle.bmp,Self,square.bmp,Friend,circle.bmp,Stranger,1,z,z,1071,m,z,square.bmp,Self
11-20-2016,8,27,right,Hebrew,female,MMProc,USF,MediumBlock,triangle.bmp,Self,square.bmp,Friend,circle.bmp,Stranger,1,z,z,2237,m,z,circle.bmp,Friend
11-20-2016,8,27,right,Hebrew,female,MMProc,USF,CloseBlock,triangle.bmp,Self,square.bmp,Friend,circle.bmp,Stranger,1,z,z,1179,m,z,circle.bmp,Self
11-20-2016,8,27,right,Hebrew,female,MMProc,USF,MediumBlock,triangle.bmp,Self,square.bmp,Friend,circle.bmp,Stranger,1,z,z,1572,m,z,circle.bmp,Friend
11-20-2016,8,27,right,Hebrew,female,MMProc,USF,MediumBlock,triangle.bmp,Self,square.bmp,Friend,circle.bmp,Stranger,1,m,m,3149,m,z,square.bmp,Friend
11-20-2016,8,27,right,Hebrew,female,MMProc,USF,FarBlock,triangle.bmp,Self,square.bmp,Friend,circle.bmp,Stranger,1,z,z,1302,m,z,square.bmp,Stranger
11-20-2016,8,27,right,Hebrew,female,MMProc,USF,MediumBlock,triangle.bmp,Self,square.bmp,Friend,circle.bmp,Stranger,1,m,m,1578,m,z,square.bmp,Friend
11-20-2016,8,27,right,Hebrew,female,MMProc,USF,MediumBlock,triangle.bmp,Self,square.bmp,Friend,circle.bmp,Stranger,1,m,m,867,m,z,square.bmp,Friend
11-20-2016,8,27,right,Hebrew,female,MMProc,USF,FarBlock,triangle.bmp,Self,square.bmp,Friend,circle.bmp,Stranger,1,z,z,906,m,z,square.bmp,Stranger
11-20-2016,8,27,right,Hebrew,female,MMProc,USF,FarBlock,triangle.bmp,Self,square.bmp,Friend,circle.bmp,Stranger,1,m,m,1999,m,z,circle.bmp,Stranger
11-20-2016,8,27,right,Hebrew,female,MMProc,USF,FarBlock,triangle.bmp,Self,square.bmp,Friend,circle.bmp,Stranger,1,m,m,839,m,z,circle.bmp,Stranger
11-20-2016,8,27,right,Hebrew,female,MMProc,USF,CloseBlock,triangle.bmp,Self,square.bmp,Friend,circle.bmp,Stranger,1,m,m,862,m,z,triangle.bmp,Self
11-20-2016,8,27,right,Hebrew,female,MMProc,USF,MediumBlock,triangle.bmp,Self,square.bmp,Friend,circle.bmp,Stranger,1,z,z,1188,m,z,triangle.bmp,Friend
11-20-2016,8,27,right,Hebrew,female,MMProc,USF,CloseBlock,triangle.bmp,Self,square.bmp,Friend,circle.bmp,Stranger,1,z,z,1134,m,z,square.bmp,Self
11-20-2016,8,27,right,Hebrew,female,MMProc,USF,CloseBlock,triangle.bmp,Self,square.bmp,Friend,circle.bmp,Stranger,1,m,m,1001,m,z,triangle.bmp,Self
11-20-2016,8,27,right,Hebrew,female,MMProc,USF,MediumBlock,triangle.bmp,Self,square.bmp,Friend,circle.bmp,Stranger,1,z,z,1770,m,z,circle.bmp,Friend
11-20-2016,8,27,right,Hebrew,female,MMProc,USF,CloseBlock,triangle.bmp,Self,square.bmp,Friend,circle.bmp,Stranger,1,z,z,1179,m,z,square.bmp,Self
11-20-2016,8,27,right,Hebrew,female,MMProc,USF,FarBlock,triangle.bmp,Self,square.bmp,Friend,circle.bmp,Stranger,1,z,z,1636,m,z,triangle.bmp,Stranger
11-20-2016,8,27,right,Hebrew,female,MMProc,USF,CloseBlock,triangle.bmp,Self,square.bmp,Friend,circle.bmp,Stranger,1,m,m,2763,m,z,triangle.bmp,Self
11-20-2016,8,27,right,Hebrew,female,MMProc,USF,MediumBlock,triangle.bmp,Self,square.bmp,Friend,circle.bmp,Stranger,1,z,z,2036,m,z,circle.bmp,Friend
11-20-2016,8,27,right,Hebrew,female,MMProc,USF,MediumBlock,triangle.bmp,Self,square.bmp,Friend,circle.bmp,Stranger,1,m,m,697,m,z,square.bmp,Friend
11-20-2016,8,27,right,Hebrew,female,MMProc,USF,MediumBlock,triangle.bmp,Self,square.bmp,Friend,circle.bmp,Stranger,1,z,z,1126,m,z,triangle.bmp,Friend
11-20-2016,8,27,right,Hebrew,female,MMProc,USF,MediumBlock,triangle.bmp,Self,square.bmp,Friend,circle.bmp,Stranger,1,m,m,1041,m,z,square.bmp,Friend
11-20-2016,8,27,right,Hebrew,female,MMProc,USF,CloseBlock,triangle.bmp,Self,square.bmp,Friend,circle.bmp,Stranger,1,m,m,2545,m,z,triangle.bmp,Self
11-20-2016,8,27,right,Hebrew,female,MMProc,USF,FarBlock,triangle.bmp,Self,square.bmp,Friend,circle.bmp,Stranger,1,z,z,1250,m,z,triangle.bmp,Stranger
11-20-2016,8,27,right,Hebrew,female,MMProc,USF,MediumBlock,triangle.bmp,Self,square.bmp,Friend,circle.bmp,Stranger,1,z,z,1433,m,z,triangle.bmp,Friend
11-20-2016,8,27,right,Hebrew,female,MMProc,USF,MediumBlock,triangle.bmp,Self,square.bmp,Friend,circle.bmp,Stranger,1,z,z,4136,m,z,circle.bmp,Friend
11-20-2016,8,27,right,Hebrew,female,MMProc,USF,CloseBlock,triangle.bmp,Self,square.bmp,Friend,circle.bmp,Stranger,1,z,z,1240,m,z,square.bmp,Self
11-20-2016,8,27,right,Hebrew,female,MMProc,USF,FarBlock,triangle.bmp,Self,square.bmp,Friend,circle.bmp,Stranger,1,m,m,1199,m,z,circle.bmp,Stranger
11-20-2016,8,27,right,Hebrew,female,MMProc,USF,CloseBlock,triangle.bmp,Self,square.bmp,Friend,circle.bmp,Stranger,1,z,z,1064,m,z,circle.bmp,Self
11-20-2016,8,27,right,Hebrew,female,MMProc,USF,FarBlock,triangle.bmp,Self,square.bmp,Friend,circle.bmp,Stranger,1,m,m,1143,m,z,circle.bmp,Stranger
11-20-2016,8,27,right,Hebrew,female,MMProc,USF,FarBlock,triangle.bmp,Self,square.bmp,Friend,circle.bmp,Stranger,1,m,m,993,m,z,circle.bmp,Stranger
11-20-2016,8,27,right,Hebrew,female,MMProc,USF,MediumBlock,triangle.bmp,Self,square.bmp,Friend,circle.bmp,Stranger,1,z,z,850,m,z,circle.bmp,Friend
11-20-2016,8,27,right,Hebrew,female,MMProc,USF,FarBlock,triangle.bmp,Self,square.bmp,Friend,circle.bmp,Stranger,1,z,z,1753,m,z,square.bmp,Stranger
11-20-2016,8,27,right,Hebrew,female,MMProc,USF,MediumBlock,triangle.bmp,Self,square.bmp,Friend,circle.bmp,Stranger,1,m,m,1436,m,z,square.bmp,Friend
11-20-2016,8,27,right,Hebrew,female,MMProc,USF,FarBlock,triangle.bmp,Self,square.bmp,Friend,circle.bmp,Stranger,1,z,z,1131,m,z,square.bmp,Stranger
11-20-2016,8,27,right,Hebrew,female,MMProc,USF,CloseBlock,triangle.bmp,Self,square.bmp,Friend,circle.bmp,Stranger,1,m,m,1093,m,z,triangle.bmp,Self
11-20-2016,8,27,right,Hebrew,female,MMProc,USF,MediumBlock,triangle.bmp,Self,square.bmp,Friend,circle.bmp,Stranger,0,m,z,2754,m,z,square.bmp,Friend
11-20-2016,8,27,right,Hebrew,female,MMProc,USF,CloseBlock,triangle.bmp,Self,square.bmp,Friend,circle.bmp,Stranger,1,m,m,1970,m,z,triangle.bmp,Self
11-20-2016,8,27,right,Hebrew,female,MMProc,USF,MediumBlock,triangle.bmp,Self,square.bmp,Friend,circle.bmp,Stranger,1,z,z,9211,m,z,circle.bmp,Friend
11-20-2016,8,27,right,Hebrew,female,MMProc,USF,FarBlock,triangle.bmp,Self,square.bmp,Friend,circle.bmp,Stranger,1,m,m,1660,m,z,circle.bmp,Stranger
11-20-2016,8,27,right,Hebrew,female,MMProc,USF,FarBlock,triangle.bmp,Self,square.bmp,Friend,circle.bmp,Stranger,1,z,z,2914,m,z,square.bmp,Stranger
11-20-2016,8,27,right,Hebrew,female,MMProc,USF,FarBlock,triangle.bmp,Self,square.bmp,Friend,circle.bmp,Stranger,1,m,m,1316,m,z,circle.bmp,Stranger
11-20-2016,8,27,right,Hebrew,female,MMProc,USF,MediumBlock,triangle.bmp,Self,square.bmp,Friend,circle.bmp,Stranger,1,m,m,1192,m,z,square.bmp,Friend
11-20-2016,8,27,right,Hebrew,female,MMProc,USF,CloseBlock,triangle.bmp,Self,square.bmp,Friend,circle.bmp,Stranger,1,z,z,1104,m,z,circle.bmp,Self
11-20-2016,8,27,right,Hebrew,female,MMProc,USF,CloseBlock,triangle.bmp,Self,square.bmp,Friend,circle.bmp,Stranger,1,z,z,701,m,z,circle.bmp,Self
11-20-2016,8,27,right,Hebrew,female,MMProc,USF,CloseBlock,triangle.bmp,Self,square.bmp,Friend,circle.bmp,Stranger,1,m,m,746,m,z,triangle.bmp,Self
11-20-2016,8,27,right,Hebrew,female,MMProc,USF,CloseBlock,triangle.bmp,Self,square.bmp,Friend,circle.bmp,Stranger,1,z,z,885,m,z,square.bmp,Self
11-20-2016,8,27,right,Hebrew,female,FBbreak1,USF,,triangle.bmp,Self,square.bmp,Friend,circle.bmp,Stranger,,,,,m,z,,
11-20-2016,8,27,right,Hebrew,female,MMProc,USF,FarBlock,triangle.bmp,Self,square.bmp,Friend,circle.bmp,Stranger,1,z,z,4244,m,z,triangle.bmp,Stranger
11-20-2016,8,27,right,Hebrew,female,MMProc,USF,CloseBlock,triangle.bmp,Self,square.bmp,Friend,circle.bmp,Stranger,1,z,z,976,m,z,square.bmp,Self
11-20-2016,8,27,right,Hebrew,female,MMProc,USF,CloseBlock,triangle.bmp,Self,square.bmp,Friend,circle.bmp,Stranger,1,m,m,1681,m,z,triangle.bmp,Self
11-20-2016,8,27,right,Hebrew,female,MMProc,USF,MediumBlock,triangle.bmp,Self,square.bmp,Friend,circle.bmp,Stranger,1,z,z,1142,m,z,circle.bmp,Friend
11-20-2016,8,27,right,Hebrew,female,MMProc,USF,MediumBlock,triangle.bmp,Self,square.bmp,Friend,circle.bmp,Stranger,1,m,m,1024,m,z,square.bmp,Friend
11-20-2016,8,27,right,Hebrew,female,MMProc,USF,MediumBlock,triangle.bmp,Self,square.bmp,Friend,circle.bmp,Stranger,1,z,z,1600,m,z,triangle.bmp,Friend
11-20-2016,8,27,right,Hebrew,female,MMProc,USF,CloseBlock,triangle.bmp,Self,square.bmp,Friend,circle.bmp,Stranger,1,m,m,600,m,z,triangle.bmp,Self
11-20-2016,8,27,right,Hebrew,female,MMProc,USF,CloseBlock,triangle.bmp,Self,square.bmp,Friend,circle.bmp,Stranger,1,m,m,617,m,z,triangle.bmp,Self
11-20-2016,8,27,right,Hebrew,female,MMProc,USF,FarBlock,triangle.bmp,Self,square.bmp,Friend,circle.bmp,Stranger,1,z,z,1577,m,z,square.bmp,Stranger
11-20-2016,8,27,right,Hebrew,female,MMProc,USF,FarBlock,triangle.bmp,Self,square.bmp,Friend,circle.bmp,Stranger,1,m,m,530,m,z,circle.bmp,Stranger
11-20-2016,8,27,right,Hebrew,female,MMProc,USF,MediumBlock,triangle.bmp,Self,square.bmp,Friend,circle.bmp,Stranger,1,z,z,1685,m,z,triangle.bmp,Friend
11-20-2016,8,27,right,Hebrew,female,MMProc,USF,FarBlock,triangle.bmp,Self,square.bmp,Friend,circle.bmp,Stranger,1,m,m,858,m,z,circle.bmp,Stranger
11-20-2016,8,27,right,Hebrew,female,MMProc,USF,FarBlock,triangle.bmp,Self,square.bmp,Friend,circle.bmp,Stranger,1,z,z,1072,m,z,triangle.bmp,Stranger
11-20-2016,8,27,right,Hebrew,female,MMProc,USF,MediumBlock,triangle.bmp,Self,square.bmp,Friend,circle.bmp,Stranger,1,z,z,1327,m,z,triangle.bmp,Friend
11-20-2016,8,27,right,Hebrew,female,MMProc,USF,FarBlock,triangle.bmp,Self,square.bmp,Friend,circle.bmp,Stranger,1,z,z,2450,m,z,triangle.bmp,Stranger
11-20-2016,8,27,right,Hebrew,female,MMProc,USF,FarBlock,triangle.bmp,Self,square.bmp,Friend,circle.bmp,Stranger,1,m,m,839,m,z,circle.bmp,Stranger
11-20-2016,8,27,right,Hebrew,female,MMProc,USF,FarBlock,triangle.bmp,Self,square.bmp,Friend,circle.bmp,Stranger,1,m,m,975,m,z,circle.bmp,Stranger
11-20-2016,8,27,right,Hebrew,female,MMProc,USF,CloseBlock,triangle.bmp,Self,square.bmp,Friend,circle.bmp,Stranger,1,z,z,1024,m,z,circle.bmp,Self
11-20-2016,8,27,right,Hebrew,female,MMProc,USF,CloseBlock,triangle.bmp,Self,square.bmp,Friend,circle.bmp,Stranger,1,m,m,832,m,z,triangle.bmp,Self
11-20-2016,8,27,right,Hebrew,female,MMProc,USF,CloseBlock,triangle.bmp,Self,square.bmp,Friend,circle.bmp,Stranger,1,m,m,567,m,z,triangle.bmp,Self
11-20-2016,8,27,right,Hebrew,female,MMProc,USF,CloseBlock,triangle.bmp,Self,square.bmp,Friend,circle.bmp,Stranger,1,z,z,1178,m,z,circle.bmp,Self
11-20-2016,8,27,right,Hebrew,female,MMProc,USF,MediumBlock,triangle.bmp,Self,square.bmp,Friend,circle.bmp,Stranger,0,z,m,1635,m,z,triangle.bmp,Friend
11-20-2016,8,27,right,Hebrew,female,MMProc,USF,MediumBlock,triangle.bmp,Self,square.bmp,Friend,circle.bmp,Stranger,1,z,z,2161,m,z,circle.bmp,Friend
11-20-2016,8,27,right,Hebrew,female,MMProc,USF,FarBlock,triangle.bmp,Self,square.bmp,Friend,circle.bmp,Stranger,1,z,z,2098,m,z,square.bmp,Stranger
11-20-2016,8,27,right,Hebrew,female,MMProc,USF,MediumBlock,triangle.bmp,Self,square.bmp,Friend,circle.bmp,Stranger,1,m,m,982,m,z,square.bmp,Friend
11-20-2016,8,27,right,Hebrew,female,MMProc,USF,MediumBlock,triangle.bmp,Self,square.bmp,Friend,circle.bmp,Stranger,1,m,m,791,m,z,square.bmp,Friend
11-20-2016,8,27,right,Hebrew,female,MMProc,USF,CloseBlock,triangle.bmp,Self,square.bmp,Friend,circle.bmp,Stranger,1,z,z,1231,m,z,circle.bmp,Self
11-20-2016,8,27,right,Hebrew,female,MMProc,USF,CloseBlock,triangle.bmp,Self,square.bmp,Friend,circle.bmp,Stranger,1,m,m,919,m,z,triangle.bmp,Self
11-20-2016,8,27,right,Hebrew,female,MMProc,USF,CloseBlock,triangle.bmp,Self,square.bmp,Friend,circle.bmp,Stranger,1,m,m,571,m,z,triangle.bmp,Self
11-20-2016,8,27,right,Hebrew,female,MMProc,USF,MediumBlock,triangle.bmp,Self,square.bmp,Friend,circle.bmp,Stranger,1,m,m,989,m,z,square.bmp,Friend
11-20-2016,8,27,right,Hebrew,female,MMProc,USF,CloseBlock,triangle.bmp,Self,square.bmp,Friend,circle.bmp,Stranger,1,m,m,719,m,z,triangle.bmp,Self
11-20-2016,8,27,right,Hebrew,female,MMProc,USF,CloseBlock,triangle.bmp,Self,square.bmp,Friend,circle.bmp,Stranger,1,m,m,715,m,z,triangle.bmp,Self
11-20-2016,8,27,right,Hebrew,female,MMProc,USF,MediumBlock,triangle.bmp,Self,square.bmp,Friend,circle.bmp,Stranger,1,z,z,1512,m,z,circle.bmp,Friend
11-20-2016,8,27,right,Hebrew,female,MMProc,USF,MediumBlock,triangle.bmp,Self,square.bmp,Friend,circle.bmp,Stranger,1,z,z,644,m,z,circle.bmp,Friend
11-20-2016,8,27,right,Hebrew,female,MMProc,USF,CloseBlock,triangle.bmp,Self,square.bmp,Friend,circle.bmp,Stranger,1,z,z,1219,m,z,circle.bmp,Self
11-20-2016,8,27,right,Hebrew,female,MMProc,USF,MediumBlock,triangle.bmp,Self,square.bmp,Friend,circle.bmp,Stranger,1,m,m,987,m,z,square.bmp,Friend
11-20-2016,8,27,right,Hebrew,female,MMProc,USF,FarBlock,triangle.bmp,Self,square.bmp,Friend,circle.bmp,Stranger,1,z,z,1532,m,z,triangle.bmp,Stranger
11-20-2016,8,27,right,Hebrew,female,MMProc,USF,MediumBlock,triangle.bmp,Self,square.bmp,Friend,circle.bmp,Stranger,1,z,z,1079,m,z,circle.bmp,Friend
11-20-2016,8,27,right,Hebrew,female,MMProc,USF,FarBlock,triangle.bmp,Self,square.bmp,Friend,circle.bmp,Stranger,1,m,m,869,m,z,circle.bmp,Stranger
11-20-2016,8,27,right,Hebrew,female,MMProc,USF,CloseBlock,triangle.bmp,Self,square.bmp,Friend,circle.bmp,Stranger,1,z,z,1099,m,z,circle.bmp,Self
11-20-2016,8,27,right,Hebrew,female,MMProc,USF,MediumBlock,triangle.bmp,Self,square.bmp,Friend,circle.bmp,Stranger,1,m,m,904,m,z,square.bmp,Friend
11-20-2016,8,27,right,Hebrew,female,MMProc,USF,MediumBlock,triangle.bmp,Self,square.bmp,Friend,circle.bmp,Stranger,1,m,m,1340,m,z,square.bmp,Friend
11-20-2016,8,27,right,Hebrew,female,MMProc,USF,CloseBlock,triangle.bmp,Self,square.bmp,Friend,circle.bmp,Stranger,1,z,z,1040,m,z,square.bmp,Self
11-20-2016,8,27,right,Hebrew,female,MMProc,USF,MediumBlock,triangle.bmp,Self,square.bmp,Friend,circle.bmp,Stranger,0,m,z,943,m,z,square.bmp,Friend
11-20-2016,8,27,right,Hebrew,female,MMProc,USF,CloseBlock,triangle.bmp,Self,square.bmp,Friend,circle.bmp,Stranger,1,z,z,1177,m,z,circle.bmp,Self
11-20-2016,8,27,right,Hebrew,female,MMProc,USF,CloseBlock,triangle.bmp,Self,square.bmp,Friend,circle.bmp,Stranger,1,z,z,769,m,z,square.bmp,Self
11-20-2016,8,27,right,Hebrew,female,MMProc,USF,MediumBlock,triangle.bmp,Self,square.bmp,Friend,circle.bmp,Stranger,1,z,z,1052,m,z,triangle.bmp,Friend
11-20-2016,8,27,right,Hebrew,female,MMProc,USF,CloseBlock,triangle.bmp,Self,square.bmp,Friend,circle.bmp,Stranger,1,z,z,1211,m,z,circle.bmp,Self
11-20-2016,8,27,right,Hebrew,female,MMProc,USF,FarBlock,triangle.bmp,Self,square.bmp,Friend,circle.bmp,Stranger,1,z,z,1042,m,z,square.bmp,Stranger
11-20-2016,8,27,right,Hebrew,female,MMProc,USF,MediumBlock,triangle.bmp,Self,square.bmp,Friend,circle.bmp,Stranger,1,z,z,1201,m,z,triangle.bmp,Friend
11-20-2016,8,27,right,Hebrew,female,MMProc,USF,FarBlock,triangle.bmp,Self,square.bmp,Friend,circle.bmp,Stranger,1,m,m,794,m,z,circle.bmp,Stranger
11-20-2016,8,27,right,Hebrew,female,MMProc,USF,FarBlock,triangle.bmp,Self,square.bmp,Friend,circle.bmp,Stranger,1,m,m,1251,m,z,circle.bmp,Stranger
11-20-2016,8,27,right,Hebrew,female,MMProc,USF,FarBlock,triangle.bmp,Self,square.bmp,Friend,circle.bmp,Stranger,1,m,m,1113,m,z,circle.bmp,Stranger
11-20-2016,8,27,right,Hebrew,female,MMProc,USF,FarBlock,triangle.bmp,Self,square.bmp,Friend,circle.bmp,Stranger,1,z,z,997,m,z,triangle.bmp,Stranger
11-20-2016,8,27,right,Hebrew,female,MMProc,USF,CloseBlock,triangle.bmp,Self,square.bmp,Friend,circle.bmp,Stranger,1,m,m,1110,m,z,triangle.bmp,Self
11-20-2016,8,27,right,Hebrew,female,MMProc,USF,CloseBlock,triangle.bmp,Self,square.bmp,Friend,circle.bmp,Stranger,1,m,m,850,m,z,triangle.bmp,Self
11-20-2016,8,27,right,Hebrew,female,MMProc,USF,MediumBlock,triangle.bmp,Self,square.bmp,Friend,circle.bmp,Stranger,1,m,m,1001,m,z,square.bmp,Friend
11-20-2016,8,27,right,Hebrew,female,MMProc,USF,CloseBlock,triangle.bmp,Self,square.bmp,Friend,circle.bmp,Stranger,1,z,z,970,m,z,square.bmp,Self
11-20-2016,8,27,right,Hebrew,female,MMProc,USF,FarBlock,triangle.bmp,Self,square.bmp,Friend,circle.bmp,Stranger,1,z,z,1276,m,z,square.bmp,Stranger
11-20-2016,8,27,right,Hebrew,female,MMProc,USF,CloseBlock,triangle.bmp,Self,square.bmp,Friend,circle.bmp,Stranger,1,z,z,1185,m,z,square.bmp,Self
11-20-2016,8,27,right,Hebrew,female,MMProc,USF,FarBlock,triangle.bmp,Self,square.bmp,Friend,circle.bmp,Stranger,1,m,m,1242,m,z,circle.bmp,Stranger
11-20-2016,8,27,right,Hebrew,female,MMProc,USF,FarBlock,triangle.bmp,Self,square.bmp,Friend,circle.bmp,Stranger,1,m,m,721,m,z,circle.bmp,Stranger
11-20-2016,8,27,right,Hebrew,female,MMProc,USF,MediumBlock,triangle.bmp,Self,square.bmp,Friend,circle.bmp,Stranger,1,z,z,2317,m,z,triangle.bmp,Friend
11-20-2016,8,27,right,Hebrew,female,MMProc,USF,MediumBlock,triangle.bmp,Self,square.bmp,Friend,circle.bmp,Stranger,1,m,m,760,m,z,square.bmp,Friend
11-20-2016,8,27,right,Hebrew,female,MMProc,USF,MediumBlock,triangle.bmp,Self,square.bmp,Friend,circle.bmp,Stranger,1,z,z,1617,m,z,circle.bmp,Friend
11-20-2016,8,27,right,Hebrew,female,MMProc,USF,MediumBlock,triangle.bmp,Self,square.bmp,Friend,circle.bmp,Stranger,1,z,z,921,m,z,circle.bmp,Friend
11-20-2016,8,27,right,Hebrew,female,MMProc,USF,CloseBlock,triangle.bmp,Self,square.bmp,Friend,circle.bmp,Stranger,1,m,m,669,m,z,triangle.bmp,Self
11-20-2016,8,27,right,Hebrew,female,MMProc,USF,MediumBlock,triangle.bmp,Self,square.bmp,Friend,circle.bmp,Stranger,1,m,m,1148,m,z,square.bmp,Friend
11-20-2016,8,27,right,Hebrew,female,MMProc,USF,FarBlock,triangle.bmp,Self,square.bmp,Friend,circle.bmp,Stranger,1,z,z,1094,m,z,square.bmp,Stranger
11-20-2016,8,27,right,Hebrew,female,MMProc,USF,MediumBlock,triangle.bmp,Self,square.bmp,Friend,circle.bmp,Stranger,1,z,z,1091,m,z,circle.bmp,Friend
11-20-2016,8,27,right,Hebrew,female,MMProc,USF,CloseBlock,triangle.bmp,Self,square.bmp,Friend,circle.bmp,Stranger,1,z,z,976,m,z,square.bmp,Self
11-20-2016,8,27,right,Hebrew,female,MMProc,USF,MediumBlock,triangle.bmp,Self,square.bmp,Friend,circle.bmp,Stranger,0,m,z,1105,m,z,square.bmp,Friend
11-20-2016,8,27,right,Hebrew,female,MMProc,USF,CloseBlock,triangle.bmp,Self,square.bmp,Friend,circle.bmp,Stranger,1,z,z,2293,m,z,square.bmp,Self
11-20-2016,8,27,right,Hebrew,female,MMProc,USF,FarBlock,triangle.bmp,Self,square.bmp,Friend,circle.bmp,Stranger,1,m,m,1009,m,z,circle.bmp,Stranger
11-20-2016,8,27,right,Hebrew,female,MMProc,USF,MediumBlock,triangle.bmp,Self,square.bmp,Friend,circle.bmp,Stranger,1,z,z,1361,m,z,circle.bmp,Friend
11-20-2016,8,27,right,Hebrew,female,MMProc,USF,MediumBlock,triangle.bmp,Self,square.bmp,Friend,circle.bmp,Stranger,1,m,m,1683,m,z,square.bmp,Friend
11-20-2016,8,27,right,Hebrew,female,MMProc,USF,CloseBlock,triangle.bmp,Self,square.bmp,Friend,circle.bmp,Stranger,1,m,m,855,m,z,triangle.bmp,Self
11-20-2016,8,27,right,Hebrew,female,MMProc,USF,CloseBlock,triangle.bmp,Self,square.bmp,Friend,circle.bmp,Stranger,1,z,z,814,m,z,square.bmp,Self
11-20-2016,8,27,right,Hebrew,female,MMProc,USF,FarBlock,triangle.bmp,Self,square.bmp,Friend,circle.bmp,Stranger,1,z,z,1575,m,z,square.bmp,Stranger
11-20-2016,8,27,right,Hebrew,female,MMProc,USF,CloseBlock,triangle.bmp,Self,square.bmp,Friend,circle.bmp,Stranger,1,m,m,1039,m,z,triangle.bmp,Self
11-20-2016,8,27,right,Hebrew,female,MMProc,USF,FarBlock,triangle.bmp,Self,square.bmp,Friend,circle.bmp,Stranger,1,z,z,1999,m,z,square.bmp,Stranger
11-20-2016,8,27,right,Hebrew,female,MMProc,USF,FarBlock,triangle.bmp,Self,square.bmp,Friend,circle.bmp,Stranger,1,m,m,1206,m,z,circle.bmp,Stranger
11-20-2016,8,27,right,Hebrew,female,MMProc,USF,MediumBlock,triangle.bmp,Self,square.bmp,Friend,circle.bmp,Stranger,1,z,z,1326,m,z,circle.bmp,Friend
11-20-2016,8,27,right,Hebrew,female,MMProc,USF,FarBlock,triangle.bmp,Self,square.bmp,Friend,circle.bmp,Stranger,1,z,z,1009,m,z,triangle.bmp,Stranger
11-20-2016,8,27,right,Hebrew,female,MMProc,USF,MediumBlock,triangle.bmp,Self,square.bmp,Friend,circle.bmp,Stranger,1,m,m,993,m,z,square.bmp,Friend
11-20-2016,8,27,right,Hebrew,female,MMProc,USF,MediumBlock,triangle.bmp,Self,square.bmp,Friend,circle.bmp,Stranger,1,z,z,1074,m,z,triangle.bmp,Friend
11-20-2016,8,27,right,Hebrew,female,MMProc,USF,CloseBlock,triangle.bmp,Self,square.bmp,Friend,circle.bmp,Stranger,1,z,z,1040,m,z,circle.bmp,Self
11-20-2016,8,27,right,Hebrew,female,MMProc,USF,CloseBlock,triangle.bmp,Self,square.bmp,Friend,circle.bmp,Stranger,1,m,m,847,m,z,triangle.bmp,Self
11-20-2016,8,27,right,Hebrew,female,MMProc,USF,FarBlock,triangle.bmp,Self,square.bmp,Friend,circle.bmp,Stranger,1,m,m,1638,m,z,circle.bmp,Stranger
11-20-2016,8,27,right,Hebrew,female,MMProc,USF,CloseBlock,triangle.bmp,Self,square.bmp,Friend,circle.bmp,Stranger,1,m,m,909,m,z,triangle.bmp,Self
11-20-2016,8,27,right,Hebrew,female,MMProc,USF,FarBlock,triangle.bmp,Self,square.bmp,Friend,circle.bmp,Stranger,1,z,z,913,m,z,triangle.bmp,Stranger
11-20-2016,8,27,right,Hebrew,female,MMProc,USF,FarBlock,triangle.bmp,Self,square.bmp,Friend,circle.bmp,Stranger,1,z,z,1221,m,z,square.bmp,Stranger
11-20-2016,8,27,right,Hebrew,female,MMProc,USF,MediumBlock,triangle.bmp,Self,square.bmp,Friend,circle.bmp,Stranger,1,z,z,1341,m,z,triangle.bmp,Friend
11-20-2016,8,27,right,Hebrew,female,MMProc,USF,CloseBlock,triangle.bmp,Self,square.bmp,Friend,circle.bmp,Stranger,1,m,m,1184,m,z,triangle.bmp,Self
11-20-2016,8,27,right,Hebrew,female,MMProc,USF,MediumBlock,triangle.bmp,Self,square.bmp,Friend,circle.bmp,Stranger,1,m,m,1097,m,z,square.bmp,Friend
11-20-2016,8,27,right,Hebrew,female,MMProc,USF,CloseBlock,triangle.bmp,Self,square.bmp,Friend,circle.bmp,Stranger,1,m,m,981,m,z,triangle.bmp,Self
11-20-2016,8,27,right,Hebrew,female,MMProc,USF,FarBlock,triangle.bmp,Self,square.bmp,Friend,circle.bmp,Stranger,1,m,m,3127,m,z,circle.bmp,Stranger
11-20-2016,8,27,right,Hebrew,female,MMProc,USF,FarBlock,triangle.bmp,Self,square.bmp,Friend,circle.bmp,Stranger,1,z,z,1296,m,z,square.bmp,Stranger
11-20-2016,8,27,right,Hebrew,female,MMProc,USF,FarBlock,triangle.bmp,Self,square.bmp,Friend,circle.bmp,Stranger,1,z,z,1189,m,z,triangle.bmp,Stranger
11-20-2016,8,27,right,Hebrew,female,MMProc,USF,MediumBlock,triangle.bmp,Self,square.bmp,Friend,circle.bmp,Stranger,1,m,m,909,m,z,square.bmp,Friend
11-20-2016,8,27,right,Hebrew,female,MMProc,USF,CloseBlock,triangle.bmp,Self,square.bmp,Friend,circle.bmp,Stranger,1,m,m,1137,m,z,triangle.bmp,Self
11-20-2016,8,27,right,Hebrew,female,MMProc,USF,FarBlock,triangle.bmp,Self,square.bmp,Friend,circle.bmp,Stranger,1,m,m,1437,m,z,circle.bmp,Stranger
11-20-2016,8,27,right,Hebrew,female,MMProc,USF,FarBlock,triangle.bmp,Self,square.bmp,Friend,circle.bmp,Stranger,1,m,m,1244,m,z,circle.bmp,Stranger
11-20-2016,8,27,right,Hebrew,female,MMProc,USF,MediumBlock,triangle.bmp,Self,square.bmp,Friend,circle.bmp,Stranger,1,m,m,1138,m,z,square.bmp,Friend
11-20-2016,8,27,right,Hebrew,female,MMProc,USF,MediumBlock,triangle.bmp,Self,square.bmp,Friend,circle.bmp,Stranger,1,m,m,765,m,z,square.bmp,Friend
11-20-2016,8,27,right,Hebrew,female,MMProc,USF,CloseBlock,triangle.bmp,Self,square.bmp,Friend,circle.bmp,Stranger,1,z,z,920,m,z,square.bmp,Self
11-20-2016,8,27,right,Hebrew,female,MMProc,USF,FarBlock,triangle.bmp,Self,square.bmp,Friend,circle.bmp,Stranger,1,m,m,1100,m,z,circle.bmp,Stranger
11-20-2016,8,27,right,Hebrew,female,MMProc,USF,FarBlock,triangle.bmp,Self,square.bmp,Friend,circle.bmp,Stranger,1,z,z,1145,m,z,triangle.bmp,Stranger
11-20-2016,8,27,right,Hebrew,female,MMProc,USF,CloseBlock,triangle.bmp,Self,square.bmp,Friend,circle.bmp,Stranger,1,m,m,1027,m,z,triangle.bmp,Self
11-20-2016,8,27,right,Hebrew,female,MMProc,USF,MediumBlock,triangle.bmp,Self,square.bmp,Friend,circle.bmp,Stranger,1,m,m,787,m,z,square.bmp,Friend
11-20-2016,8,27,right,Hebrew,female,MMProc,USF,MediumBlock,triangle.bmp,Self,square.bmp,Friend,circle.bmp,Stranger,1,m,m,540,m,z,square.bmp,Friend
11-20-2016,8,27,right,Hebrew,female,MMProc,USF,FarBlock,triangle.bmp,Self,square.bmp,Friend,circle.bmp,Stranger,1,m,m,928,m,z,circle.bmp,Stranger
11-20-2016,8,27,right,Hebrew,female,MMProc,USF,CloseBlock,triangle.bmp,Self,square.bmp,Friend,circle.bmp,Stranger,1,z,z,1267,m,z,square.bmp,Self
11-20-2016,8,27,right,Hebrew,female,MMProc,USF,FarBlock,triangle.bmp,Self,square.bmp,Friend,circle.bmp,Stranger,1,z,z,1193,m,z,triangle.bmp,Stranger
11-20-2016,8,27,right,Hebrew,female,MMProc,USF,FarBlock,triangle.bmp,Self,square.bmp,Friend,circle.bmp,Stranger,1,m,m,882,m,z,circle.bmp,Stranger
11-20-2016,8,27,right,Hebrew,female,MMProc,USF,CloseBlock,triangle.bmp,Self,square.bmp,Friend,circle.bmp,Stranger,0,z,m,647,m,z,circle.bmp,Self
11-20-2016,8,27,right,Hebrew,female,MMProc,USF,FarBlock,triangle.bmp,Self,square.bmp,Friend,circle.bmp,Stranger,1,m,m,3134,m,z,circle.bmp,Stranger
11-20-2016,8,27,right,Hebrew,female,MMProc,USF,FarBlock,triangle.bmp,Self,square.bmp,Friend,circle.bmp,Stranger,0,z,m,920,m,z,square.bmp,Stranger
11-20-2016,8,27,right,Hebrew,female,MMProc,USF,CloseBlock,triangle.bmp,Self,square.bmp,Friend,circle.bmp,Stranger,1,z,z,1346,m,z,circle.bmp,Self
11-20-2016,8,27,right,Hebrew,female,MMProc,USF,MediumBlock,triangle.bmp,Self,square.bmp,Friend,circle.bmp,Stranger,1,z,z,1285,m,z,triangle.bmp,Friend
11-20-2016,8,27,right,Hebrew,female,FBbreak1,USF,,triangle.bmp,Self,square.bmp,Friend,circle.bmp,Stranger,,,,,m,z,,
11-20-2016,8,27,right,Hebrew,female,MMProc,USF,FarBlock,triangle.bmp,Self,square.bmp,Friend,circle.bmp,Stranger,1,z,z,2890,m,z,square.bmp,Stranger
11-20-2016,8,27,right,Hebrew,female,MMProc,USF,MediumBlock,triangle.bmp,Self,square.bmp,Friend,circle.bmp,Stranger,1,z,z,1742,m,z,circle.bmp,Friend
11-20-2016,8,27,right,Hebrew,female,MMProc,USF,MediumBlock,triangle.bmp,Self,square.bmp,Friend,circle.bmp,Stranger,1,z,z,928,m,z,triangle.bmp,Friend
11-20-2016,8,27,right,Hebrew,female,MMProc,USF,FarBlock,triangle.bmp,Self,square.bmp,Friend,circle.bmp,Stranger,1,m,m,995,m,z,circle.bmp,Stranger
11-20-2016,8,27,right,Hebrew,female,MMProc,USF,MediumBlock,triangle.bmp,Self,square.bmp,Friend,circle.bmp,Stranger,1,z,z,1076,m,z,triangle.bmp,Friend
11-20-2016,8,27,right,Hebrew,female,MMProc,USF,CloseBlock,triangle.bmp,Self,square.bmp,Friend,circle.bmp,Stranger,1,z,z,1473,m,z,square.bmp,Self
11-20-2016,8,27,right,Hebrew,female,MMProc,USF,FarBlock,triangle.bmp,Self,square.bmp,Friend,circle.bmp,Stranger,1,m,m,1023,m,z,circle.bmp,Stranger
11-20-2016,8,27,right,Hebrew,female,MMProc,USF,CloseBlock,triangle.bmp,Self,square.bmp,Friend,circle.bmp,Stranger,1,m,m,1007,m,z,triangle.bmp,Self
11-20-2016,8,27,right,Hebrew,female,MMProc,USF,MediumBlock,triangle.bmp,Self,square.bmp,Friend,circle.bmp,Stranger,1,z,z,848,m,z,circle.bmp,Friend
11-20-2016,8,27,right,Hebrew,female,MMProc,USF,MediumBlock,triangle.bmp,Self,square.bmp,Friend,circle.bmp,Stranger,1,m,m,567,m,z,square.bmp,Friend
11-20-2016,8,27,right,Hebrew,female,MMProc,USF,MediumBlock,triangle.bmp,Self,square.bmp,Friend,circle.bmp,Stranger,1,m,m,697,m,z,square.bmp,Friend
11-20-2016,8,27,right,Hebrew,female,MMProc,USF,MediumBlock,triangle.bmp,Self,square.bmp,Friend,circle.bmp,Stranger,1,m,m,646,m,z,square.bmp,Friend
11-20-2016,8,27,right,Hebrew,female,MMProc,USF,FarBlock,triangle.bmp,Self,square.bmp,Friend,circle.bmp,Stranger,1,z,z,1700,m,z,square.bmp,Stranger
11-20-2016,8,27,right,Hebrew,female,MMProc,USF,FarBlock,triangle.bmp,Self,square.bmp,Friend,circle.bmp,Stranger,1,m,m,889,m,z,circle.bmp,Stranger
11-20-2016,8,27,right,Hebrew,female,MMProc,USF,FarBlock,triangle.bmp,Self,square.bmp,Friend,circle.bmp,Stranger,1,z,z,1006,m,z,square.bmp,Stranger
11-20-2016,8,27,right,Hebrew,female,MMProc,USF,CloseBlock,triangle.bmp,Self,square.bmp,Friend,circle.bmp,Stranger,1,z,z,1407,m,z,square.bmp,Self
11-20-2016,8,27,right,Hebrew,female,MMProc,USF,FarBlock,triangle.bmp,Self,square.bmp,Friend,circle.bmp,Stranger,1,m,m,847,m,z,circle.bmp,Stranger
11-20-2016,8,27,right,Hebrew,female,MMProc,USF,MediumBlock,triangle.bmp,Self,square.bmp,Friend,circle.bmp,Stranger,1,m,m,902,m,z,square.bmp,Friend
11-20-2016,8,27,right,Hebrew,female,MMProc,USF,CloseBlock,triangle.bmp,Self,square.bmp,Friend,circle.bmp,Stranger,1,z,z,923,m,z,circle.bmp,Self
11-20-2016,8,27,right,Hebrew,female,MMProc,USF,FarBlock,triangle.bmp,Self,square.bmp,Friend,circle.bmp,Stranger,1,m,m,1423,m,z,circle.bmp,Stranger
11-20-2016,8,27,right,Hebrew,female,MMProc,USF,CloseBlock,triangle.bmp,Self,square.bmp,Friend,circle.bmp,Stranger,1,z,z,1327,m,z,circle.bmp,Self
11-20-2016,8,27,right,Hebrew,female,MMProc,USF,FarBlock,triangle.bmp,Self,square.bmp,Friend,circle.bmp,Stranger,0,m,z,770,m,z,circle.bmp,Stranger
11-20-2016,8,27,right,Hebrew,female,MMProc,USF,FarBlock,triangle.bmp,Self,square.bmp,Friend,circle.bmp,Stranger,1,m,m,1108,m,z,circle.bmp,Stranger
11-20-2016,8,27,right,Hebrew,female,MMProc,USF,FarBlock,triangle.bmp,Self,square.bmp,Friend,circle.bmp,Stranger,1,z,z,992,m,z,triangle.bmp,Stranger
11-20-2016,8,27,right,Hebrew,female,MMProc,USF,MediumBlock,triangle.bmp,Self,square.bmp,Friend,circle.bmp,Stranger,1,m,m,977,m,z,square.bmp,Friend
11-20-2016,8,27,right,Hebrew,female,MMProc,USF,FarBlock,triangle.bmp,Self,square.bmp,Friend,circle.bmp,Stranger,1,m,m,1682,m,z,circle.bmp,Stranger
11-20-2016,8,27,right,Hebrew,female,MMProc,USF,CloseBlock,triangle.bmp,Self,square.bmp,Friend,circle.bmp,Stranger,1,z,z,1431,m,z,square.bmp,Self
11-20-2016,8,27,right,Hebrew,female,MMProc,USF,CloseBlock,triangle.bmp,Self,square.bmp,Friend,circle.bmp,Stranger,1,z,z,1414,m,z,square.bmp,Self
11-20-2016,8,27,right,Hebrew,female,MMProc,USF,MediumBlock,triangle.bmp,Self,square.bmp,Friend,circle.bmp,Stranger,1,m,m,822,m,z,square.bmp,Friend
11-20-2016,8,27,right,Hebrew,female,MMProc,USF,MediumBlock,triangle.bmp,Self,square.bmp,Friend,circle.bmp,Stranger,1,z,z,1038,m,z,circle.bmp,Friend
11-20-2016,8,27,right,Hebrew,female,MMProc,USF,CloseBlock,triangle.bmp,Self,square.bmp,Friend,circle.bmp,Stranger,1,z,z,924,m,z,square.bmp,Self
11-20-2016,8,27,right,Hebrew,female,MMProc,USF,FarBlock,triangle.bmp,Self,square.bmp,Friend,circle.bmp,Stranger,1,m,m,1264,m,z,circle.bmp,Stranger
11-20-2016,8,27,right,Hebrew,female,MMProc,USF,MediumBlock,triangle.bmp,Self,square.bmp,Friend,circle.bmp,Stranger,1,z,z,1174,m,z,triangle.bmp,Friend
11-20-2016,8,27,right,Hebrew,female,MMProc,USF,CloseBlock,triangle.bmp,Self,square.bmp,Friend,circle.bmp,Stranger,1,m,m,863,m,z,triangle.bmp,Self
11-20-2016,8,27,right,Hebrew,female,MMProc,USF,MediumBlock,triangle.bmp,Self,square.bmp,Friend,circle.bmp,Stranger,1,m,m,1333,m,z,square.bmp,Friend
11-20-2016,8,27,right,Hebrew,female,MMProc,USF,FarBlock,triangle.bmp,Self,square.bmp,Friend,circle.bmp,Stranger,1,m,m,1160,m,z,circle.bmp,Stranger
11-20-2016,8,27,right,Hebrew,female,MMProc,USF,FarBlock,triangle.bmp,Self,square.bmp,Friend,circle.bmp,Stranger,1,m,m,978,m,z,circle.bmp,Stranger
11-20-2016,8,27,right,Hebrew,female,MMProc,USF,FarBlock,triangle.bmp,Self,square.bmp,Friend,circle.bmp,Stranger,1,z,z,1220,m,z,square.bmp,Stranger
11-20-2016,8,27,right,Hebrew,female,MMProc,USF,MediumBlock,triangle.bmp,Self,square.bmp,Friend,circle.bmp,Stranger,1,z,z,1212,m,z,circle.bmp,Friend
11-20-2016,8,27,right,Hebrew,female,MMProc,USF,FarBlock,triangle.bmp,Self,square.bmp,Friend,circle.bmp,Stranger,1,z,z,980,m,z,square.bmp,Stranger
11-20-2016,8,27,right,Hebrew,female,MMProc,USF,CloseBlock,triangle.bmp,Self,square.bmp,Friend,circle.bmp,Stranger,1,m,m,1109,m,z,triangle.bmp,Self
11-20-2016,8,27,right,Hebrew,female,MMProc,USF,CloseBlock,triangle.bmp,Self,square.bmp,Friend,circle.bmp,Stranger,1,z,z,945,m,z,square.bmp,Self
11-20-2016,8,27,right,Hebrew,female,MMProc,USF,MediumBlock,triangle.bmp,Self,square.bmp,Friend,circle.bmp,Stranger,1,m,m,1172,m,z,square.bmp,Friend
11-20-2016,8,27,right,Hebrew,female,MMProc,USF,MediumBlock,triangle.bmp,Self,square.bmp,Friend,circle.bmp,Stranger,1,z,z,1214,m,z,triangle.bmp,Friend
11-20-2016,8,27,right,Hebrew,female,MMProc,USF,CloseBlock,triangle.bmp,Self,square.bmp,Friend,circle.bmp,Stranger,1,z,z,870,m,z,circle.bmp,Self
11-20-2016,8,27,right,Hebrew,female,MMProc,USF,CloseBlock,triangle.bmp,Self,square.bmp,Friend,circle.bmp,Stranger,1,z,z,860,m,z,circle.bmp,Self
11-20-2016,8,27,right,Hebrew,female,MMProc,USF,MediumBlock,triangle.bmp,Self,square.bmp,Friend,circle.bmp,Stranger,1,z,z,994,m,z,triangle.bmp,Friend
11-20-2016,8,27,right,Hebrew,female,MMProc,USF,MediumBlock,triangle.bmp,Self,square.bmp,Friend,circle.bmp,Stranger,1,m,m,995,m,z,square.bmp,Friend
11-20-2016,8,27,right,Hebrew,female,MMProc,USF,CloseBlock,triangle.bmp,Self,square.bmp,Friend,circle.bmp,Stranger,1,z,z,1252,m,z,circle.bmp,Self
11-20-2016,8,27,right,Hebrew,female,MMProc,USF,CloseBlock,triangle.bmp,Self,square.bmp,Friend,circle.bmp,Stranger,1,m,m,1017,m,z,triangle.bmp,Self
11-20-2016,8,27,right,Hebrew,female,MMProc,USF,FarBlock,triangle.bmp,Self,square.bmp,Friend,circle.bmp,Stranger,1,m,m,953,m,z,circle.bmp,Stranger
11-20-2016,8,27,right,Hebrew,female,MMProc,USF,MediumBlock,triangle.bmp,Self,square.bmp,Friend,circle.bmp,Stranger,1,z,z,1116,m,z,circle.bmp,Friend
11-20-2016,8,27,right,Hebrew,female,MMProc,USF,MediumBlock,triangle.bmp,Self,square.bmp,Friend,circle.bmp,Stranger,1,m,m,920,m,z,square.bmp,Friend
11-20-2016,8,27,right,Hebrew,female,MMProc,USF,CloseBlock,triangle.bmp,Self,square.bmp,Friend,circle.bmp,Stranger,1,z,z,1020,m,z,circle.bmp,Self
11-20-2016,8,27,right,Hebrew,female,MMProc,USF,FarBlock,triangle.bmp,Self,square.bmp,Friend,circle.bmp,Stranger,1,z,z,1357,m,z,square.bmp,Stranger
11-20-2016,8,27,right,Hebrew,female,MMProc,USF,CloseBlock,triangle.bmp,Self,square.bmp,Friend,circle.bmp,Stranger,1,m,m,847,m,z,triangle.bmp,Self
11-20-2016,8,27,right,Hebrew,female,MMProc,USF,FarBlock,triangle.bmp,Self,square.bmp,Friend,circle.bmp,Stranger,1,z,z,1286,m,z,triangle.bmp,Stranger
11-20-2016,8,27,right,Hebrew,female,MMProc,USF,FarBlock,triangle.bmp,Self,square.bmp,Friend,circle.bmp,Stranger,1,z,z,987,m,z,triangle.bmp,Stranger
11-20-2016,8,27,right,Hebrew,female,MMProc,USF,CloseBlock,triangle.bmp,Self,square.bmp,Friend,circle.bmp,Stranger,1,m,m,909,m,z,triangle.bmp,Self
11-20-2016,8,27,right,Hebrew,female,MMProc,USF,CloseBlock,triangle.bmp,Self,square.bmp,Friend,circle.bmp,Stranger,1,m,m,1089,m,z,triangle.bmp,Self
11-20-2016,8,27,right,Hebrew,female,MMProc,USF,MediumBlock,triangle.bmp,Self,square.bmp,Friend,circle.bmp,Stranger,1,m,m,1566,m,z,square.bmp,Friend
11-20-2016,8,27,right,Hebrew,female,MMProc,USF,FarBlock,triangle.bmp,Self,square.bmp,Friend,circle.bmp,Stranger,1,z,z,1336,m,z,square.bmp,Stranger
11-20-2016,8,27,right,Hebrew,female,MMProc,USF,FarBlock,triangle.bmp,Self,square.bmp,Friend,circle.bmp,Stranger,1,z,z,2235,m,z,triangle.bmp,Stranger
11-20-2016,8,27,right,Hebrew,female,MMProc,USF,FarBlock,triangle.bmp,Self,square.bmp,Friend,circle.bmp,Stranger,1,m,m,857,m,z,circle.bmp,Stranger
11-20-2016,8,27,right,Hebrew,female,MMProc,USF,CloseBlock,triangle.bmp,Self,square.bmp,Friend,circle.bmp,Stranger,1,m,m,1103,m,z,triangle.bmp,Self
11-20-2016,8,27,right,Hebrew,female,MMProc,USF,CloseBlock,triangle.bmp,Self,square.bmp,Friend,circle.bmp,Stranger,1,z,z,1516,m,z,circle.bmp,Self
11-20-2016,8,27,right,Hebrew,female,MMProc,USF,MediumBlock,triangle.bmp,Self,square.bmp,Friend,circle.bmp,Stranger,1,m,m,1144,m,z,square.bmp,Friend
11-20-2016,8,27,right,Hebrew,female,MMProc,USF,MediumBlock,triangle.bmp,Self,square.bmp,Friend,circle.bmp,Stranger,1,m,m,1009,m,z,square.bmp,Friend
11-20-2016,8,27,right,Hebrew,female,MMProc,USF,MediumBlock,triangle.bmp,Self,square.bmp,Friend,circle.bmp,Stranger,1,m,m,945,m,z,square.bmp,Friend
11-20-2016,8,27,right,Hebrew,female,MMProc,USF,CloseBlock,triangle.bmp,Self,square.bmp,Friend,circle.bmp,Stranger,1,m,m,868,m,z,triangle.bmp,Self
11-20-2016,8,27,right,Hebrew,female,MMProc,USF,CloseBlock,triangle.bmp,Self,square.bmp,Friend,circle.bmp,Stranger,1,z,z,1018,m,z,square.bmp,Self
11-20-2016,8,27,right,Hebrew,female,MMProc,USF,FarBlock,triangle.bmp,Self,square.bmp,Friend,circle.bmp,Stranger,1,m,m,954,m,z,circle.bmp,Stranger
11-20-2016,8,27,right,Hebrew,female,MMProc,USF,MediumBlock,triangle.bmp,Self,square.bmp,Friend,circle.bmp,Stranger,1,m,m,893,m,z,square.bmp,Friend
11-20-2016,8,27,right,Hebrew,female,MMProc,USF,CloseBlock,triangle.bmp,Self,square.bmp,Friend,circle.bmp,Stranger,1,m,m,818,m,z,triangle.bmp,Self
11-20-2016,8,27,right,Hebrew,female,MMProc,USF,CloseBlock,triangle.bmp,Self,square.bmp,Friend,circle.bmp,Stranger,1,z,z,1146,m,z,square.bmp,Self
11-20-2016,8,27,right,Hebrew,female,MMProc,USF,CloseBlock,triangle.bmp,Self,square.bmp,Friend,circle.bmp,Stranger,1,m,m,1125,m,z,triangle.bmp,Self
11-20-2016,8,27,right,Hebrew,female,MMProc,USF,FarBlock,triangle.bmp,Self,square.bmp,Friend,circle.bmp,Stranger,1,z,z,1088,m,z,triangle.bmp,Stranger
11-20-2016,8,27,right,Hebrew,female,MMProc,USF,MediumBlock,triangle.bmp,Self,square.bmp,Friend,circle.bmp,Stranger,1,z,z,1374,m,z,triangle.bmp,Friend
11-20-2016,8,27,right,Hebrew,female,MMProc,USF,CloseBlock,triangle.bmp,Self,square.bmp,Friend,circle.bmp,Stranger,1,z,z,1055,m,z,square.bmp,Self
11-20-2016,8,27,right,Hebrew,female,MMProc,USF,CloseBlock,triangle.bmp,Self,square.bmp,Friend,circle.bmp,Stranger,1,m,m,670,m,z,triangle.bmp,Self
11-20-2016,8,27,right,Hebrew,female,MMProc,USF,FarBlock,triangle.bmp,Self,square.bmp,Friend,circle.bmp,Stranger,1,z,z,1771,m,z,triangle.bmp,Stranger
11-20-2016,8,27,right,Hebrew,female,MMProc,USF,CloseBlock,triangle.bmp,Self,square.bmp,Friend,circle.bmp,Stranger,1,z,z,797,m,z,circle.bmp,Self
11-20-2016,8,27,right,Hebrew,female,MMProc,USF,FarBlock,triangle.bmp,Self,square.bmp,Friend,circle.bmp,Stranger,1,z,z,1382,m,z,triangle.bmp,Stranger
11-20-2016,8,27,right,Hebrew,female,MMProc,USF,FarBlock,triangle.bmp,Self,square.bmp,Friend,circle.bmp,Stranger,1,m,m,695,m,z,circle.bmp,Stranger
11-20-2016,8,27,right,Hebrew,female,MMProc,USF,CloseBlock,triangle.bmp,Self,square.bmp,Friend,circle.bmp,Stranger,1,m,m,1012,m,z,triangle.bmp,Self
11-20-2016,8,27,right,Hebrew,female,MMProc,USF,MediumBlock,triangle.bmp,Self,square.bmp,Friend,circle.bmp,Stranger,1,z,z,996,m,z,circle.bmp,Friend
11-20-2016,8,27,right,Hebrew,female,MMProc,USF,CloseBlock,triangle.bmp,Self,square.bmp,Friend,circle.bmp,Stranger,1,z,z,884,m,z,circle.bmp,Self
11-20-2016,8,27,right,Hebrew,female,MMProc,USF,MediumBlock,triangle.bmp,Self,square.bmp,Friend,circle.bmp,Stranger,1,z,z,1049,m,z,triangle.bmp,Friend
11-20-2016,8,27,right,Hebrew,female,MMProc,USF,CloseBlock,triangle.bmp,Self,square.bmp,Friend,circle.bmp,Stranger,1,m,m,1544,m,z,triangle.bmp,Self
11-20-2016,8,27,right,Hebrew,female,MMProc,USF,FarBlock,triangle.bmp,Self,square.bmp,Friend,circle.bmp,Stranger,1,m,m,1218,m,z,circle.bmp,Stranger
11-20-2016,8,27,right,Hebrew,female,MMProc,USF,MediumBlock,triangle.bmp,Self,square.bmp,Friend,circle.bmp,Stranger,1,m,m,650,m,z,square.bmp,Friend
11-20-2016,8,27,right,Hebrew,female,MMProc,USF,FarBlock,triangle.bmp,Self,square.bmp,Friend,circle.bmp,Stranger,1,z,z,1145,m,z,square.bmp,Stranger
11-20-2016,8,27,right,Hebrew,female,MMProc,USF,FarBlock,triangle.bmp,Self,square.bmp,Friend,circle.bmp,Stranger,1,m,m,947,m,z,circle.bmp,Stranger
11-20-2016,8,27,right,Hebrew,female,MMProc,USF,CloseBlock,triangle.bmp,Self,square.bmp,Friend,circle.bmp,Stranger,1,m,m,854,m,z,triangle.bmp,Self
11-20-2016,8,27,right,Hebrew,female,MMProc,USF,FarBlock,triangle.bmp,Self,square.bmp,Friend,circle.bmp,Stranger,1,z,z,797,m,z,triangle.bmp,Stranger
11-20-2016,8,27,right,Hebrew,female,MMProc,USF,CloseBlock,triangle.bmp,Self,square.bmp,Friend,circle.bmp,Stranger,1,m,m,886,m,z,triangle.bmp,Self
11-20-2016,8,27,right,Hebrew,female,MMProc,USF,MediumBlock,triangle.bmp,Self,square.bmp,Friend,circle.bmp,Stranger,1,z,z,1116,m,z,circle.bmp,Friend
11-20-2016,8,27,right,Hebrew,female,MMProc,USF,FarBlock,triangle.bmp,Self,square.bmp,Friend,circle.bmp,Stranger,1,m,m,936,m,z,circle.bmp,Stranger
11-20-2016,8,27,right,Hebrew,female,MMProc,USF,FarBlock,triangle.bmp,Self,square.bmp,Friend,circle.bmp,Stranger,1,m,m,1019,m,z,circle.bmp,Stranger
11-20-2016,8,27,right,Hebrew,female,MMProc,USF,CloseBlock,triangle.bmp,Self,square.bmp,Friend,circle.bmp,Stranger,1,m,m,955,m,z,triangle.bmp,Self
11-20-2016,8,27,right,Hebrew,female,MMProc,USF,FarBlock,triangle.bmp,Self,square.bmp,Friend,circle.bmp,Stranger,1,z,z,958,m,z,triangle.bmp,Stranger
11-20-2016,8,27,right,Hebrew,female,MMProc,USF,MediumBlock,triangle.bmp,Self,square.bmp,Friend,circle.bmp,Stranger,1,z,z,1024,m,z,triangle.bmp,Friend
11-20-2016,8,27,right,Hebrew,female,MMProc,USF,MediumBlock,triangle.bmp,Self,square.bmp,Friend,circle.bmp,Stranger,1,z,z,1184,m,z,circle.bmp,Friend
11-20-2016,8,27,right,Hebrew,female,MMProc,USF,FarBlock,triangle.bmp,Self,square.bmp,Friend,circle.bmp,Stranger,1,z,z,2601,m,z,square.bmp,Stranger
11-20-2016,8,27,right,Hebrew,female,MMProc,USF,CloseBlock,triangle.bmp,Self,square.bmp,Friend,circle.bmp,Stranger,1,m,m,889,m,z,triangle.bmp,Self
11-20-2016,8,27,right,Hebrew,female,MMProc,USF,FarBlock,triangle.bmp,Self,square.bmp,Friend,circle.bmp,Stranger,1,m,m,1325,m,z,circle.bmp,Stranger
11-20-2016,8,27,right,Hebrew,female,MMProc,USF,MediumBlock,triangle.bmp,Self,square.bmp,Friend,circle.bmp,Stranger,1,m,m,1024,m,z,square.bmp,Friend
11-20-2016,8,27,right,Hebrew,female,MMProc,USF,MediumBlock,triangle.bmp,Self,square.bmp,Friend,circle.bmp,Stranger,1,z,z,960,m,z,triangle.bmp,Friend
11-20-2016,8,27,right,Hebrew,female,MMProc,USF,MediumBlock,triangle.bmp,Self,square.bmp,Friend,circle.bmp,Stranger,1,m,m,4338,m,z,square.bmp,Friend
11-20-2016,8,27,right,Hebrew,female,MMProc,USF,CloseBlock,triangle.bmp,Self,square.bmp,Friend,circle.bmp,Stranger,1,z,z,1114,m,z,square.bmp,Self
11-20-2016,8,27,right,Hebrew,female,MMProc,USF,FarBlock,triangle.bmp,Self,square.bmp,Friend,circle.bmp,Stranger,1,z,z,2966,m,z,triangle.bmp,Stranger
11-20-2016,8,27,right,Hebrew,female,MMProc,USF,CloseBlock,triangle.bmp,Self,square.bmp,Friend,circle.bmp,Stranger,1,m,m,774,m,z,triangle.bmp,Self
11-20-2016,8,27,right,Hebrew,female,MMProc,USF,MediumBlock,triangle.bmp,Self,square.bmp,Friend,circle.bmp,Stranger,1,m,m,832,m,z,square.bmp,Friend
11-20-2016,8,27,right,Hebrew,female,MMProc,USF,FarBlock,triangle.bmp,Self,square.bmp,Friend,circle.bmp,Stranger,1,z,z,920,m,z,square.bmp,Stranger
11-20-2016,8,27,right,Hebrew,female,MMProc,USF,MediumBlock,triangle.bmp,Self,square.bmp,Friend,circle.bmp,Stranger,1,m,m,1036,m,z,square.bmp,Friend
11-20-2016,8,27,right,Hebrew,female,MMProc,USF,MediumBlock,triangle.bmp,Self,square.bmp,Friend,circle.bmp,Stranger,1,z,z,1067,m,z,triangle.bmp,Friend
11-20-2016,8,27,right,Hebrew,female,MMProc,USF,CloseBlock,triangle.bmp,Self,square.bmp,Friend,circle.bmp,Stranger,1,m,m,841,m,z,triangle.bmp,Self
11-20-2016,8,27,right,Hebrew,female,MMProc,USF,CloseBlock,triangle.bmp,Self,square.bmp,Friend,circle.bmp,Stranger,1,z,z,1168,m,z,circle.bmp,Self
11-20-2016,8,27,right,Hebrew,female,MMProc,USF,MediumBlock,triangle.bmp,Self,square.bmp,Friend,circle.bmp,Stranger,1,z,z,1114,m,z,circle.bmp,Friend
11-20-2016,8,27,right,Hebrew,female,MMProc,USF,MediumBlock,triangle.bmp,Self,square.bmp,Friend,circle.bmp,Stranger,1,z,z,902,m,z,circle.bmp,Friend
11-20-2016,8,27,right,Hebrew,female,FBbreak1,USF,,triangle.bmp,Self,square.bmp,Friend,circle.bmp,Stranger,,,,,m,z,,
11-20-2016,9,24,right,Hebrew,female,Assos,FUS,,square.bmp,Self,triangle.bmp,Friend,circle.bmp,Stranger,,,,,m,z,,
11-20-2016,9,24,right,Hebrew,female,PracProc,FUS,MediumBlock,square.bmp,Self,triangle.bmp,Friend,circle.bmp,Stranger,,,,,m,z,triangle.bmp,Friend
11-20-2016,9,24,right,Hebrew,female,PracProc,FUS,MediumBlock,square.bmp,Self,triangle.bmp,Friend,circle.bmp,Stranger,,,,,m,z,triangle.bmp,Friend
11-20-2016,9,24,right,Hebrew,female,PracProc,FUS,FarBlock,square.bmp,Self,triangle.bmp,Friend,circle.bmp,Stranger,,,,,m,z,circle.bmp,Stranger
11-20-2016,9,24,right,Hebrew,female,PracProc,FUS,FarBlock,square.bmp,Self,triangle.bmp,Friend,circle.bmp,Stranger,,,,,m,z,square.bmp,Stranger
11-20-2016,9,24,right,Hebrew,female,PracProc,FUS,CloseBlock,square.bmp,Self,triangle.bmp,Friend,circle.bmp,Stranger,,,,,m,z,circle.bmp,Self
11-20-2016,9,24,right,Hebrew,female,PracProc,FUS,CloseBlock,square.bmp,Self,triangle.bmp,Friend,circle.bmp,Stranger,,,,,m,z,square.bmp,Self
11-20-2016,9,24,right,Hebrew,female,PracProc,FUS,MediumBlock,square.bmp,Self,triangle.bmp,Friend,circle.bmp,Stranger,,,,,m,z,circle.bmp,Friend
11-20-2016,9,24,right,Hebrew,female,PracProc,FUS,FarBlock,square.bmp,Self,triangle.bmp,Friend,circle.bmp,Stranger,,,,,m,z,circle.bmp,Stranger
11-20-2016,9,24,right,Hebrew,female,PracProc,FUS,CloseBlock,square.bmp,Self,triangle.bmp,Friend,circle.bmp,Stranger,,,,,m,z,triangle.bmp,Self
11-20-2016,9,24,right,Hebrew,female,PracProc,FUS,MediumBlock,square.bmp,Self,triangle.bmp,Friend,circle.bmp,Stranger,,,,,m,z,square.bmp,Friend
11-20-2016,9,24,right,Hebrew,female,PracProc,FUS,CloseBlock,square.bmp,Self,triangle.bmp,Friend,circle.bmp,Stranger,,,,,m,z,square.bmp,Self
11-20-2016,9,24,right,Hebrew,female,PracProc,FUS,FarBlock,square.bmp,Self,triangle.bmp,Friend,circle.bmp,Stranger,,,,,m,z,triangle.bmp,Stranger
11-20-2016,9,24,right,Hebrew,female,FBbreak,FUS,,square.bmp,Self,triangle.bmp,Friend,circle.bmp,Stranger,,,,,m,z,,
11-20-2016,9,24,right,Hebrew,female,inst,FUS,,square.bmp,Self,triangle.bmp,Friend,circle.bmp,Stranger,,,,,m,z,,
11-20-2016,9,24,right,Hebrew,female,MMProc,FUS,MediumBlock,square.bmp,Self,triangle.bmp,Friend,circle.bmp,Stranger,1,z,z,3553,m,z,square.bmp,Friend
11-20-2016,9,24,right,Hebrew,female,MMProc,FUS,MediumBlock,square.bmp,Self,triangle.bmp,Friend,circle.bmp,Stranger,1,m,m,1945,m,z,triangle.bmp,Friend
11-20-2016,9,24,right,Hebrew,female,MMProc,FUS,CloseBlock,square.bmp,Self,triangle.bmp,Friend,circle.bmp,Stranger,1,z,z,1523,m,z,triangle.bmp,Self
11-20-2016,9,24,right,Hebrew,female,MMProc,FUS,CloseBlock,square.bmp,Self,triangle.bmp,Friend,circle.bmp,Stranger,1,z,z,3678,m,z,circle.bmp,Self
11-20-2016,9,24,right,Hebrew,female,MMProc,FUS,MediumBlock,square.bmp,Self,triangle.bmp,Friend,circle.bmp,Stranger,1,m,m,2241,m,z,triangle.bmp,Friend
11-20-2016,9,24,right,Hebrew,female,MMProc,FUS,CloseBlock,square.bmp,Self,triangle.bmp,Friend,circle.bmp,Stranger,1,z,z,1855,m,z,triangle.bmp,Self
11-20-2016,9,24,right,Hebrew,female,MMProc,FUS,CloseBlock,square.bmp,Self,triangle.bmp,Friend,circle.bmp,Stranger,1,m,m,2732,m,z,square.bmp,Self
11-20-2016,9,24,right,Hebrew,female,MMProc,FUS,CloseBlock,square.bmp,Self,triangle.bmp,Friend,circle.bmp,Stranger,1,m,m,1094,m,z,square.bmp,Self
11-20-2016,9,24,right,Hebrew,female,MMProc,FUS,FarBlock,square.bmp,Self,triangle.bmp,Friend,circle.bmp,Stranger,0,m,z,1890,m,z,circle.bmp,Stranger
11-20-2016,9,24,right,Hebrew,female,MMProc,FUS,MediumBlock,square.bmp,Self,triangle.bmp,Friend,circle.bmp,Stranger,1,m,m,1062,m,z,triangle.bmp,Friend
11-20-2016,9,24,right,Hebrew,female,MMProc,FUS,FarBlock,square.bmp,Self,triangle.bmp,Friend,circle.bmp,Stranger,1,z,z,3332,m,z,square.bmp,Stranger
11-20-2016,9,24,right,Hebrew,female,MMProc,FUS,FarBlock,square.bmp,Self,triangle.bmp,Friend,circle.bmp,Stranger,1,z,z,2245,m,z,triangle.bmp,Stranger
11-20-2016,9,24,right,Hebrew,female,MMProc,FUS,CloseBlock,square.bmp,Self,triangle.bmp,Friend,circle.bmp,Stranger,1,m,m,4930,m,z,square.bmp,Self
11-20-2016,9,24,right,Hebrew,female,MMProc,FUS,FarBlock,square.bmp,Self,triangle.bmp,Friend,circle.bmp,Stranger,0,m,z,2658,m,z,circle.bmp,Stranger
11-20-2016,9,24,right,Hebrew,female,MMProc,FUS,MediumBlock,square.bmp,Self,triangle.bmp,Friend,circle.bmp,Stranger,0,z,m,1382,m,z,square.bmp,Friend
11-20-2016,9,24,right,Hebrew,female,MMProc,FUS,FarBlock,square.bmp,Self,triangle.bmp,Friend,circle.bmp,Stranger,1,m,m,2862,m,z,circle.bmp,Stranger
11-20-2016,9,24,right,Hebrew,female,MMProc,FUS,FarBlock,square.bmp,Self,triangle.bmp,Friend,circle.bmp,Stranger,1,m,m,819,m,z,circle.bmp,Stranger
11-20-2016,9,24,right,Hebrew,female,MMProc,FUS,CloseBlock,square.bmp,Self,triangle.bmp,Friend,circle.bmp,Stranger,1,m,m,1627,m,z,square.bmp,Self
11-20-2016,9,24,right,Hebrew,female,MMProc,FUS,FarBlock,square.bmp,Self,triangle.bmp,Friend,circle.bmp,Stranger,1,z,z,3089,m,z,square.bmp,Stranger
11-20-2016,9,24,right,Hebrew,female,MMProc,FUS,CloseBlock,square.bmp,Self,triangle.bmp,Friend,circle.bmp,Stranger,1,m,m,2828,m,z,square.bmp,Self
11-20-2016,9,24,right,Hebrew,female,MMProc,FUS,FarBlock,square.bmp,Self,triangle.bmp,Friend,circle.bmp,Stranger,0,m,z,3186,m,z,circle.bmp,Stranger
11-20-2016,9,24,right,Hebrew,female,MMProc,FUS,MediumBlock,square.bmp,Self,triangle.bmp,Friend,circle.bmp,Stranger,1,z,z,1745,m,z,circle.bmp,Friend
11-20-2016,9,24,right,Hebrew,female,MMProc,FUS,MediumBlock,square.bmp,Self,triangle.bmp,Friend,circle.bmp,Stranger,1,m,m,803,m,z,triangle.bmp,Friend
11-20-2016,9,24,right,Hebrew,female,MMProc,FUS,MediumBlock,square.bmp,Self,triangle.bmp,Friend,circle.bmp,Stranger,1,m,m,684,m,z,triangle.bmp,Friend
11-20-2016,9,24,right,Hebrew,female,MMProc,FUS,CloseBlock,square.bmp,Self,triangle.bmp,Friend,circle.bmp,Stranger,1,z,z,1641,m,z,triangle.bmp,Self
11-20-2016,9,24,right,Hebrew,female,MMProc,FUS,FarBlock,square.bmp,Self,triangle.bmp,Friend,circle.bmp,Stranger,1,z,z,3856,m,z,triangle.bmp,Stranger
11-20-2016,9,24,right,Hebrew,female,MMProc,FUS,MediumBlock,square.bmp,Self,triangle.bmp,Friend,circle.bmp,Stranger,1,z,z,2412,m,z,circle.bmp,Friend
11-20-2016,9,24,right,Hebrew,female,MMProc,FUS,FarBlock,square.bmp,Self,triangle.bmp,Friend,circle.bmp,Stranger,0,m,z,1362,m,z,circle.bmp,Stranger
11-20-2016,9,24,right,Hebrew,female,MMProc,FUS,CloseBlock,square.bmp,Self,triangle.bmp,Friend,circle.bmp,Stranger,1,z,z,3211,m,z,triangle.bmp,Self
11-20-2016,9,24,right,Hebrew,female,MMProc,FUS,CloseBlock,square.bmp,Self,triangle.bmp,Friend,circle.bmp,Stranger,1,m,m,2080,m,z,square.bmp,Self
11-20-2016,9,24,right,Hebrew,female,MMProc,FUS,FarBlock,square.bmp,Self,triangle.bmp,Friend,circle.bmp,Stranger,1,z,z,7829,m,z,square.bmp,Stranger
11-20-2016,9,24,right,Hebrew,female,MMProc,FUS,FarBlock,square.bmp,Self,triangle.bmp,Friend,circle.bmp,Stranger,1,m,m,1566,m,z,circle.bmp,Stranger
11-20-2016,9,24,right,Hebrew,female,MMProc,FUS,FarBlock,square.bmp,Self,triangle.bmp,Friend,circle.bmp,Stranger,1,z,z,1031,m,z,square.bmp,Stranger
11-20-2016,9,24,right,Hebrew,female,MMProc,FUS,MediumBlock,square.bmp,Self,triangle.bmp,Friend,circle.bmp,Stranger,1,m,m,3239,m,z,triangle.bmp,Friend
11-20-2016,9,24,right,Hebrew,female,MMProc,FUS,CloseBlock,square.bmp,Self,triangle.bmp,Friend,circle.bmp,Stranger,0,m,z,2924,m,z,square.bmp,Self
11-20-2016,9,24,right,Hebrew,female,MMProc,FUS,FarBlock,square.bmp,Self,triangle.bmp,Friend,circle.bmp,Stranger,0,z,m,1925,m,z,triangle.bmp,Stranger
11-20-2016,9,24,right,Hebrew,female,MMProc,FUS,MediumBlock,square.bmp,Self,triangle.bmp,Friend,circle.bmp,Stranger,1,z,z,3991,m,z,square.bmp,Friend
11-20-2016,9,24,right,Hebrew,female,MMProc,FUS,MediumBlock,square.bmp,Self,triangle.bmp,Friend,circle.bmp,Stranger,1,m,m,830,m,z,triangle.bmp,Friend
11-20-2016,9,24,right,Hebrew,female,MMProc,FUS,CloseBlock,square.bmp,Self,triangle.bmp,Friend,circle.bmp,Stranger,0,z,m,1398,m,z,circle.bmp,Self
11-20-2016,9,24,right,Hebrew,female,MMProc,FUS,CloseBlock,square.bmp,Self,triangle.bmp,Friend,circle.bmp,Stranger,0,m,z,2460,m,z,square.bmp,Self
11-20-2016,9,24,right,Hebrew,female,MMProc,FUS,FarBlock,square.bmp,Self,triangle.bmp,Friend,circle.bmp,Stranger,1,z,z,1545,m,z,triangle.bmp,Stranger
11-20-2016,9,24,right,Hebrew,female,MMProc,FUS,MediumBlock,square.bmp,Self,triangle.bmp,Friend,circle.bmp,Stranger,0,z,m,3971,m,z,square.bmp,Friend
11-20-2016,9,24,right,Hebrew,female,MMProc,FUS,MediumBlock,square.bmp,Self,triangle.bmp,Friend,circle.bmp,Stranger,1,z,z,1249,m,z,square.bmp,Friend
11-20-2016,9,24,right,Hebrew,female,MMProc,FUS,CloseBlock,square.bmp,Self,triangle.bmp,Friend,circle.bmp,Stranger,0,m,z,1800,m,z,square.bmp,Self
11-20-2016,9,24,right,Hebrew,female,MMProc,FUS,MediumBlock,square.bmp,Self,triangle.bmp,Friend,circle.bmp,Stranger,1,m,m,751,m,z,triangle.bmp,Friend
11-20-2016,9,24,right,Hebrew,female,MMProc,FUS,CloseBlock,square.bmp,Self,triangle.bmp,Friend,circle.bmp,Stranger,1,z,z,1226,m,z,triangle.bmp,Self
11-20-2016,9,24,right,Hebrew,female,MMProc,FUS,CloseBlock,square.bmp,Self,triangle.bmp,Friend,circle.bmp,Stranger,1,z,z,2770,m,z,triangle.bmp,Self
11-20-2016,9,24,right,Hebrew,female,MMProc,FUS,CloseBlock,square.bmp,Self,triangle.bmp,Friend,circle.bmp,Stranger,1,m,m,1418,m,z,square.bmp,Self
11-20-2016,9,24,right,Hebrew,female,MMProc,FUS,CloseBlock,square.bmp,Self,triangle.bmp,Friend,circle.bmp,Stranger,1,m,m,1146,m,z,square.bmp,Self
11-20-2016,9,24,right,Hebrew,female,MMProc,FUS,FarBlock,square.bmp,Self,triangle.bmp,Friend,circle.bmp,Stranger,1,z,z,2580,m,z,triangle.bmp,Stranger
11-20-2016,9,24,right,Hebrew,female,MMProc,FUS,MediumBlock,square.bmp,Self,triangle.bmp,Friend,circle.bmp,Stranger,1,m,m,1188,m,z,triangle.bmp,Friend
11-20-2016,9,24,right,Hebrew,female,MMProc,FUS,CloseBlock,square.bmp,Self,triangle.bmp,Friend,circle.bmp,Stranger,1,m,m,1677,m,z,square.bmp,Self
11-20-2016,9,24,right,Hebrew,female,MMProc,FUS,MediumBlock,square.bmp,Self,triangle.bmp,Friend,circle.bmp,Stranger,1,z,z,2050,m,z,circle.bmp,Friend
11-20-2016,9,24,right,Hebrew,female,MMProc,FUS,CloseBlock,square.bmp,Self,triangle.bmp,Friend,circle.bmp,Stranger,1,m,m,1479,m,z,square.bmp,Self
11-20-2016,9,24,right,Hebrew,female,MMProc,FUS,MediumBlock,square.bmp,Self,triangle.bmp,Friend,circle.bmp,Stranger,1,z,z,1924,m,z,circle.bmp,Friend
11-20-2016,9,24,right,Hebrew,female,MMProc,FUS,MediumBlock,square.bmp,Self,triangle.bmp,Friend,circle.bmp,Stranger,1,z,z,2719,m,z,square.bmp,Friend
11-20-2016,9,24,right,Hebrew,female,MMProc,FUS,MediumBlock,square.bmp,Self,triangle.bmp,Friend,circle.bmp,Stranger,1,m,m,1513,m,z,triangle.bmp,Friend
11-20-2016,9,24,right,Hebrew,female,MMProc,FUS,MediumBlock,square.bmp,Self,triangle.bmp,Friend,circle.bmp,Stranger,1,m,m,821,m,z,triangle.bmp,Friend
11-20-2016,9,24,right,Hebrew,female,MMProc,FUS,CloseBlock,square.bmp,Self,triangle.bmp,Friend,circle.bmp,Stranger,1,m,m,3309,m,z,square.bmp,Self
11-20-2016,9,24,right,Hebrew,female,MMProc,FUS,MediumBlock,square.bmp,Self,triangle.bmp,Friend,circle.bmp,Stranger,1,m,m,3535,m,z,triangle.bmp,Friend
11-20-2016,9,24,right,Hebrew,female,MMProc,FUS,CloseBlock,square.bmp,Self,triangle.bmp,Friend,circle.bmp,Stranger,1,z,z,2952,m,z,circle.bmp,Self
11-20-2016,9,24,right,Hebrew,female,MMProc,FUS,FarBlock,square.bmp,Self,triangle.bmp,Friend,circle.bmp,Stranger,1,z,z,6313,m,z,triangle.bmp,Stranger
11-20-2016,9,24,right,Hebrew,female,MMProc,FUS,CloseBlock,square.bmp,Self,triangle.bmp,Friend,circle.bmp,Stranger,1,z,z,1872,m,z,circle.bmp,Self
11-20-2016,9,24,right,Hebrew,female,MMProc,FUS,MediumBlock,square.bmp,Self,triangle.bmp,Friend,circle.bmp,Stranger,1,m,m,1853,m,z,triangle.bmp,Friend
11-20-2016,9,24,right,Hebrew,female,MMProc,FUS,CloseBlock,square.bmp,Self,triangle.bmp,Friend,circle.bmp,Stranger,1,z,z,1034,m,z,triangle.bmp,Self
11-20-2016,9,24,right,Hebrew,female,MMProc,FUS,FarBlock,square.bmp,Self,triangle.bmp,Friend,circle.bmp,Stranger,1,m,m,3241,m,z,circle.bmp,Stranger
11-20-2016,9,24,right,Hebrew,female,MMProc,FUS,MediumBlock,square.bmp,Self,triangle.bmp,Friend,circle.bmp,Stranger,1,z,z,4782,m,z,circle.bmp,Friend
11-20-2016,9,24,right,Hebrew,female,MMProc,FUS,CloseBlock,square.bmp,Self,triangle.bmp,Friend,circle.bmp,Stranger,1,z,z,1940,m,z,circle.bmp,Self
11-20-2016,9,24,right,Hebrew,female,MMProc,FUS,FarBlock,square.bmp,Self,triangle.bmp,Friend,circle.bmp,Stranger,1,m,m,2286,m,z,circle.bmp,Stranger
11-20-2016,9,24,right,Hebrew,female,MMProc,FUS,CloseBlock,square.bmp,Self,triangle.bmp,Friend,circle.bmp,Stranger,1,m,m,2874,m,z,square.bmp,Self
11-20-2016,9,24,right,Hebrew,female,MMProc,FUS,CloseBlock,square.bmp,Self,triangle.bmp,Friend,circle.bmp,Stranger,1,z,z,1758,m,z,circle.bmp,Self
11-20-2016,9,24,right,Hebrew,female,MMProc,FUS,FarBlock,square.bmp,Self,triangle.bmp,Friend,circle.bmp,Stranger,1,z,z,2671,m,z,triangle.bmp,Stranger
11-20-2016,9,24,right,Hebrew,female,MMProc,FUS,CloseBlock,square.bmp,Self,triangle.bmp,Friend,circle.bmp,Stranger,1,z,z,3612,m,z,triangle.bmp,Self
11-20-2016,9,24,right,Hebrew,female,MMProc,FUS,FarBlock,square.bmp,Self,triangle.bmp,Friend,circle.bmp,Stranger,1,m,m,2673,m,z,circle.bmp,Stranger
11-20-2016,9,24,right,Hebrew,female,MMProc,FUS,FarBlock,square.bmp,Self,triangle.bmp,Friend,circle.bmp,Stranger,1,m,m,1230,m,z,circle.bmp,Stranger
11-20-2016,9,24,right,Hebrew,female,MMProc,FUS,FarBlock,square.bmp,Self,triangle.bmp,Friend,circle.bmp,Stranger,1,m,m,884,m,z,circle.bmp,Stranger
11-20-2016,9,24,right,Hebrew,female,MMProc,FUS,CloseBlock,square.bmp,Self,triangle.bmp,Friend,circle.bmp,Stranger,1,z,z,1194,m,z,circle.bmp,Self
11-20-2016,9,24,right,Hebrew,female,MMProc,FUS,MediumBlock,square.bmp,Self,triangle.bmp,Friend,circle.bmp,Stranger,1,m,m,1426,m,z,triangle.bmp,Friend
11-20-2016,9,24,right,Hebrew,female,MMProc,FUS,FarBlock,square.bmp,Self,triangle.bmp,Friend,circle.bmp,Stranger,1,z,z,4177,m,z,triangle.bmp,Stranger
11-20-2016,9,24,right,Hebrew,female,MMProc,FUS,FarBlock,square.bmp,Self,triangle.bmp,Friend,circle.bmp,Stranger,1,m,m,2224,m,z,circle.bmp,Stranger
11-20-2016,9,24,right,Hebrew,female,MMProc,FUS,MediumBlock,square.bmp,Self,triangle.bmp,Friend,circle.bmp,Stranger,1,m,m,4030,m,z,triangle.bmp,Friend
11-20-2016,9,24,right,Hebrew,female,MMProc,FUS,CloseBlock,square.bmp,Self,triangle.bmp,Friend,circle.bmp,Stranger,1,z,z,1972,m,z,triangle.bmp,Self
11-20-2016,9,24,right,Hebrew,female,MMProc,FUS,MediumBlock,square.bmp,Self,triangle.bmp,Friend,circle.bmp,Stranger,1,z,z,2765,m,z,square.bmp,Friend
11-20-2016,9,24,right,Hebrew,female,MMProc,FUS,CloseBlock,square.bmp,Self,triangle.bmp,Friend,circle.bmp,Stranger,1,z,z,3445,m,z,triangle.bmp,Self
11-20-2016,9,24,right,Hebrew,female,MMProc,FUS,MediumBlock,square.bmp,Self,triangle.bmp,Friend,circle.bmp,Stranger,0,z,m,2610,m,z,circle.bmp,Friend
11-20-2016,9,24,right,Hebrew,female,MMProc,FUS,FarBlock,square.bmp,Self,triangle.bmp,Friend,circle.bmp,Stranger,1,z,z,4423,m,z,triangle.bmp,Stranger
11-20-2016,9,24,right,Hebrew,female,MMProc,FUS,MediumBlock,square.bmp,Self,triangle.bmp,Friend,circle.bmp,Stranger,1,m,m,987,m,z,triangle.bmp,Friend
11-20-2016,9,24,right,Hebrew,female,MMProc,FUS,CloseBlock,square.bmp,Self,triangle.bmp,Friend,circle.bmp,Stranger,1,z,z,2013,m,z,circle.bmp,Self
11-20-2016,9,24,right,Hebrew,female,MMProc,FUS,MediumBlock,square.bmp,Self,triangle.bmp,Friend,circle.bmp,Stranger,1,m,m,868,m,z,triangle.bmp,Friend
11-20-2016,9,24,right,Hebrew,female,MMProc,FUS,FarBlock,square.bmp,Self,triangle.bmp,Friend,circle.bmp,Stranger,1,m,m,2234,m,z,circle.bmp,Stranger
11-20-2016,9,24,right,Hebrew,female,MMProc,FUS,CloseBlock,square.bmp,Self,triangle.bmp,Friend,circle.bmp,Stranger,1,m,m,1512,m,z,square.bmp,Self
11-20-2016,9,24,right,Hebrew,female,MMProc,FUS,CloseBlock,square.bmp,Self,triangle.bmp,Friend,circle.bmp,Stranger,1,m,m,2180,m,z,square.bmp,Self
11-20-2016,9,24,right,Hebrew,female,MMProc,FUS,FarBlock,square.bmp,Self,triangle.bmp,Friend,circle.bmp,Stranger,1,m,m,7524,m,z,circle.bmp,Stranger
11-20-2016,9,24,right,Hebrew,female,MMProc,FUS,MediumBlock,square.bmp,Self,triangle.bmp,Friend,circle.bmp,Stranger,1,z,z,5466,m,z,circle.bmp,Friend
11-20-2016,9,24,right,Hebrew,female,MMProc,FUS,CloseBlock,square.bmp,Self,triangle.bmp,Friend,circle.bmp,Stranger,1,m,m,1252,m,z,square.bmp,Self
11-20-2016,9,24,right,Hebrew,female,MMProc,FUS,CloseBlock,square.bmp,Self,triangle.bmp,Friend,circle.bmp,Stranger,1,z,z,6249,m,z,circle.bmp,Self
11-20-2016,9,24,right,Hebrew,female,MMProc,FUS,FarBlock,square.bmp,Self,triangle.bmp,Friend,circle.bmp,Stranger,1,m,m,1683,m,z,circle.bmp,Stranger
11-20-2016,9,24,right,Hebrew,female,MMProc,FUS,FarBlock,square.bmp,Self,triangle.bmp,Friend,circle.bmp,Stranger,1,z,z,1144,m,z,triangle.bmp,Stranger
11-20-2016,9,24,right,Hebrew,female,MMProc,FUS,MediumBlock,square.bmp,Self,triangle.bmp,Friend,circle.bmp,Stranger,1,z,z,1922,m,z,circle.bmp,Friend
11-20-2016,9,24,right,Hebrew,female,MMProc,FUS,MediumBlock,square.bmp,Self,triangle.bmp,Friend,circle.bmp,Stranger,1,z,z,1150,m,z,circle.bmp,Friend
11-20-2016,9,24,right,Hebrew,female,MMProc,FUS,FarBlock,square.bmp,Self,triangle.bmp,Friend,circle.bmp,Stranger,1,z,z,2568,m,z,square.bmp,Stranger
11-20-2016,9,24,right,Hebrew,female,MMProc,FUS,FarBlock,square.bmp,Self,triangle.bmp,Friend,circle.bmp,Stranger,1,m,m,2041,m,z,circle.bmp,Stranger
11-20-2016,9,24,right,Hebrew,female,MMProc,FUS,CloseBlock,square.bmp,Self,triangle.bmp,Friend,circle.bmp,Stranger,1,z,z,1247,m,z,circle.bmp,Self
11-20-2016,9,24,right,Hebrew,female,MMProc,FUS,FarBlock,square.bmp,Self,triangle.bmp,Friend,circle.bmp,Stranger,1,z,z,1333,m,z,square.bmp,Stranger
11-20-2016,9,24,right,Hebrew,female,MMProc,FUS,CloseBlock,square.bmp,Self,triangle.bmp,Friend,circle.bmp,Stranger,1,m,m,1352,m,z,square.bmp,Self
11-20-2016,9,24,right,Hebrew,female,MMProc,FUS,FarBlock,square.bmp,Self,triangle.bmp,Friend,circle.bmp,Stranger,0,z,m,795,m,z,square.bmp,Stranger
11-20-2016,9,24,right,Hebrew,female,MMProc,FUS,FarBlock,square.bmp,Self,triangle.bmp,Friend,circle.bmp,Stranger,1,z,z,3067,m,z,square.bmp,Stranger
11-20-2016,9,24,right,Hebrew,female,MMProc,FUS,MediumBlock,square.bmp,Self,triangle.bmp,Friend,circle.bmp,Stranger,1,z,z,1303,m,z,square.bmp,Friend
11-20-2016,9,24,right,Hebrew,female,MMProc,FUS,MediumBlock,square.bmp,Self,triangle.bmp,Friend,circle.bmp,Stranger,1,z,z,5051,m,z,circle.bmp,Friend
11-20-2016,9,24,right,Hebrew,female,MMProc,FUS,MediumBlock,square.bmp,Self,triangle.bmp,Friend,circle.bmp,Stranger,1,m,m,966,m,z,triangle.bmp,Friend
11-20-2016,9,24,right,Hebrew,female,MMProc,FUS,FarBlock,square.bmp,Self,triangle.bmp,Friend,circle.bmp,Stranger,1,z,z,1240,m,z,square.bmp,Stranger
11-20-2016,9,24,right,Hebrew,female,MMProc,FUS,CloseBlock,square.bmp,Self,triangle.bmp,Friend,circle.bmp,Stranger,1,m,m,1454,m,z,square.bmp,Self
11-20-2016,9,24,right,Hebrew,female,MMProc,FUS,MediumBlock,square.bmp,Self,triangle.bmp,Friend,circle.bmp,Stranger,1,m,m,2813,m,z,triangle.bmp,Friend
11-20-2016,9,24,right,Hebrew,female,MMProc,FUS,FarBlock,square.bmp,Self,triangle.bmp,Friend,circle.bmp,Stranger,1,m,m,2835,m,z,circle.bmp,Stranger
11-20-2016,9,24,right,Hebrew,female,MMProc,FUS,MediumBlock,square.bmp,Self,triangle.bmp,Friend,circle.bmp,Stranger,0,z,m,2313,m,z,square.bmp,Friend
11-20-2016,9,24,right,Hebrew,female,MMProc,FUS,FarBlock,square.bmp,Self,triangle.bmp,Friend,circle.bmp,Stranger,1,m,m,2187,m,z,circle.bmp,Stranger
11-20-2016,9,24,right,Hebrew,female,MMProc,FUS,FarBlock,square.bmp,Self,triangle.bmp,Friend,circle.bmp,Stranger,1,m,m,1211,m,z,circle.bmp,Stranger
11-20-2016,9,24,right,Hebrew,female,MMProc,FUS,FarBlock,square.bmp,Self,triangle.bmp,Friend,circle.bmp,Stranger,1,z,z,1235,m,z,square.bmp,Stranger
11-20-2016,9,24,right,Hebrew,female,MMProc,FUS,MediumBlock,square.bmp,Self,triangle.bmp,Friend,circle.bmp,Stranger,1,m,m,858,m,z,triangle.bmp,Friend
11-20-2016,9,24,right,Hebrew,female,MMProc,FUS,MediumBlock,square.bmp,Self,triangle.bmp,Friend,circle.bmp,Stranger,0,z,m,1856,m,z,square.bmp,Friend
11-20-2016,9,24,right,Hebrew,female,FBbreak1,FUS,,square.bmp,Self,triangle.bmp,Friend,circle.bmp,Stranger,,,,,m,z,,
11-20-2016,9,24,right,Hebrew,female,MMProc,FUS,MediumBlock,square.bmp,Self,triangle.bmp,Friend,circle.bmp,Stranger,1,m,m,4302,m,z,triangle.bmp,Friend
11-20-2016,9,24,right,Hebrew,female,MMProc,FUS,FarBlock,square.bmp,Self,triangle.bmp,Friend,circle.bmp,Stranger,1,z,z,968,m,z,triangle.bmp,Stranger
11-20-2016,9,24,right,Hebrew,female,MMProc,FUS,FarBlock,square.bmp,Self,triangle.bmp,Friend,circle.bmp,Stranger,1,z,z,2633,m,z,square.bmp,Stranger
11-20-2016,9,24,right,Hebrew,female,MMProc,FUS,MediumBlock,square.bmp,Self,triangle.bmp,Friend,circle.bmp,Stranger,1,z,z,1447,m,z,circle.bmp,Friend
11-20-2016,9,24,right,Hebrew,female,MMProc,FUS,CloseBlock,square.bmp,Self,triangle.bmp,Friend,circle.bmp,Stranger,1,z,z,1205,m,z,circle.bmp,Self
11-20-2016,9,24,right,Hebrew,female,MMProc,FUS,CloseBlock,square.bmp,Self,triangle.bmp,Friend,circle.bmp,Stranger,1,z,z,1374,m,z,triangle.bmp,Self
11-20-2016,9,24,right,Hebrew,female,MMProc,FUS,MediumBlock,square.bmp,Self,triangle.bmp,Friend,circle.bmp,Stranger,1,z,z,1967,m,z,square.bmp,Friend
11-20-2016,9,24,right,Hebrew,female,MMProc,FUS,MediumBlock,square.bmp,Self,triangle.bmp,Friend,circle.bmp,Stranger,1,m,m,1192,m,z,triangle.bmp,Friend
11-20-2016,9,24,right,Hebrew,female,MMProc,FUS,FarBlock,square.bmp,Self,triangle.bmp,Friend,circle.bmp,Stranger,1,m,m,1984,m,z,circle.bmp,Stranger
11-20-2016,9,24,right,Hebrew,female,MMProc,FUS,MediumBlock,square.bmp,Self,triangle.bmp,Friend,circle.bmp,Stranger,1,z,z,2201,m,z,square.bmp,Friend
11-20-2016,9,24,right,Hebrew,female,MMProc,FUS,CloseBlock,square.bmp,Self,triangle.bmp,Friend,circle.bmp,Stranger,1,z,z,1288,m,z,circle.bmp,Self
11-20-2016,9,24,right,Hebrew,female,MMProc,FUS,FarBlock,square.bmp,Self,triangle.bmp,Friend,circle.bmp,Stranger,1,z,z,1422,m,z,square.bmp,Stranger
11-20-2016,9,24,right,Hebrew,female,MMProc,FUS,CloseBlock,square.bmp,Self,triangle.bmp,Friend,circle.bmp,Stranger,1,z,z,1117,m,z,triangle.bmp,Self
11-20-2016,9,24,right,Hebrew,female,MMProc,FUS,MediumBlock,square.bmp,Self,triangle.bmp,Friend,circle.bmp,Stranger,1,m,m,1705,m,z,triangle.bmp,Friend
11-20-2016,9,24,right,Hebrew,female,MMProc,FUS,CloseBlock,square.bmp,Self,triangle.bmp,Friend,circle.bmp,Stranger,0,m,z,1245,m,z,square.bmp,Self
11-20-2016,9,24,right,Hebrew,female,MMProc,FUS,CloseBlock,square.bmp,Self,triangle.bmp,Friend,circle.bmp,Stranger,1,z,z,1131,m,z,triangle.bmp,Self
11-20-2016,9,24,right,Hebrew,female,MMProc,FUS,CloseBlock,square.bmp,Self,triangle.bmp,Friend,circle.bmp,Stranger,1,m,m,1143,m,z,square.bmp,Self
11-20-2016,9,24,right,Hebrew,female,MMProc,FUS,CloseBlock,square.bmp,Self,triangle.bmp,Friend,circle.bmp,Stranger,1,m,m,705,m,z,square.bmp,Self
11-20-2016,9,24,right,Hebrew,female,MMProc,FUS,FarBlock,square.bmp,Self,triangle.bmp,Friend,circle.bmp,Stranger,0,m,z,1837,m,z,circle.bmp,Stranger
11-20-2016,9,24,right,Hebrew,female,MMProc,FUS,MediumBlock,square.bmp,Self,triangle.bmp,Friend,circle.bmp,Stranger,1,m,m,1411,m,z,triangle.bmp,Friend
11-20-2016,9,24,right,Hebrew,female,MMProc,FUS,MediumBlock,square.bmp,Self,triangle.bmp,Friend,circle.bmp,Stranger,1,z,z,787,m,z,square.bmp,Friend
11-20-2016,9,24,right,Hebrew,female,MMProc,FUS,CloseBlock,square.bmp,Self,triangle.bmp,Friend,circle.bmp,Stranger,0,z,m,877,m,z,triangle.bmp,Self
11-20-2016,9,24,right,Hebrew,female,MMProc,FUS,FarBlock,square.bmp,Self,triangle.bmp,Friend,circle.bmp,Stranger,1,z,z,2906,m,z,triangle.bmp,Stranger
11-20-2016,9,24,right,Hebrew,female,MMProc,FUS,CloseBlock,square.bmp,Self,triangle.bmp,Friend,circle.bmp,Stranger,1,m,m,1165,m,z,square.bmp,Self
11-20-2016,9,24,right,Hebrew,female,MMProc,FUS,FarBlock,square.bmp,Self,triangle.bmp,Friend,circle.bmp,Stranger,1,z,z,1799,m,z,square.bmp,Stranger
11-20-2016,9,24,right,Hebrew,female,MMProc,FUS,CloseBlock,square.bmp,Self,triangle.bmp,Friend,circle.bmp,Stranger,1,m,m,1143,m,z,square.bmp,Self
11-20-2016,9,24,right,Hebrew,female,MMProc,FUS,MediumBlock,square.bmp,Self,triangle.bmp,Friend,circle.bmp,Stranger,1,z,z,2849,m,z,square.bmp,Friend
11-20-2016,9,24,right,Hebrew,female,MMProc,FUS,CloseBlock,square.bmp,Self,triangle.bmp,Friend,circle.bmp,Stranger,1,m,m,1094,m,z,square.bmp,Self
11-20-2016,9,24,right,Hebrew,female,MMProc,FUS,FarBlock,square.bmp,Self,triangle.bmp,Friend,circle.bmp,Stranger,1,z,z,1203,m,z,square.bmp,Stranger
11-20-2016,9,24,right,Hebrew,female,MMProc,FUS,FarBlock,square.bmp,Self,triangle.bmp,Friend,circle.bmp,Stranger,1,m,m,2076,m,z,circle.bmp,Stranger
11-20-2016,9,24,right,Hebrew,female,MMProc,FUS,FarBlock,square.bmp,Self,triangle.bmp,Friend,circle.bmp,Stranger,1,m,m,992,m,z,circle.bmp,Stranger
11-20-2016,9,24,right,Hebrew,female,MMProc,FUS,CloseBlock,square.bmp,Self,triangle.bmp,Friend,circle.bmp,Stranger,1,z,z,1041,m,z,circle.bmp,Self
11-20-2016,9,24,right,Hebrew,female,MMProc,FUS,MediumBlock,square.bmp,Self,triangle.bmp,Friend,circle.bmp,Stranger,1,z,z,1647,m,z,circle.bmp,Friend
11-20-2016,9,24,right,Hebrew,female,MMProc,FUS,MediumBlock,square.bmp,Self,triangle.bmp,Friend,circle.bmp,Stranger,1,z,z,1941,m,z,square.bmp,Friend
11-20-2016,9,24,right,Hebrew,female,MMProc,FUS,CloseBlock,square.bmp,Self,triangle.bmp,Friend,circle.bmp,Stranger,1,z,z,879,m,z,circle.bmp,Self
11-20-2016,9,24,right,Hebrew,female,MMProc,FUS,CloseBlock,square.bmp,Self,triangle.bmp,Friend,circle.bmp,Stranger,1,z,z,1540,m,z,triangle.bmp,Self
11-20-2016,9,24,right,Hebrew,female,MMProc,FUS,FarBlock,square.bmp,Self,triangle.bmp,Friend,circle.bmp,Stranger,1,m,m,1502,m,z,circle.bmp,Stranger
11-20-2016,9,24,right,Hebrew,female,MMProc,FUS,CloseBlock,square.bmp,Self,triangle.bmp,Friend,circle.bmp,Stranger,1,m,m,1579,m,z,square.bmp,Self
11-20-2016,9,24,right,Hebrew,female,MMProc,FUS,FarBlock,square.bmp,Self,triangle.bmp,Friend,circle.bmp,Stranger,1,z,z,2243,m,z,triangle.bmp,Stranger
11-20-2016,9,24,right,Hebrew,female,MMProc,FUS,MediumBlock,square.bmp,Self,triangle.bmp,Friend,circle.bmp,Stranger,0,z,m,1073,m,z,circle.bmp,Friend
11-20-2016,9,24,right,Hebrew,female,MMProc,FUS,CloseBlock,square.bmp,Self,triangle.bmp,Friend,circle.bmp,Stranger,1,m,m,1142,m,z,square.bmp,Self
11-20-2016,9,24,right,Hebrew,female,MMProc,FUS,FarBlock,square.bmp,Self,triangle.bmp,Friend,circle.bmp,Stranger,1,m,m,2656,m,z,circle.bmp,Stranger
11-20-2016,9,24,right,Hebrew,female,MMProc,FUS,MediumBlock,square.bmp,Self,triangle.bmp,Friend,circle.bmp,Stranger,1,z,z,1406,m,z,circle.bmp,Friend
11-20-2016,9,24,right,Hebrew,female,MMProc,FUS,FarBlock,square.bmp,Self,triangle.bmp,Friend,circle.bmp,Stranger,0,m,z,1326,m,z,circle.bmp,Stranger
11-20-2016,9,24,right,Hebrew,female,MMProc,FUS,CloseBlock,square.bmp,Self,triangle.bmp,Friend,circle.bmp,Stranger,1,z,z,1369,m,z,triangle.bmp,Self
11-20-2016,9,24,right,Hebrew,female,MMProc,FUS,MediumBlock,square.bmp,Self,triangle.bmp,Friend,circle.bmp,Stranger,1,m,m,3034,m,z,triangle.bmp,Friend
11-20-2016,9,24,right,Hebrew,female,MMProc,FUS,MediumBlock,square.bmp,Self,triangle.bmp,Friend,circle.bmp,Stranger,1,m,m,984,m,z,triangle.bmp,Friend
11-20-2016,9,24,right,Hebrew,female,MMProc,FUS,MediumBlock,square.bmp,Self,triangle.bmp,Friend,circle.bmp,Stranger,1,m,m,905,m,z,triangle.bmp,Friend
11-20-2016,9,24,right,Hebrew,female,MMProc,FUS,CloseBlock,square.bmp,Self,triangle.bmp,Friend,circle.bmp,Stranger,0,z,m,797,m,z,triangle.bmp,Self
11-20-2016,9,24,right,Hebrew,female,MMProc,FUS,CloseBlock,square.bmp,Self,triangle.bmp,Friend,circle.bmp,Stranger,1,m,m,1310,m,z,square.bmp,Self
11-20-2016,9,24,right,Hebrew,female,MMProc,FUS,FarBlock,square.bmp,Self,triangle.bmp,Friend,circle.bmp,Stranger,1,z,z,3217,m,z,square.bmp,Stranger
11-20-2016,9,24,right,Hebrew,female,MMProc,FUS,FarBlock,square.bmp,Self,triangle.bmp,Friend,circle.bmp,Stranger,1,m,m,1879,m,z,circle.bmp,Stranger
11-20-2016,9,24,right,Hebrew,female,MMProc,FUS,MediumBlock,square.bmp,Self,triangle.bmp,Friend,circle.bmp,Stranger,1,z,z,1044,m,z,circle.bmp,Friend
11-20-2016,9,24,right,Hebrew,female,MMProc,FUS,FarBlock,square.bmp,Self,triangle.bmp,Friend,circle.bmp,Stranger,1,z,z,2547,m,z,triangle.bmp,Stranger
11-20-2016,9,24,right,Hebrew,female,MMProc,FUS,CloseBlock,square.bmp,Self,triangle.bmp,Friend,circle.bmp,Stranger,1,m,m,1108,m,z,square.bmp,Self
11-20-2016,9,24,right,Hebrew,female,MMProc,FUS,FarBlock,square.bmp,Self,triangle.bmp,Friend,circle.bmp,Stranger,1,m,m,1488,m,z,circle.bmp,Stranger
11-20-2016,9,24,right,Hebrew,female,MMProc,FUS,MediumBlock,square.bmp,Self,triangle.bmp,Friend,circle.bmp,Stranger,1,m,m,1277,m,z,triangle.bmp,Friend
11-20-2016,9,24,right,Hebrew,female,MMProc,FUS,CloseBlock,square.bmp,Self,triangle.bmp,Friend,circle.bmp,Stranger,1,z,z,1106,m,z,triangle.bmp,Self
11-20-2016,9,24,right,Hebrew,female,MMProc,FUS,CloseBlock,square.bmp,Self,triangle.bmp,Friend,circle.bmp,Stranger,1,z,z,1631,m,z,triangle.bmp,Self
11-20-2016,9,24,right,Hebrew,female,MMProc,FUS,MediumBlock,square.bmp,Self,triangle.bmp,Friend,circle.bmp,Stranger,1,m,m,1542,m,z,triangle.bmp,Friend
11-20-2016,9,24,right,Hebrew,female,MMProc,FUS,MediumBlock,square.bmp,Self,triangle.bmp,Friend,circle.bmp,Stranger,0,z,m,1312,m,z,circle.bmp,Friend
11-20-2016,9,24,right,Hebrew,female,MMProc,FUS,FarBlock,square.bmp,Self,triangle.bmp,Friend,circle.bmp,Stranger,1,m,m,1291,m,z,circle.bmp,Stranger
11-20-2016,9,24,right,Hebrew,female,MMProc,FUS,FarBlock,square.bmp,Self,triangle.bmp,Friend,circle.bmp,Stranger,1,z,z,3502,m,z,triangle.bmp,Stranger
11-20-2016,9,24,right,Hebrew,female,MMProc,FUS,FarBlock,square.bmp,Self,triangle.bmp,Friend,circle.bmp,Stranger,1,m,m,1049,m,z,circle.bmp,Stranger
11-20-2016,9,24,right,Hebrew,female,MMProc,FUS,CloseBlock,square.bmp,Self,triangle.bmp,Friend,circle.bmp,Stranger,1,m,m,1032,m,z,square.bmp,Self
11-20-2016,9,24,right,Hebrew,female,MMProc,FUS,MediumBlock,square.bmp,Self,triangle.bmp,Friend,circle.bmp,Stranger,1,z,z,1079,m,z,square.bmp,Friend
11-20-2016,9,24,right,Hebrew,female,MMProc,FUS,CloseBlock,square.bmp,Self,triangle.bmp,Friend,circle.bmp,Stranger,1,z,z,6084,m,z,triangle.bmp,Self
11-20-2016,9,24,right,Hebrew,female,MMProc,FUS,MediumBlock,square.bmp,Self,triangle.bmp,Friend,circle.bmp,Stranger,1,m,m,4357,m,z,triangle.bmp,Friend
11-20-2016,9,24,right,Hebrew,female,MMProc,FUS,FarBlock,square.bmp,Self,triangle.bmp,Friend,circle.bmp,Stranger,0,m,z,2956,m,z,circle.bmp,Stranger
11-20-2016,9,24,right,Hebrew,female,MMProc,FUS,MediumBlock,square.bmp,Self,triangle.bmp,Friend,circle.bmp,Stranger,1,m,m,2661,m,z,triangle.bmp,Friend
11-20-2016,9,24,right,Hebrew,female,MMProc,FUS,FarBlock,square.bmp,Self,triangle.bmp,Friend,circle.bmp,Stranger,1,z,z,4993,m,z,square.bmp,Stranger
11-20-2016,9,24,right,Hebrew,female,MMProc,FUS,MediumBlock,square.bmp,Self,triangle.bmp,Friend,circle.bmp,Stranger,1,m,m,879,m,z,triangle.bmp,Friend
11-20-2016,9,24,right,Hebrew,female,MMProc,FUS,CloseBlock,square.bmp,Self,triangle.bmp,Friend,circle.bmp,Stranger,1,m,m,1140,m,z,square.bmp,Self
11-20-2016,9,24,right,Hebrew,female,MMProc,FUS,FarBlock,square.bmp,Self,triangle.bmp,Friend,circle.bmp,Stranger,1,m,m,1710,m,z,circle.bmp,Stranger
11-20-2016,9,24,right,Hebrew,female,MMProc,FUS,FarBlock,square.bmp,Self,triangle.bmp,Friend,circle.bmp,Stranger,1,z,z,1473,m,z,square.bmp,Stranger
11-20-2016,9,24,right,Hebrew,female,MMProc,FUS,FarBlock,square.bmp,Self,triangle.bmp,Friend,circle.bmp,Stranger,1,m,m,2526,m,z,circle.bmp,Stranger
11-20-2016,9,24,right,Hebrew,female,MMProc,FUS,FarBlock,square.bmp,Self,triangle.bmp,Friend,circle.bmp,Stranger,1,z,z,928,m,z,triangle.bmp,Stranger
11-20-2016,9,24,right,Hebrew,female,MMProc,FUS,MediumBlock,square.bmp,Self,triangle.bmp,Friend,circle.bmp,Stranger,1,m,m,3508,m,z,triangle.bmp,Friend
11-20-2016,9,24,right,Hebrew,female,MMProc,FUS,FarBlock,square.bmp,Self,triangle.bmp,Friend,circle.bmp,Stranger,1,m,m,1437,m,z,circle.bmp,Stranger
11-20-2016,9,24,right,Hebrew,female,MMProc,FUS,FarBlock,square.bmp,Self,triangle.bmp,Friend,circle.bmp,Stranger,0,z,m,972,m,z,triangle.bmp,Stranger
11-20-2016,9,24,right,Hebrew,female,MMProc,FUS,MediumBlock,square.bmp,Self,triangle.bmp,Friend,circle.bmp,Stranger,1,m,m,1030,m,z,triangle.bmp,Friend
11-20-2016,9,24,right,Hebrew,female,MMProc,FUS,MediumBlock,square.bmp,Self,triangle.bmp,Friend,circle.bmp,Stranger,1,m,m,981,m,z,triangle.bmp,Friend
11-20-2016,9,24,right,Hebrew,female,MMProc,FUS,MediumBlock,square.bmp,Self,triangle.bmp,Friend,circle.bmp,Stranger,1,m,m,647,m,z,triangle.bmp,Friend
11-20-2016,9,24,right,Hebrew,female,MMProc,FUS,MediumBlock,square.bmp,Self,triangle.bmp,Friend,circle.bmp,Stranger,1,z,z,822,m,z,circle.bmp,Friend
11-20-2016,9,24,right,Hebrew,female,MMProc,FUS,FarBlock,square.bmp,Self,triangle.bmp,Friend,circle.bmp,Stranger,1,z,z,2078,m,z,triangle.bmp,Stranger
11-20-2016,9,24,right,Hebrew,female,MMProc,FUS,CloseBlock,square.bmp,Self,triangle.bmp,Friend,circle.bmp,Stranger,1,m,m,1123,m,z,square.bmp,Self
11-20-2016,9,24,right,Hebrew,female,MMProc,FUS,MediumBlock,square.bmp,Self,triangle.bmp,Friend,circle.bmp,Stranger,1,m,m,2319,m,z,triangle.bmp,Friend
11-20-2016,9,24,right,Hebrew,female,MMProc,FUS,FarBlock,square.bmp,Self,triangle.bmp,Friend,circle.bmp,Stranger,1,m,m,906,m,z,circle.bmp,Stranger
11-20-2016,9,24,right,Hebrew,female,MMProc,FUS,FarBlock,square.bmp,Self,triangle.bmp,Friend,circle.bmp,Stranger,1,m,m,1310,m,z,circle.bmp,Stranger
11-20-2016,9,24,right,Hebrew,female,MMProc,FUS,FarBlock,square.bmp,Self,triangle.bmp,Friend,circle.bmp,Stranger,1,z,z,2241,m,z,square.bmp,Stranger
11-20-2016,9,24,right,Hebrew,female,MMProc,FUS,MediumBlock,square.bmp,Self,triangle.bmp,Friend,circle.bmp,Stranger,1,z,z,1503,m,z,square.bmp,Friend
11-20-2016,9,24,right,Hebrew,female,MMProc,FUS,MediumBlock,square.bmp,Self,triangle.bmp,Friend,circle.bmp,Stranger,1,z,z,1419,m,z,circle.bmp,Friend
11-20-2016,9,24,right,Hebrew,female,MMProc,FUS,CloseBlock,square.bmp,Self,triangle.bmp,Friend,circle.bmp,Stranger,1,z,z,1131,m,z,circle.bmp,Self
11-20-2016,9,24,right,Hebrew,female,MMProc,FUS,FarBlock,square.bmp,Self,triangle.bmp,Friend,circle.bmp,Stranger,1,m,m,1622,m,z,circle.bmp,Stranger
11-20-2016,9,24,right,Hebrew,female,MMProc,FUS,CloseBlock,square.bmp,Self,triangle.bmp,Friend,circle.bmp,Stranger,1,z,z,1150,m,z,circle.bmp,Self
11-20-2016,9,24,right,Hebrew,female,MMProc,FUS,CloseBlock,square.bmp,Self,triangle.bmp,Friend,circle.bmp,Stranger,0,m,z,888,m,z,square.bmp,Self
11-20-2016,9,24,right,Hebrew,female,MMProc,FUS,CloseBlock,square.bmp,Self,triangle.bmp,Friend,circle.bmp,Stranger,1,z,z,1173,m,z,circle.bmp,Self
11-20-2016,9,24,right,Hebrew,female,MMProc,FUS,FarBlock,square.bmp,Self,triangle.bmp,Friend,circle.bmp,Stranger,1,z,z,1086,m,z,square.bmp,Stranger
11-20-2016,9,24,right,Hebrew,female,MMProc,FUS,MediumBlock,square.bmp,Self,triangle.bmp,Friend,circle.bmp,Stranger,1,z,z,1036,m,z,square.bmp,Friend
11-20-2016,9,24,right,Hebrew,female,MMProc,FUS,MediumBlock,square.bmp,Self,triangle.bmp,Friend,circle.bmp,Stranger,1,m,m,1035,m,z,triangle.bmp,Friend
11-20-2016,9,24,right,Hebrew,female,MMProc,FUS,MediumBlock,square.bmp,Self,triangle.bmp,Friend,circle.bmp,Stranger,1,m,m,747,m,z,triangle.bmp,Friend
11-20-2016,9,24,right,Hebrew,female,MMProc,FUS,MediumBlock,square.bmp,Self,triangle.bmp,Friend,circle.bmp,Stranger,0,z,m,598,m,z,square.bmp,Friend
11-20-2016,9,24,right,Hebrew,female,MMProc,FUS,CloseBlock,square.bmp,Self,triangle.bmp,Friend,circle.bmp,Stranger,1,z,z,1198,m,z,circle.bmp,Self
11-20-2016,9,24,right,Hebrew,female,MMProc,FUS,MediumBlock,square.bmp,Self,triangle.bmp,Friend,circle.bmp,Stranger,1,z,z,1287,m,z,circle.bmp,Friend
11-20-2016,9,24,right,Hebrew,female,MMProc,FUS,CloseBlock,square.bmp,Self,triangle.bmp,Friend,circle.bmp,Stranger,1,m,m,1340,m,z,square.bmp,Self
11-20-2016,9,24,right,Hebrew,female,MMProc,FUS,FarBlock,square.bmp,Self,triangle.bmp,Friend,circle.bmp,Stranger,1,z,z,2558,m,z,triangle.bmp,Stranger
11-20-2016,9,24,right,Hebrew,female,MMProc,FUS,MediumBlock,square.bmp,Self,triangle.bmp,Friend,circle.bmp,Stranger,1,z,z,1439,m,z,circle.bmp,Friend
11-20-2016,9,24,right,Hebrew,female,MMProc,FUS,CloseBlock,square.bmp,Self,triangle.bmp,Friend,circle.bmp,Stranger,1,m,m,734,m,z,square.bmp,Self
11-20-2016,9,24,right,Hebrew,female,MMProc,FUS,FarBlock,square.bmp,Self,triangle.bmp,Friend,circle.bmp,Stranger,1,m,m,2601,m,z,circle.bmp,Stranger
11-20-2016,9,24,right,Hebrew,female,MMProc,FUS,MediumBlock,square.bmp,Self,triangle.bmp,Friend,circle.bmp,Stranger,1,m,m,2105,m,z,triangle.bmp,Friend
11-20-2016,9,24,right,Hebrew,female,MMProc,FUS,MediumBlock,square.bmp,Self,triangle.bmp,Friend,circle.bmp,Stranger,1,z,z,1244,m,z,square.bmp,Friend
11-20-2016,9,24,right,Hebrew,female,MMProc,FUS,CloseBlock,square.bmp,Self,triangle.bmp,Friend,circle.bmp,Stranger,1,m,m,755,m,z,square.bmp,Self
11-20-2016,9,24,right,Hebrew,female,MMProc,FUS,CloseBlock,square.bmp,Self,triangle.bmp,Friend,circle.bmp,Stranger,1,z,z,1662,m,z,circle.bmp,Self
11-20-2016,9,24,right,Hebrew,female,MMProc,FUS,FarBlock,square.bmp,Self,triangle.bmp,Friend,circle.bmp,Stranger,1,m,m,1203,m,z,circle.bmp,Stranger
11-20-2016,9,24,right,Hebrew,female,MMProc,FUS,FarBlock,square.bmp,Self,triangle.bmp,Friend,circle.bmp,Stranger,1,z,z,2012,m,z,triangle.bmp,Stranger
11-20-2016,9,24,right,Hebrew,female,MMProc,FUS,CloseBlock,square.bmp,Self,triangle.bmp,Friend,circle.bmp,Stranger,1,z,z,1091,m,z,circle.bmp,Self
11-20-2016,9,24,right,Hebrew,female,MMProc,FUS,CloseBlock,square.bmp,Self,triangle.bmp,Friend,circle.bmp,Stranger,1,m,m,1376,m,z,square.bmp,Self
11-20-2016,9,24,right,Hebrew,female,MMProc,FUS,CloseBlock,square.bmp,Self,triangle.bmp,Friend,circle.bmp,Stranger,1,m,m,945,m,z,square.bmp,Self
11-20-2016,9,24,right,Hebrew,female,MMProc,FUS,CloseBlock,square.bmp,Self,triangle.bmp,Friend,circle.bmp,Stranger,1,m,m,532,m,z,square.bmp,Self
11-20-2016,9,24,right,Hebrew,female,MMProc,FUS,FarBlock,square.bmp,Self,triangle.bmp,Friend,circle.bmp,Stranger,1,z,z,760,m,z,square.bmp,Stranger
11-20-2016,9,24,right,Hebrew,female,FBbreak1,FUS,,square.bmp,Self,triangle.bmp,Friend,circle.bmp,Stranger,,,,,m,z,,
11-20-2016,9,24,right,Hebrew,female,MMProc,FUS,MediumBlock,square.bmp,Self,triangle.bmp,Friend,circle.bmp,Stranger,1,m,m,2645,m,z,triangle.bmp,Friend
11-20-2016,9,24,right,Hebrew,female,MMProc,FUS,CloseBlock,square.bmp,Self,triangle.bmp,Friend,circle.bmp,Stranger,1,z,z,803,m,z,triangle.bmp,Self
11-20-2016,9,24,right,Hebrew,female,MMProc,FUS,MediumBlock,square.bmp,Self,triangle.bmp,Friend,circle.bmp,Stranger,1,z,z,1388,m,z,square.bmp,Friend
11-20-2016,9,24,right,Hebrew,female,MMProc,FUS,CloseBlock,square.bmp,Self,triangle.bmp,Friend,circle.bmp,Stranger,1,m,m,1373,m,z,square.bmp,Self
11-20-2016,9,24,right,Hebrew,female,MMProc,FUS,MediumBlock,square.bmp,Self,triangle.bmp,Friend,circle.bmp,Stranger,1,z,z,1518,m,z,square.bmp,Friend
11-20-2016,9,24,right,Hebrew,female,MMProc,FUS,FarBlock,square.bmp,Self,triangle.bmp,Friend,circle.bmp,Stranger,1,m,m,1450,m,z,circle.bmp,Stranger
11-20-2016,9,24,right,Hebrew,female,MMProc,FUS,MediumBlock,square.bmp,Self,triangle.bmp,Friend,circle.bmp,Stranger,1,m,m,1208,m,z,triangle.bmp,Friend
11-20-2016,9,24,right,Hebrew,female,MMProc,FUS,FarBlock,square.bmp,Self,triangle.bmp,Friend,circle.bmp,Stranger,1,z,z,976,m,z,triangle.bmp,Stranger
11-20-2016,9,24,right,Hebrew,female,MMProc,FUS,FarBlock,square.bmp,Self,triangle.bmp,Friend,circle.bmp,Stranger,1,z,z,1298,m,z,square.bmp,Stranger
11-20-2016,9,24,right,Hebrew,female,MMProc,FUS,MediumBlock,square.bmp,Self,triangle.bmp,Friend,circle.bmp,Stranger,1,z,z,726,m,z,square.bmp,Friend
11-20-2016,9,24,right,Hebrew,female,MMProc,FUS,MediumBlock,square.bmp,Self,triangle.bmp,Friend,circle.bmp,Stranger,1,m,m,1218,m,z,triangle.bmp,Friend
11-20-2016,9,24,right,Hebrew,female,MMProc,FUS,FarBlock,square.bmp,Self,triangle.bmp,Friend,circle.bmp,Stranger,1,z,z,938,m,z,triangle.bmp,Stranger
11-20-2016,9,24,right,Hebrew,female,MMProc,FUS,MediumBlock,square.bmp,Self,triangle.bmp,Friend,circle.bmp,Stranger,0,z,m,893,m,z,circle.bmp,Friend
11-20-2016,9,24,right,Hebrew,female,MMProc,FUS,CloseBlock,square.bmp,Self,triangle.bmp,Friend,circle.bmp,Stranger,1,m,m,826,m,z,square.bmp,Self
11-20-2016,9,24,right,Hebrew,female,MMProc,FUS,CloseBlock,square.bmp,Self,triangle.bmp,Friend,circle.bmp,Stranger,1,m,m,864,m,z,square.bmp,Self
11-20-2016,9,24,right,Hebrew,female,MMProc,FUS,MediumBlock,square.bmp,Self,triangle.bmp,Friend,circle.bmp,Stranger,1,m,m,1239,m,z,triangle.bmp,Friend
11-20-2016,9,24,right,Hebrew,female,MMProc,FUS,FarBlock,square.bmp,Self,triangle.bmp,Friend,circle.bmp,Stranger,0,m,z,894,m,z,circle.bmp,Stranger
11-20-2016,9,24,right,Hebrew,female,MMProc,FUS,FarBlock,square.bmp,Self,triangle.bmp,Friend,circle.bmp,Stranger,1,m,m,890,m,z,circle.bmp,Stranger
11-20-2016,9,24,right,Hebrew,female,MMProc,FUS,FarBlock,square.bmp,Self,triangle.bmp,Friend,circle.bmp,Stranger,1,z,z,1103,m,z,triangle.bmp,Stranger
11-20-2016,9,24,right,Hebrew,female,MMProc,FUS,CloseBlock,square.bmp,Self,triangle.bmp,Friend,circle.bmp,Stranger,1,m,m,764,m,z,square.bmp,Self
11-20-2016,9,24,right,Hebrew,female,MMProc,FUS,FarBlock,square.bmp,Self,triangle.bmp,Friend,circle.bmp,Stranger,1,z,z,2118,m,z,square.bmp,Stranger
11-20-2016,9,24,right,Hebrew,female,MMProc,FUS,CloseBlock,square.bmp,Self,triangle.bmp,Friend,circle.bmp,Stranger,1,m,m,2457,m,z,square.bmp,Self
11-20-2016,9,24,right,Hebrew,female,MMProc,FUS,CloseBlock,square.bmp,Self,triangle.bmp,Friend,circle.bmp,Stranger,1,z,z,1038,m,z,circle.bmp,Self
11-20-2016,9,24,right,Hebrew,female,MMProc,FUS,CloseBlock,square.bmp,Self,triangle.bmp,Friend,circle.bmp,Stranger,1,z,z,2158,m,z,circle.bmp,Self
11-20-2016,9,24,right,Hebrew,female,MMProc,FUS,MediumBlock,square.bmp,Self,triangle.bmp,Friend,circle.bmp,Stranger,1,m,m,879,m,z,triangle.bmp,Friend
11-20-2016,9,24,right,Hebrew,female,MMProc,FUS,MediumBlock,square.bmp,Self,triangle.bmp,Friend,circle.bmp,Stranger,0,z,m,2308,m,z,circle.bmp,Friend
11-20-2016,9,24,right,Hebrew,female,MMProc,FUS,FarBlock,square.bmp,Self,triangle.bmp,Friend,circle.bmp,Stranger,1,z,z,1143,m,z,triangle.bmp,Stranger
11-20-2016,9,24,right,Hebrew,female,MMProc,FUS,MediumBlock,square.bmp,Self,triangle.bmp,Friend,circle.bmp,Stranger,1,m,m,1841,m,z,triangle.bmp,Friend
11-20-2016,9,24,right,Hebrew,female,MMProc,FUS,MediumBlock,square.bmp,Self,triangle.bmp,Friend,circle.bmp,Stranger,1,m,m,767,m,z,triangle.bmp,Friend
11-20-2016,9,24,right,Hebrew,female,MMProc,FUS,MediumBlock,square.bmp,Self,triangle.bmp,Friend,circle.bmp,Stranger,1,z,z,1418,m,z,circle.bmp,Friend
11-20-2016,9,24,right,Hebrew,female,MMProc,FUS,FarBlock,square.bmp,Self,triangle.bmp,Friend,circle.bmp,Stranger,0,z,m,1224,m,z,triangle.bmp,Stranger
11-20-2016,9,24,right,Hebrew,female,MMProc,FUS,CloseBlock,square.bmp,Self,triangle.bmp,Friend,circle.bmp,Stranger,1,m,m,1639,m,z,square.bmp,Self
11-20-2016,9,24,right,Hebrew,female,MMProc,FUS,FarBlock,square.bmp,Self,triangle.bmp,Friend,circle.bmp,Stranger,1,z,z,3998,m,z,triangle.bmp,Stranger
11-20-2016,9,24,right,Hebrew,female,MMProc,FUS,CloseBlock,square.bmp,Self,triangle.bmp,Friend,circle.bmp,Stranger,1,m,m,1556,m,z,square.bmp,Self
11-20-2016,9,24,right,Hebrew,female,MMProc,FUS,FarBlock,square.bmp,Self,triangle.bmp,Friend,circle.bmp,Stranger,1,m,m,1246,m,z,circle.bmp,Stranger
11-20-2016,9,24,right,Hebrew,female,MMProc,FUS,FarBlock,square.bmp,Self,triangle.bmp,Friend,circle.bmp,Stranger,1,m,m,628,m,z,circle.bmp,Stranger
11-20-2016,9,24,right,Hebrew,female,MMProc,FUS,CloseBlock,square.bmp,Self,triangle.bmp,Friend,circle.bmp,Stranger,1,m,m,836,m,z,square.bmp,Self
11-20-2016,9,24,right,Hebrew,female,MMProc,FUS,CloseBlock,square.bmp,Self,triangle.bmp,Friend,circle.bmp,Stranger,1,z,z,1276,m,z,triangle.bmp,Self
11-20-2016,9,24,right,Hebrew,female,MMProc,FUS,MediumBlock,square.bmp,Self,triangle.bmp,Friend,circle.bmp,Stranger,1,z,z,1537,m,z,square.bmp,Friend
11-20-2016,9,24,right,Hebrew,female,MMProc,FUS,FarBlock,square.bmp,Self,triangle.bmp,Friend,circle.bmp,Stranger,1,z,z,1532,m,z,triangle.bmp,Stranger
11-20-2016,9,24,right,Hebrew,female,MMProc,FUS,FarBlock,square.bmp,Self,triangle.bmp,Friend,circle.bmp,Stranger,1,z,z,1127,m,z,square.bmp,Stranger
11-20-2016,9,24,right,Hebrew,female,MMProc,FUS,CloseBlock,square.bmp,Self,triangle.bmp,Friend,circle.bmp,Stranger,1,z,z,1298,m,z,circle.bmp,Self
11-20-2016,9,24,right,Hebrew,female,MMProc,FUS,MediumBlock,square.bmp,Self,triangle.bmp,Friend,circle.bmp,Stranger,1,m,m,887,m,z,triangle.bmp,Friend
11-20-2016,9,24,right,Hebrew,female,MMProc,FUS,FarBlock,square.bmp,Self,triangle.bmp,Friend,circle.bmp,Stranger,1,m,m,1292,m,z,circle.bmp,Stranger
11-20-2016,9,24,right,Hebrew,female,MMProc,FUS,CloseBlock,square.bmp,Self,triangle.bmp,Friend,circle.bmp,Stranger,1,z,z,1457,m,z,triangle.bmp,Self
11-20-2016,9,24,right,Hebrew,female,MMProc,FUS,FarBlock,square.bmp,Self,triangle.bmp,Friend,circle.bmp,Stranger,1,z,z,1887,m,z,square.bmp,Stranger
