"Subject","Age","Gender","Handedness","First_Language","Block","Trial","Phase","Shape","Label","Matching","Origin_Identity","English_Identity","Standarlized_Identity","ShapeLoc","Response","RT_ms","RT_sec","ACC"
1,24,"Female","r","h",1,1,"EXPERIMENT","Self","Self","Matching","Self","Individual_Self","Self","Top","m",1250.153674,1.250153674,1
1,24,"Female","r","h",1,2,"EXPERIMENT","Self","They","Nonmatching","Self","Individual_Self","Self","Top","n",700.194594,0.700194594,1
1,24,"Female","r","h",1,3,"EXPERIMENT","They","You","Nonmatching","They","Group-Stranger","Stranger","Top","n",850.199944,0.850199944,1
1,24,"Female","r","h",1,4,"EXPERIMENT","You","Self","Nonmatching","You","Individual_Stranger","Stranger","Bottom","n",716.834395,0.716834395,1
1,24,"Female","r","h",1,5,"EXPERIMENT","They","They","Matching","They","Group-Stranger","Stranger","Top","m",816.821643,0.816821643,1
1,24,"Female","r","h",1,6,"EXPERIMENT","Self","Self","Matching","Self","Individual_Self","Self","Top","m",666.831691,0.666831691,1
1,24,"Female","r","h",1,7,"EXPERIMENT","Self","They","Nonmatching","Self","Individual_Self","Self","Bottom","n",633.537087,0.633537087,1
1,24,"Female","r","h",1,8,"EXPERIMENT","Self","Self","Matching","Self","Individual_Self","Self","Bottom","m",566.880764,0.566880764,1
1,24,"Female","r","h",1,9,"EXPERIMENT","They","Self","Nonmatching","They","Group-Stranger","Stranger","Bottom","n",516.847265,0.516847265,1
1,24,"Female","r","h",1,10,"EXPERIMENT","We","We","Matching","We","Group-Self","Self","Top","n",716.828868,0.716828868,0
1,24,"Female","r","h",1,11,"EXPERIMENT","Self","Self","Matching","Self","Individual_Self","Self","Bottom","m",700.163011,0.700163011,1
1,24,"Female","r","h",1,12,"EXPERIMENT","We","We","Matching","We","Group-Self","Self","Bottom","m",716.868742,0.716868742,1
1,24,"Female","r","h",1,13,"EXPERIMENT","They","We","Nonmatching","They","Group-Stranger","Stranger","Bottom","n",783.491113,0.783491113,1
1,24,"Female","r","h",1,14,"EXPERIMENT","Self","We","Nonmatching","Self","Individual_Self","Self","Bottom","n",950.167057,0.950167057,1
1,24,"Female","r","h",1,15,"EXPERIMENT","Self","You","Nonmatching","Self","Individual_Self","Self","Top","n",1016.83404,1.01683404,1
1,24,"Female","r","h",1,16,"EXPERIMENT","You","We","Nonmatching","You","Individual_Stranger","Stranger","Bottom","n",716.829263,0.716829263,1
1,24,"Female","r","h",1,17,"EXPERIMENT","We","We","Matching","We","Group-Self","Self","Bottom","m",833.497765,0.833497765,1
1,24,"Female","r","h",1,18,"EXPERIMENT","They","We","Nonmatching","They","Group-Stranger","Stranger","Bottom","n",716.836764,0.716836764,1
1,24,"Female","r","h",1,19,"EXPERIMENT","You","You","Matching","You","Individual_Stranger","Stranger","Top","m",1066.818584,1.066818584,1
1,24,"Female","r","h",1,20,"EXPERIMENT","Self","They","Nonmatching","Self","Individual_Self","Self","Top","n",983.471926,0.983471926,1
1,24,"Female","r","h",1,21,"EXPERIMENT","Self","You","Nonmatching","Self","Individual_Self","Self","Bottom","n",783.497825,0.783497825,1
1,24,"Female","r","h",1,22,"EXPERIMENT","They","They","Matching","They","Group-Stranger","Stranger","Bottom","m",933.622007,0.933622007,1
1,24,"Female","r","h",1,23,"EXPERIMENT","We","We","Matching","We","Group-Self","Self","Top","m",816.86665,0.81686665,1
1,24,"Female","r","h",1,24,"EXPERIMENT","You","You","Matching","You","Individual_Stranger","Stranger","Bottom","m",783.449659,0.783449659,1
1,24,"Female","r","h",1,25,"EXPERIMENT","We","They","Nonmatching","We","Group-Self","Self","Top","n",1216.820775,1.216820775,1
1,24,"Female","r","h",1,26,"EXPERIMENT","Self","You","Nonmatching","Self","Individual_Self","Self","Bottom","n",750.11834,0.75011834,1
1,24,"Female","r","h",1,27,"EXPERIMENT","You","You","Matching","You","Individual_Stranger","Stranger","Bottom","m",816.840988,0.816840988,1
1,24,"Female","r","h",1,28,"EXPERIMENT","Self","Self","Matching","Self","Individual_Self","Self","Bottom","m",783.495456,0.783495456,1
1,24,"Female","r","h",1,29,"EXPERIMENT","They","They","Matching","They","Group-Stranger","Stranger","Bottom","m",800.190923,0.800190923,1
1,24,"Female","r","h",1,30,"EXPERIMENT","They","Self","Nonmatching","They","Group-Stranger","Stranger","Bottom","n",883.520209,0.883520209,1
1,24,"Female","r","h",1,31,"EXPERIMENT","They","Self","Nonmatching","They","Group-Stranger","Stranger","Top","n",1083.482072,1.083482072,1
1,24,"Female","r","h",1,32,"EXPERIMENT","You","You","Matching","You","Individual_Stranger","Stranger","Top","m",733.506175,0.733506175,1
1,24,"Female","r","h",1,33,"EXPERIMENT","We","We","Matching","We","Group-Self","Self","Bottom","m",633.518926,0.633518926,1
1,24,"Female","r","h",1,34,"EXPERIMENT","We","You","Nonmatching","We","Group-Self","Self","Bottom","m",700.167748,0.700167748,0
1,24,"Female","r","h",1,35,"EXPERIMENT","They","They","Matching","They","Group-Stranger","Stranger","Bottom","m",1050.138119,1.050138119,1
1,24,"Female","r","h",1,36,"EXPERIMENT","You","They","Nonmatching","You","Individual_Stranger","Stranger","Bottom","n",1083.500233,1.083500233,1
1,24,"Female","r","h",1,37,"EXPERIMENT","You","We","Nonmatching","You","Individual_Stranger","Stranger","Top","n",716.822946,0.716822946,1
1,24,"Female","r","h",1,38,"EXPERIMENT","You","You","Matching","You","Individual_Stranger","Stranger","Top","m",916.826657,0.916826657,1
1,24,"Female","r","h",1,39,"EXPERIMENT","You","They","Nonmatching","You","Individual_Stranger","Stranger","Top","n",833.487106,0.833487106,1
1,24,"Female","r","h",1,40,"EXPERIMENT","We","We","Matching","We","Group-Self","Self","Top","m",633.507872,0.633507872,1
1,24,"Female","r","h",1,41,"EXPERIMENT","They","We","Nonmatching","They","Group-Stranger","Stranger","Top","n",700.148008,0.700148008,1
1,24,"Female","r","h",1,42,"EXPERIMENT","You","You","Matching","You","Individual_Stranger","Stranger","Bottom","m",683.487678,0.683487678,1
1,24,"Female","r","h",1,43,"EXPERIMENT","They","They","Matching","They","Group-Stranger","Stranger","Bottom","m",966.843574,0.966843574,1
1,24,"Female","r","h",1,44,"EXPERIMENT","We","We","Matching","We","Group-Self","Self","Bottom","m",983.486928,0.983486928,1
1,24,"Female","r","h",1,45,"EXPERIMENT","You","You","Matching","You","Individual_Stranger","Stranger","Top","m",733.536968,0.733536968,1
1,24,"Female","r","h",1,46,"EXPERIMENT","Self","We","Nonmatching","Self","Individual_Self","Self","Top","n",1066.786211,1.066786211,1
1,24,"Female","r","h",1,47,"EXPERIMENT","You","Self","Nonmatching","You","Individual_Stranger","Stranger","Bottom","n",966.788698,0.966788698,1
1,24,"Female","r","h",1,48,"EXPERIMENT","Self","Self","Matching","Self","Individual_Self","Self","Bottom","m",983.512985,0.983512985,1
1,24,"Female","r","h",1,49,"EXPERIMENT","Self","They","Nonmatching","Self","Individual_Self","Self","Bottom","n",616.817932,0.616817932,1
1,24,"Female","r","h",1,50,"EXPERIMENT","We","Self","Nonmatching","We","Group-Self","Self","Bottom","n",833.510794,0.833510794,1
1,24,"Female","r","h",1,51,"EXPERIMENT","We","We","Matching","We","Group-Self","Self","Top","m",800.148285,0.800148285,1
1,24,"Female","r","h",1,52,"EXPERIMENT","You","Self","Nonmatching","You","Individual_Stranger","Stranger","Top","n",850.171519,0.850171519,1
1,24,"Female","r","h",1,53,"EXPERIMENT","Self","You","Nonmatching","Self","Individual_Self","Self","Top","n",1066.856879,1.066856879,1
1,24,"Female","r","h",1,54,"EXPERIMENT","They","You","Nonmatching","They","Group-Stranger","Stranger","Top","n",1000.217532,1.000217532,1
1,24,"Female","r","h",1,55,"EXPERIMENT","We","You","Nonmatching","We","Group-Self","Self","Top","m",1000.166603,1.000166603,0
1,24,"Female","r","h",1,56,"EXPERIMENT","They","You","Nonmatching","They","Group-Stranger","Stranger","Bottom","n",866.853957,0.866853957,1
1,24,"Female","r","h",1,57,"EXPERIMENT","They","They","Matching","They","Group-Stranger","Stranger","Top","m",983.494035,0.983494035,1
1,24,"Female","r","h",1,58,"EXPERIMENT","You","They","Nonmatching","You","Individual_Stranger","Stranger","Top","n",1066.820953,1.066820953,1
1,24,"Female","r","h",1,59,"EXPERIMENT","They","They","Matching","They","Group-Stranger","Stranger","Bottom","m",850.154937,0.850154937,1
1,24,"Female","r","h",1,60,"EXPERIMENT","You","You","Matching","You","Individual_Stranger","Stranger","Bottom","m",733.479723,0.733479723,1
1,24,"Female","r","h",1,61,"EXPERIMENT","You","Self","Nonmatching","You","Individual_Stranger","Stranger","Top","n",883.49968,0.88349968,1
1,24,"Female","r","h",1,62,"EXPERIMENT","They","They","Matching","They","Group-Stranger","Stranger","Top","m",916.825867,0.916825867,1
1,24,"Female","r","h",1,63,"EXPERIMENT","They","You","Nonmatching","They","Group-Stranger","Stranger","Bottom","n",833.519084,0.833519084,1
1,24,"Female","r","h",1,64,"EXPERIMENT","We","Self","Nonmatching","We","Group-Self","Self","Top","n",866.796317,0.866796317,1
1,24,"Female","r","h",1,65,"EXPERIMENT","Self","We","Nonmatching","Self","Individual_Self","Self","Top","n",1000.14489,1.00014489,1
1,24,"Female","r","h",1,66,"EXPERIMENT","Self","Self","Matching","Self","Individual_Self","Self","Top","m",716.820577,0.716820577,1
1,24,"Female","r","h",1,67,"EXPERIMENT","You","You","Matching","You","Individual_Stranger","Stranger","Top","m",716.887298,0.716887298,1
1,24,"Female","r","h",1,68,"EXPERIMENT","You","You","Matching","You","Individual_Stranger","Stranger","Bottom","n",850.145067,0.850145067,0
1,24,"Female","r","h",1,69,"EXPERIMENT","They","They","Matching","They","Group-Stranger","Stranger","Top","m",1100.160563,1.100160563,1
1,24,"Female","r","h",1,70,"EXPERIMENT","You","You","Matching","You","Individual_Stranger","Stranger","Top","m",666.859721,0.666859721,1
1,24,"Female","r","h",1,71,"EXPERIMENT","Self","Self","Matching","Self","Individual_Self","Self","Bottom","m",683.553609,0.683553609,1
1,24,"Female","r","h",1,72,"EXPERIMENT","We","We","Matching","We","Group-Self","Self","Top","m",750.152292,0.750152292,1
1,24,"Female","r","h",1,73,"EXPERIMENT","We","We","Matching","We","Group-Self","Self","Bottom","m",783.519933,0.783519933,1
1,24,"Female","r","h",1,74,"EXPERIMENT","Self","We","Nonmatching","Self","Individual_Self","Self","Bottom","m",650.18123,0.65018123,0
1,24,"Female","r","h",1,75,"EXPERIMENT","They","Self","Nonmatching","They","Group-Stranger","Stranger","Top","n",733.509728,0.733509728,1
1,24,"Female","r","h",1,76,"EXPERIMENT","We","Self","Nonmatching","We","Group-Self","Self","Bottom","n",883.502838,0.883502838,1
1,24,"Female","r","h",1,77,"EXPERIMENT","We","They","Nonmatching","We","Group-Self","Self","Top","n",1150.209063,1.150209063,1
1,24,"Female","r","h",1,78,"EXPERIMENT","We","We","Matching","We","Group-Self","Self","Bottom","m",733.535784,0.733535784,1
1,24,"Female","r","h",1,79,"EXPERIMENT","You","We","Nonmatching","You","Individual_Stranger","Stranger","Top","n",733.522361,0.733522361,1
1,24,"Female","r","h",1,80,"EXPERIMENT","Self","Self","Matching","Self","Individual_Self","Self","Top","m",733.49433,0.73349433,1
1,24,"Female","r","h",1,81,"EXPERIMENT","We","You","Nonmatching","We","Group-Self","Self","Top","n",1250.189995,1.250189995,1
1,24,"Female","r","h",1,82,"EXPERIMENT","We","They","Nonmatching","We","Group-Self","Self","Bottom","n",800.227244,0.800227244,1
1,24,"Female","r","h",1,83,"EXPERIMENT","You","You","Matching","You","Individual_Stranger","Stranger","Bottom","m",700.178802,0.700178802,1
1,24,"Female","r","h",1,84,"EXPERIMENT","They","They","Matching","They","Group-Stranger","Stranger","Bottom","m",1150.137211,1.150137211,1
1,24,"Female","r","h",1,85,"EXPERIMENT","We","You","Nonmatching","We","Group-Self","Self","Bottom","n",983.296242,0.983296242,1
1,24,"Female","r","h",1,86,"EXPERIMENT","Self","Self","Matching","Self","Individual_Self","Self","Top","m",683.765614,0.683765614,1
1,24,"Female","r","h",1,87,"EXPERIMENT","They","We","Nonmatching","They","Group-Stranger","Stranger","Top","n",883.496127,0.883496127,1
1,24,"Female","r","h",1,88,"EXPERIMENT","You","We","Nonmatching","You","Individual_Stranger","Stranger","Bottom","n",733.453667,0.733453667,1
1,24,"Female","r","h",1,89,"EXPERIMENT","Self","Self","Matching","Self","Individual_Self","Self","Top","m",716.862426,0.716862426,1
1,24,"Female","r","h",1,90,"EXPERIMENT","They","They","Matching","They","Group-Stranger","Stranger","Top","m",1000.190291,1.000190291,1
1,24,"Female","r","h",1,91,"EXPERIMENT","We","Self","Nonmatching","We","Group-Self","Self","Top","n",900.155667,0.900155667,1
1,24,"Female","r","h",1,92,"EXPERIMENT","You","They","Nonmatching","You","Individual_Stranger","Stranger","Bottom","n",983.472321,0.983472321,1
1,24,"Female","r","h",1,93,"EXPERIMENT","We","They","Nonmatching","We","Group-Self","Self","Bottom","n",1266.820321,1.266820321,1
1,24,"Female","r","h",1,94,"EXPERIMENT","They","They","Matching","They","Group-Stranger","Stranger","Top","m",900.1608,0.9001608,1
1,24,"Female","r","h",1,95,"EXPERIMENT","Self","Self","Matching","Self","Individual_Self","Self","Bottom","m",833.480394,0.833480394,1
1,24,"Female","r","h",1,96,"EXPERIMENT","We","We","Matching","We","Group-Self","Self","Top","m",1033.500687,1.033500687,1
1,24,"Female","r","h",2,1,"EXPERIMENT","You","They","Nonmatching","You","Individual_Stranger","Stranger","Bottom","None",NA,NA,3
1,24,"Female","r","h",2,2,"EXPERIMENT","They","They","Matching","They","Group-Stranger","Stranger","Bottom","m",916.880744,0.916880744,1
1,24,"Female","r","h",2,3,"EXPERIMENT","Self","They","Nonmatching","Self","Individual_Self","Self","Bottom","n",766.889212,0.766889212,1
1,24,"Female","r","h",2,4,"EXPERIMENT","They","You","Nonmatching","They","Group-Stranger","Stranger","Top","n",733.501832,0.733501832,1
1,24,"Female","r","h",2,5,"EXPERIMENT","You","They","Nonmatching","You","Individual_Stranger","Stranger","Top","n",666.88183,0.66688183,1
1,24,"Female","r","h",2,6,"EXPERIMENT","You","We","Nonmatching","You","Individual_Stranger","Stranger","Bottom","m",616.838461,0.616838461,0
1,24,"Female","r","h",2,7,"EXPERIMENT","You","You","Matching","You","Individual_Stranger","Stranger","Top","m",950.166268,0.950166268,1
1,24,"Female","r","h",2,8,"EXPERIMENT","They","We","Nonmatching","They","Group-Stranger","Stranger","Bottom","n",683.582034,0.683582034,1
1,24,"Female","r","h",2,9,"EXPERIMENT","Self","You","Nonmatching","Self","Individual_Self","Self","Bottom","n",866.831849,0.866831849,1
1,24,"Female","r","h",2,10,"EXPERIMENT","We","We","Matching","We","Group-Self","Self","Top","m",766.828019,0.766828019,1
1,24,"Female","r","h",2,11,"EXPERIMENT","We","You","Nonmatching","We","Group-Self","Self","Top","n",700.185514,0.700185514,1
1,24,"Female","r","h",2,12,"EXPERIMENT","We","We","Matching","We","Group-Self","Self","Bottom","m",1533.492198,1.533492198,1
1,24,"Female","r","h",2,13,"EXPERIMENT","We","Self","Nonmatching","We","Group-Self","Self","Top","n",1000.156339,1.000156339,1
1,24,"Female","r","h",2,14,"EXPERIMENT","You","You","Matching","You","Individual_Stranger","Stranger","Bottom","m",816.840593,0.816840593,1
1,24,"Female","r","h",2,15,"EXPERIMENT","We","You","Nonmatching","We","Group-Self","Self","Bottom","n",900.178171,0.900178171,1
1,24,"Female","r","h",2,16,"EXPERIMENT","They","You","Nonmatching","They","Group-Stranger","Stranger","Top","n",816.8477,0.8168477,1
1,24,"Female","r","h",2,17,"EXPERIMENT","You","You","Matching","You","Individual_Stranger","Stranger","Top","m",683.554793,0.683554793,1
1,24,"Female","r","h",2,18,"EXPERIMENT","They","They","Matching","They","Group-Stranger","Stranger","Top","n",816.831908,0.816831908,0
1,24,"Female","r","h",2,19,"EXPERIMENT","Self","We","Nonmatching","Self","Individual_Self","Self","Bottom","n",1100.158589,1.100158589,1
1,24,"Female","r","h",2,20,"EXPERIMENT","Self","They","Nonmatching","Self","Individual_Self","Self","Top","n",866.85909,0.86685909,1
1,24,"Female","r","h",2,21,"EXPERIMENT","We","We","Matching","We","Group-Self","Self","Bottom","m",800.162497,0.800162497,1
1,24,"Female","r","h",2,22,"EXPERIMENT","They","Self","Nonmatching","They","Group-Stranger","Stranger","Bottom","n",966.858971,0.966858971,1
1,24,"Female","r","h",2,23,"EXPERIMENT","Self","You","Nonmatching","Self","Individual_Self","Self","Top","n",816.89468,0.81689468,1
1,24,"Female","r","h",2,24,"EXPERIMENT","We","We","Matching","We","Group-Self","Self","Bottom","m",750.20322,0.75020322,1
1,24,"Female","r","h",2,25,"EXPERIMENT","We","Self","Nonmatching","We","Group-Self","Self","Bottom","n",733.487224,0.733487224,1
1,24,"Female","r","h",2,26,"EXPERIMENT","They","They","Matching","They","Group-Stranger","Stranger","Top","m",1083.502601,1.083502601,1
1,24,"Female","r","h",2,27,"EXPERIMENT","They","Self","Nonmatching","They","Group-Stranger","Stranger","Top","n",716.819393,0.716819393,1
1,24,"Female","r","h",2,28,"EXPERIMENT","Self","Self","Matching","Self","Individual_Self","Self","Bottom","m",700.262894,0.700262894,1
1,24,"Female","r","h",2,29,"EXPERIMENT","They","They","Matching","They","Group-Stranger","Stranger","Top","m",833.474472,0.833474472,1
1,24,"Female","r","h",2,30,"EXPERIMENT","Self","Self","Matching","Self","Individual_Self","Self","Top","m",733.508148,0.733508148,1
1,24,"Female","r","h",2,31,"EXPERIMENT","We","We","Matching","We","Group-Self","Self","Bottom","m",566.908794,0.566908794,1
1,24,"Female","r","h",2,32,"EXPERIMENT","You","You","Matching","You","Individual_Stranger","Stranger","Top","m",750.166505,0.750166505,1
1,24,"Female","r","h",2,33,"EXPERIMENT","You","Self","Nonmatching","You","Individual_Stranger","Stranger","Top","n",833.483553,0.833483553,1
1,24,"Female","r","h",2,34,"EXPERIMENT","You","They","Nonmatching","You","Individual_Stranger","Stranger","Bottom","n",983.514564,0.983514564,1
1,24,"Female","r","h",2,35,"EXPERIMENT","We","Self","Nonmatching","We","Group-Self","Self","Top","m",866.844087,0.866844087,0
1,24,"Female","r","h",2,36,"EXPERIMENT","We","We","Matching","We","Group-Self","Self","Bottom","m",733.434322,0.733434322,1
1,24,"Female","r","h",2,37,"EXPERIMENT","Self","Self","Matching","Self","Individual_Self","Self","Bottom","m",800.159734,0.800159734,1
1,24,"Female","r","h",2,38,"EXPERIMENT","We","We","Matching","We","Group-Self","Self","Top","m",800.192502,0.800192502,1
1,24,"Female","r","h",2,39,"EXPERIMENT","We","We","Matching","We","Group-Self","Self","Top","m",633.518137,0.633518137,1
1,24,"Female","r","h",2,40,"EXPERIMENT","They","We","Nonmatching","They","Group-Stranger","Stranger","Bottom","n",983.499562,0.983499562,1
1,24,"Female","r","h",2,41,"EXPERIMENT","Self","You","Nonmatching","Self","Individual_Self","Self","Bottom","n",1016.799298,1.016799298,1
1,24,"Female","r","h",2,42,"EXPERIMENT","You","You","Matching","You","Individual_Stranger","Stranger","Bottom","m",950.186797,0.950186797,1
1,24,"Female","r","h",2,43,"EXPERIMENT","We","They","Nonmatching","We","Group-Self","Self","Bottom","n",950.175743,0.950175743,1
1,24,"Female","r","h",2,44,"EXPERIMENT","We","We","Matching","We","Group-Self","Self","Bottom","m",716.83479,0.71683479,1
1,24,"Female","r","h",2,45,"EXPERIMENT","Self","We","Nonmatching","Self","Individual_Self","Self","Top","n",783.495456,0.783495456,1
1,24,"Female","r","h",2,46,"EXPERIMENT","We","We","Matching","We","Group-Self","Self","Top","m",1083.431933,1.083431933,1
1,24,"Female","r","h",2,47,"EXPERIMENT","We","They","Nonmatching","We","Group-Self","Self","Top","n",716.926777,0.716926777,1
1,24,"Female","r","h",2,48,"EXPERIMENT","Self","Self","Matching","Self","Individual_Self","Self","Bottom","m",650.163465,0.650163465,1
1,24,"Female","r","h",2,49,"EXPERIMENT","We","We","Matching","We","Group-Self","Self","Top","m",783.535725,0.783535725,1
1,24,"Female","r","h",2,50,"EXPERIMENT","You","You","Matching","You","Individual_Stranger","Stranger","Bottom","n",1116.831553,1.116831553,0
1,24,"Female","r","h",2,51,"EXPERIMENT","Self","They","Nonmatching","Self","Individual_Self","Self","Bottom","n",1000.161866,1.000161866,1
1,24,"Female","r","h",2,52,"EXPERIMENT","You","Self","Nonmatching","You","Individual_Stranger","Stranger","Bottom","n",1000.189896,1.000189896,1
1,24,"Female","r","h",2,53,"EXPERIMENT","They","You","Nonmatching","They","Group-Stranger","Stranger","Bottom","n",1266.828217,1.266828217,1
1,24,"Female","r","h",2,54,"EXPERIMENT","You","You","Matching","You","Individual_Stranger","Stranger","Top","m",783.479664,0.783479664,1
1,24,"Female","r","h",2,55,"EXPERIMENT","They","They","Matching","They","Group-Stranger","Stranger","Bottom","n",816.82875,0.81682875,0
1,24,"Female","r","h",2,56,"EXPERIMENT","Self","We","Nonmatching","Self","Individual_Self","Self","Top","n",966.8416,0.9668416,1
1,24,"Female","r","h",2,57,"EXPERIMENT","You","You","Matching","You","Individual_Stranger","Stranger","Bottom","m",750.177164,0.750177164,1
1,24,"Female","r","h",2,58,"EXPERIMENT","Self","Self","Matching","Self","Individual_Self","Self","Top","m",633.516952,0.633516952,1
1,24,"Female","r","h",2,59,"EXPERIMENT","Self","Self","Matching","Self","Individual_Self","Self","Top","m",616.845568,0.616845568,1
1,24,"Female","r","h",2,60,"EXPERIMENT","We","They","Nonmatching","We","Group-Self","Self","Top","n",1000.154365,1.000154365,1
1,24,"Female","r","h",2,61,"EXPERIMENT","Self","Self","Matching","Self","Individual_Self","Self","Bottom","m",716.871111,0.716871111,1
1,24,"Female","r","h",2,62,"EXPERIMENT","They","They","Matching","They","Group-Stranger","Stranger","Top","m",900.211334,0.900211334,1
1,24,"Female","r","h",2,63,"EXPERIMENT","You","You","Matching","You","Individual_Stranger","Stranger","Top","m",716.866768,0.716866768,1
1,24,"Female","r","h",2,64,"EXPERIMENT","We","They","Nonmatching","We","Group-Self","Self","Bottom","n",733.483276,0.733483276,1
1,24,"Female","r","h",2,65,"EXPERIMENT","We","Self","Nonmatching","We","Group-Self","Self","Bottom","n",833.507635,0.833507635,1
1,24,"Female","r","h",2,66,"EXPERIMENT","They","We","Nonmatching","They","Group-Stranger","Stranger","Top","n",750.166505,0.750166505,1
1,24,"Female","r","h",2,67,"EXPERIMENT","You","Self","Nonmatching","You","Individual_Stranger","Stranger","Bottom","n",850.184547,0.850184547,1
1,24,"Female","r","h",2,68,"EXPERIMENT","They","We","Nonmatching","They","Group-Stranger","Stranger","Top","m",733.518413,0.733518413,0
1,24,"Female","r","h",2,69,"EXPERIMENT","They","They","Matching","They","Group-Stranger","Stranger","Bottom","m",900.189225,0.900189225,1
1,24,"Female","r","h",2,70,"EXPERIMENT","Self","Self","Matching","Self","Individual_Self","Self","Top","m",700.156694,0.700156694,1
1,24,"Female","r","h",2,71,"EXPERIMENT","Self","They","Nonmatching","Self","Individual_Self","Self","Top","n",866.879619,0.866879619,1
1,24,"Female","r","h",2,72,"EXPERIMENT","You","We","Nonmatching","You","Individual_Stranger","Stranger","Top","n",916.864163,0.916864163,1
1,24,"Female","r","h",2,73,"EXPERIMENT","We","You","Nonmatching","We","Group-Self","Self","Bottom","n",900.151325,0.900151325,1
1,24,"Female","r","h",2,74,"EXPERIMENT","They","They","Matching","They","Group-Stranger","Stranger","Bottom","m",933.513044,0.933513044,1
1,24,"Female","r","h",2,75,"EXPERIMENT","You","You","Matching","You","Individual_Stranger","Stranger","Top","m",883.540344,0.883540344,1
1,24,"Female","r","h",2,76,"EXPERIMENT","Self","Self","Matching","Self","Individual_Self","Self","Bottom","m",616.8507,0.6168507,1
1,24,"Female","r","h",2,77,"EXPERIMENT","You","You","Matching","You","Individual_Stranger","Stranger","Bottom","m",750.151897,0.750151897,1
1,24,"Female","r","h",2,78,"EXPERIMENT","Self","Self","Matching","Self","Individual_Self","Self","Top","m",666.850641,0.666850641,1
1,24,"Female","r","h",2,79,"EXPERIMENT","You","Self","Nonmatching","You","Individual_Stranger","Stranger","Top","n",733.491172,0.733491172,1
1,24,"Female","r","h",2,80,"EXPERIMENT","Self","We","Nonmatching","Self","Individual_Self","Self","Bottom","n",966.852654,0.966852654,1
1,24,"Female","r","h",2,81,"EXPERIMENT","Self","You","Nonmatching","Self","Individual_Self","Self","Top","n",850.185336,0.850185336,1
1,24,"Female","r","h",2,82,"EXPERIMENT","Self","Self","Matching","Self","Individual_Self","Self","Top","m",1050.159043,1.050159043,1
1,24,"Female","r","h",2,83,"EXPERIMENT","Self","Self","Matching","Self","Individual_Self","Self","Bottom","m",1333.502305,1.333502305,1
1,24,"Female","r","h",2,84,"EXPERIMENT","They","You","Nonmatching","They","Group-Stranger","Stranger","Bottom","n",766.858813,0.766858813,1
1,24,"Female","r","h",2,85,"EXPERIMENT","We","We","Matching","We","Group-Self","Self","Top","m",783.482822,0.783482822,1
1,24,"Female","r","h",2,86,"EXPERIMENT","They","Self","Nonmatching","They","Group-Stranger","Stranger","Bottom","n",683.537028,0.683537028,1
1,24,"Female","r","h",2,87,"EXPERIMENT","You","We","Nonmatching","You","Individual_Stranger","Stranger","Bottom","n",883.498496,0.883498496,1
1,24,"Female","r","h",2,88,"EXPERIMENT","They","Self","Nonmatching","They","Group-Stranger","Stranger","Top","n",733.505385,0.733505385,1
1,24,"Female","r","h",2,89,"EXPERIMENT","You","We","Nonmatching","You","Individual_Stranger","Stranger","Top","n",1000.160682,1.000160682,1
1,24,"Female","r","h",2,90,"EXPERIMENT","They","They","Matching","They","Group-Stranger","Stranger","Top","m",1050.147594,1.050147594,1
1,24,"Female","r","h",2,91,"EXPERIMENT","You","They","Nonmatching","You","Individual_Stranger","Stranger","Top","n",900.182119,0.900182119,1
1,24,"Female","r","h",2,92,"EXPERIMENT","They","They","Matching","They","Group-Stranger","Stranger","Bottom","n",883.495732,0.883495732,0
1,24,"Female","r","h",2,93,"EXPERIMENT","We","You","Nonmatching","We","Group-Self","Self","Top","n",1233.481894,1.233481894,1
1,24,"Female","r","h",2,94,"EXPERIMENT","They","They","Matching","They","Group-Stranger","Stranger","Top","m",866.836981,0.866836981,1
1,24,"Female","r","h",2,95,"EXPERIMENT","They","They","Matching","They","Group-Stranger","Stranger","Bottom","None",NA,NA,3
1,24,"Female","r","h",2,96,"EXPERIMENT","You","You","Matching","You","Individual_Stranger","Stranger","Bottom","m",733.53381,0.73353381,1
1,24,"Female","r","h",3,1,"EXPERIMENT","Self","You","Nonmatching","Self","Individual_Self","Self","Bottom","n",850.192443,0.850192443,1
1,24,"Female","r","h",3,2,"EXPERIMENT","They","They","Matching","They","Group-Stranger","Stranger","Bottom","m",716.824525,0.716824525,1
1,24,"Female","r","h",3,3,"EXPERIMENT","You","You","Matching","You","Individual_Stranger","Stranger","Bottom","m",600.191159,0.600191159,1
1,24,"Female","r","h",3,4,"EXPERIMENT","They","You","Nonmatching","They","Group-Stranger","Stranger","Bottom","n",716.81505,0.71681505,1
1,24,"Female","r","h",3,5,"EXPERIMENT","You","Self","Nonmatching","You","Individual_Stranger","Stranger","Top","n",1033.49437,1.03349437,1
1,24,"Female","r","h",3,6,"EXPERIMENT","You","You","Matching","You","Individual_Stranger","Stranger","Bottom","m",1016.835619,1.016835619,1
1,24,"Female","r","h",3,7,"EXPERIMENT","They","They","Matching","They","Group-Stranger","Stranger","Top","m",616.890969,0.616890969,1
1,24,"Female","r","h",3,8,"EXPERIMENT","They","They","Matching","They","Group-Stranger","Stranger","Top","m",900.166722,0.900166722,1
1,24,"Female","r","h",3,9,"EXPERIMENT","They","Self","Nonmatching","They","Group-Stranger","Stranger","Bottom","n",733.536179,0.733536179,1
1,24,"Female","r","h",3,10,"EXPERIMENT","Self","They","Nonmatching","Self","Individual_Self","Self","Top","n",816.835461,0.816835461,1
1,24,"Female","r","h",3,11,"EXPERIMENT","Self","Self","Matching","Self","Individual_Self","Self","Top","m",616.837277,0.616837277,1
1,24,"Female","r","h",3,12,"EXPERIMENT","They","Self","Nonmatching","They","Group-Stranger","Stranger","Top","n",633.651183,0.633651183,1
1,24,"Female","r","h",3,13,"EXPERIMENT","Self","We","Nonmatching","Self","Individual_Self","Self","Bottom","m",816.638459,0.816638459,0
1,24,"Female","r","h",3,14,"EXPERIMENT","Self","Self","Matching","Self","Individual_Self","Self","Top","m",666.839982,0.666839982,1
1,24,"Female","r","h",3,15,"EXPERIMENT","You","We","Nonmatching","You","Individual_Stranger","Stranger","Bottom","n",766.838284,0.766838284,1
1,24,"Female","r","h",3,16,"EXPERIMENT","You","We","Nonmatching","You","Individual_Stranger","Stranger","Top","n",683.4936,0.6834936,1
1,24,"Female","r","h",3,17,"EXPERIMENT","They","We","Nonmatching","They","Group-Stranger","Stranger","Top","n",966.827387,0.966827387,1
1,24,"Female","r","h",3,18,"EXPERIMENT","We","We","Matching","We","Group-Self","Self","Top","m",716.813471,0.716813471,1
1,24,"Female","r","h",3,19,"EXPERIMENT","You","They","Nonmatching","You","Individual_Stranger","Stranger","Bottom","n",750.198088,0.750198088,1
1,24,"Female","r","h",3,20,"EXPERIMENT","We","We","Matching","We","Group-Self","Self","Top","m",783.50651,0.78350651,1
1,24,"Female","r","h",3,21,"EXPERIMENT","They","You","Nonmatching","They","Group-Stranger","Stranger","Top","n",933.475933,0.933475933,1
1,24,"Female","r","h",3,22,"EXPERIMENT","Self","Self","Matching","Self","Individual_Self","Self","Top","m",633.546167,0.633546167,1
1,24,"Female","r","h",3,23,"EXPERIMENT","We","We","Matching","We","Group-Self","Self","Top","m",683.674416,0.683674416,1
1,24,"Female","r","h",3,24,"EXPERIMENT","Self","You","Nonmatching","Self","Individual_Self","Self","Bottom","n",750.193746,0.750193746,1
1,24,"Female","r","h",3,25,"EXPERIMENT","We","They","Nonmatching","We","Group-Self","Self","Bottom","n",1133.488724,1.133488724,1
1,24,"Female","r","h",3,26,"EXPERIMENT","You","They","Nonmatching","You","Individual_Stranger","Stranger","Top","n",950.198641,0.950198641,1
1,24,"Female","r","h",3,27,"EXPERIMENT","We","They","Nonmatching","We","Group-Self","Self","Bottom","n",983.485744,0.983485744,1
1,24,"Female","r","h",3,28,"EXPERIMENT","They","We","Nonmatching","They","Group-Stranger","Stranger","Bottom","n",700.162616,0.700162616,1
1,24,"Female","r","h",3,29,"EXPERIMENT","We","We","Matching","We","Group-Self","Self","Top","m",700.167748,0.700167748,1
1,24,"Female","r","h",3,30,"EXPERIMENT","Self","We","Nonmatching","Self","Individual_Self","Self","Top","n",900.152509,0.900152509,1
1,24,"Female","r","h",3,31,"EXPERIMENT","You","You","Matching","You","Individual_Stranger","Stranger","Top","m",783.518749,0.783518749,1
1,24,"Female","r","h",3,32,"EXPERIMENT","They","Self","Nonmatching","They","Group-Stranger","Stranger","Top","n",666.892489,0.666892489,1
1,24,"Female","r","h",3,33,"EXPERIMENT","They","They","Matching","They","Group-Stranger","Stranger","Top","m",766.840653,0.766840653,1
1,24,"Female","r","h",3,34,"EXPERIMENT","Self","Self","Matching","Self","Individual_Self","Self","Bottom","m",683.483335,0.683483335,1
1,24,"Female","r","h",3,35,"EXPERIMENT","They","They","Matching","They","Group-Stranger","Stranger","Top","m",616.806483,0.616806483,1
1,24,"Female","r","h",3,36,"EXPERIMENT","You","You","Matching","You","Individual_Stranger","Stranger","Top","m",666.827743,0.666827743,1
1,24,"Female","r","h",3,37,"EXPERIMENT","They","We","Nonmatching","They","Group-Stranger","Stranger","Bottom","n",650.198601,0.650198601,1
1,24,"Female","r","h",3,38,"EXPERIMENT","You","You","Matching","You","Individual_Stranger","Stranger","Bottom","m",700.175644,0.700175644,1
1,24,"Female","r","h",3,39,"EXPERIMENT","Self","They","Nonmatching","Self","Individual_Self","Self","Bottom","n",766.833546,0.766833546,1
1,24,"Female","r","h",3,40,"EXPERIMENT","You","You","Matching","You","Individual_Stranger","Stranger","Bottom","m",900.210149,0.900210149,1
1,24,"Female","r","h",3,41,"EXPERIMENT","They","Self","Nonmatching","They","Group-Stranger","Stranger","Bottom","n",633.479447,0.633479447,1
1,24,"Female","r","h",3,42,"EXPERIMENT","Self","Self","Matching","Self","Individual_Self","Self","Bottom","m",616.861754,0.616861754,1
1,24,"Female","r","h",3,43,"EXPERIMENT","We","You","Nonmatching","We","Group-Self","Self","Top","n",716.811892,0.716811892,1
1,24,"Female","r","h",3,44,"EXPERIMENT","We","Self","Nonmatching","We","Group-Self","Self","Bottom","n",800.134467,0.800134467,1
1,24,"Female","r","h",3,45,"EXPERIMENT","Self","Self","Matching","Self","Individual_Self","Self","Bottom","m",633.52169,0.63352169,1
1,24,"Female","r","h",3,46,"EXPERIMENT","They","They","Matching","They","Group-Stranger","Stranger","Bottom","n",900.152509,0.900152509,0
1,24,"Female","r","h",3,47,"EXPERIMENT","Self","They","Nonmatching","Self","Individual_Self","Self","Top","n",833.512373,0.833512373,1
1,24,"Female","r","h",3,48,"EXPERIMENT","We","We","Matching","We","Group-Self","Self","Top","m",633.486948,0.633486948,1
1,24,"Female","r","h",3,49,"EXPERIMENT","You","You","Matching","You","Individual_Stranger","Stranger","Top","m",850.260347,0.850260347,1
1,24,"Female","r","h",3,50,"EXPERIMENT","They","They","Matching","They","Group-Stranger","Stranger","Bottom","m",850.17823,0.85017823,1
1,24,"Female","r","h",3,51,"EXPERIMENT","You","You","Matching","You","Individual_Stranger","Stranger","Top","m",866.831454,0.866831454,1
1,24,"Female","r","h",3,52,"EXPERIMENT","We","You","Nonmatching","We","Group-Self","Self","Bottom","n",816.831513,0.816831513,1
1,24,"Female","r","h",3,53,"EXPERIMENT","Self","Self","Matching","Self","Individual_Self","Self","Bottom","m",616.827013,0.616827013,1
1,24,"Female","r","h",3,54,"EXPERIMENT","We","Self","Nonmatching","We","Group-Self","Self","Top","n",683.526763,0.683526763,1
1,24,"Female","r","h",3,55,"EXPERIMENT","We","We","Matching","We","Group-Self","Self","Top","m",666.819847,0.666819847,1
1,24,"Female","r","h",3,56,"EXPERIMENT","We","We","Matching","We","Group-Self","Self","Bottom","m",666.843535,0.666843535,1
1,24,"Female","r","h",3,57,"EXPERIMENT","Self","You","Nonmatching","Self","Individual_Self","Self","Top","n",866.639584,0.866639584,1
1,24,"Female","r","h",3,58,"EXPERIMENT","You","They","Nonmatching","You","Individual_Stranger","Stranger","Bottom","m",683.526763,0.683526763,0
1,24,"Female","r","h",3,59,"EXPERIMENT","We","We","Matching","We","Group-Self","Self","Bottom","m",666.85222,0.66685222,1
1,24,"Female","r","h",3,60,"EXPERIMENT","They","They","Matching","They","Group-Stranger","Stranger","Bottom","m",883.489021,0.883489021,1
1,24,"Female","r","h",3,61,"EXPERIMENT","You","You","Matching","You","Individual_Stranger","Stranger","Top","m",900.222783,0.900222783,1
1,24,"Female","r","h",3,62,"EXPERIMENT","We","They","Nonmatching","We","Group-Self","Self","Top","n",716.831237,0.716831237,1
1,24,"Female","r","h",3,63,"EXPERIMENT","We","We","Matching","We","Group-Self","Self","Bottom","m",866.793554,0.866793554,1
1,24,"Female","r","h",3,64,"EXPERIMENT","You","Self","Nonmatching","You","Individual_Stranger","Stranger","Bottom","n",900.161195,0.900161195,1
1,24,"Female","r","h",3,65,"EXPERIMENT","You","Self","Nonmatching","You","Individual_Stranger","Stranger","Top","n",766.832362,0.766832362,1
1,24,"Female","r","h",3,66,"EXPERIMENT","Self","You","Nonmatching","Self","Individual_Self","Self","Top","n",933.497252,0.933497252,1
1,24,"Female","r","h",3,67,"EXPERIMENT","They","They","Matching","They","Group-Stranger","Stranger","Top","m",900.16988,0.90016988,1
1,24,"Female","r","h",3,68,"EXPERIMENT","Self","Self","Matching","Self","Individual_Self","Self","Top","m",616.860175,0.616860175,1
1,24,"Female","r","h",3,69,"EXPERIMENT","They","You","Nonmatching","They","Group-Stranger","Stranger","Bottom","n",991.528104,0.991528104,1
1,24,"Female","r","h",3,70,"EXPERIMENT","We","We","Matching","We","Group-Self","Self","Bottom","m",750.152292,0.750152292,1
1,24,"Female","r","h",3,71,"EXPERIMENT","Self","Self","Matching","Self","Individual_Self","Self","Bottom","m",633.498397,0.633498397,1
1,24,"Female","r","h",3,72,"EXPERIMENT","You","We","Nonmatching","You","Individual_Stranger","Stranger","Bottom","n",933.496462,0.933496462,1
1,24,"Female","r","h",3,73,"EXPERIMENT","You","You","Matching","You","Individual_Stranger","Stranger","Top","m",833.500134,0.833500134,1
1,24,"Female","r","h",3,74,"EXPERIMENT","They","We","Nonmatching","They","Group-Stranger","Stranger","Top","n",866.874487,0.866874487,1
1,24,"Female","r","h",3,75,"EXPERIMENT","You","You","Matching","You","Individual_Stranger","Stranger","Bottom","m",800.194476,0.800194476,1
1,24,"Female","r","h",3,76,"EXPERIMENT","They","They","Matching","They","Group-Stranger","Stranger","Top","m",783.504536,0.783504536,1
1,24,"Female","r","h",3,77,"EXPERIMENT","You","Self","Nonmatching","You","Individual_Stranger","Stranger","Bottom","n",700.182355,0.700182355,1
1,24,"Female","r","h",3,78,"EXPERIMENT","They","You","Nonmatching","They","Group-Stranger","Stranger","Top","n",933.515413,0.933515413,1
1,24,"Female","r","h",3,79,"EXPERIMENT","We","We","Matching","We","Group-Self","Self","Bottom","m",733.496304,0.733496304,1
1,24,"Female","r","h",3,80,"EXPERIMENT","You","You","Matching","You","Individual_Stranger","Stranger","Bottom","n",833.519874,0.833519874,0
1,24,"Female","r","h",3,81,"EXPERIMENT","Self","Self","Matching","Self","Individual_Self","Self","Bottom","m",766.87579,0.76687579,1
1,24,"Female","r","h",3,82,"EXPERIMENT","They","They","Matching","They","Group-Stranger","Stranger","Bottom","m",733.540916,0.733540916,1
1,24,"Female","r","h",3,83,"EXPERIMENT","Self","They","Nonmatching","Self","Individual_Self","Self","Bottom","n",883.505602,0.883505602,1
1,24,"Female","r","h",3,84,"EXPERIMENT","Self","Self","Matching","Self","Individual_Self","Self","Top","m",550.16003,0.55016003,1
1,24,"Female","r","h",3,85,"EXPERIMENT","Self","We","Nonmatching","Self","Individual_Self","Self","Top","n",700.175249,0.700175249,1
1,24,"Female","r","h",3,86,"EXPERIMENT","We","We","Matching","We","Group-Self","Self","Bottom","m",666.842745,0.666842745,1
1,24,"Female","r","h",3,87,"EXPERIMENT","We","You","Nonmatching","We","Group-Self","Self","Top","n",1016.82496,1.01682496,1
1,24,"Female","r","h",3,88,"EXPERIMENT","We","You","Nonmatching","We","Group-Self","Self","Bottom","n",833.489869,0.833489869,1
1,24,"Female","r","h",3,89,"EXPERIMENT","They","They","Matching","They","Group-Stranger","Stranger","Bottom","m",816.814932,0.816814932,1
1,24,"Female","r","h",3,90,"EXPERIMENT","You","We","Nonmatching","You","Individual_Stranger","Stranger","Top","n",833.490264,0.833490264,1
1,24,"Female","r","h",3,91,"EXPERIMENT","We","Self","Nonmatching","We","Group-Self","Self","Bottom","n",783.477295,0.783477295,1
1,24,"Female","r","h",3,92,"EXPERIMENT","Self","We","Nonmatching","Self","Individual_Self","Self","Bottom","n",850.171519,0.850171519,1
1,24,"Female","r","h",3,93,"EXPERIMENT","You","They","Nonmatching","You","Individual_Stranger","Stranger","Top","n",850.166781,0.850166781,1
1,24,"Female","r","h",3,94,"EXPERIMENT","We","They","Nonmatching","We","Group-Self","Self","Top","n",933.513439,0.933513439,1
1,24,"Female","r","h",3,95,"EXPERIMENT","Self","Self","Matching","Self","Individual_Self","Self","Top","m",700.199727,0.700199727,1
1,24,"Female","r","h",3,96,"EXPERIMENT","We","Self","Nonmatching","We","Group-Self","Self","Top","n",800.160129,0.800160129,1
2,21,"Female","r","h",1,1,"EXPERIMENT","They","We","Nonmatching","They","Group-Stranger","Stranger","Bottom","n",1433.446916,1.433446916,0
2,21,"Female","r","h",1,2,"EXPERIMENT","We","We","Matching","We","Group-Self","Self","Top","n",716.888482,0.716888482,1
2,21,"Female","r","h",1,3,"EXPERIMENT","They","We","Nonmatching","They","Group-Stranger","Stranger","Top","m",650.175309,0.650175309,1
2,21,"Female","r","h",1,4,"EXPERIMENT","You","You","Matching","You","Individual_Stranger","Stranger","Top","m",616.840436,0.616840436,0
2,21,"Female","r","h",1,5,"EXPERIMENT","You","We","Nonmatching","You","Individual_Stranger","Stranger","Top","m",683.507023,0.683507023,1
2,21,"Female","r","h",1,6,"EXPERIMENT","Self","Self","Matching","Self","Individual_Self","Self","Bottom","n",500.184566,0.500184566,1
2,21,"Female","r","h",1,7,"EXPERIMENT","Self","Self","Matching","Self","Individual_Self","Self","Bottom","n",616.864913,0.616864913,1
2,21,"Female","r","h",1,8,"EXPERIMENT","You","You","Matching","You","Individual_Stranger","Stranger","Top","n",633.515373,0.633515373,1
2,21,"Female","r","h",1,9,"EXPERIMENT","They","They","Matching","They","Group-Stranger","Stranger","Top","m",466.863511,0.466863511,0
2,21,"Female","r","h",1,10,"EXPERIMENT","We","We","Matching","We","Group-Self","Self","Bottom","n",733.512886,0.733512886,1
2,21,"Female","r","h",1,11,"EXPERIMENT","You","Self","Nonmatching","You","Individual_Stranger","Stranger","Top","m",766.841442,0.766841442,1
2,21,"Female","r","h",1,12,"EXPERIMENT","Self","You","Nonmatching","Self","Individual_Self","Self","Top","m",816.82717,0.81682717,1
2,21,"Female","r","h",1,13,"EXPERIMENT","We","You","Nonmatching","We","Group-Self","Self","Top","m",750.157819,0.750157819,1
2,21,"Female","r","h",1,14,"EXPERIMENT","Self","Self","Matching","Self","Individual_Self","Self","Bottom","n",616.845963,0.616845963,1
2,21,"Female","r","h",1,15,"EXPERIMENT","You","They","Nonmatching","You","Individual_Stranger","Stranger","Top","m",800.186185,0.800186185,1
2,21,"Female","r","h",1,16,"EXPERIMENT","We","We","Matching","We","Group-Self","Self","Top","n",750.192166,0.750192166,1
2,21,"Female","r","h",1,17,"EXPERIMENT","You","You","Matching","You","Individual_Stranger","Stranger","Bottom","n",833.485132,0.833485132,1
2,21,"Female","r","h",1,18,"EXPERIMENT","They","They","Matching","They","Group-Stranger","Stranger","Bottom","m",1000.162261,1.000162261,0
2,21,"Female","r","h",1,19,"EXPERIMENT","We","We","Matching","We","Group-Self","Self","Top","n",716.865584,0.716865584,1
2,21,"Female","r","h",1,20,"EXPERIMENT","We","We","Matching","We","Group-Self","Self","Bottom","n",850.141514,0.850141514,1
2,21,"Female","r","h",1,21,"EXPERIMENT","They","They","Matching","They","Group-Stranger","Stranger","Top","m",866.833033,0.866833033,0
2,21,"Female","r","h",1,22,"EXPERIMENT","Self","They","Nonmatching","Self","Individual_Self","Self","Top","m",783.434263,0.783434263,1
2,21,"Female","r","h",1,23,"EXPERIMENT","Self","Self","Matching","Self","Individual_Self","Self","Bottom","n",566.820755,0.566820755,1
2,21,"Female","r","h",1,24,"EXPERIMENT","You","We","Nonmatching","You","Individual_Stranger","Stranger","Top","m",650.170176,0.650170176,1
2,21,"Female","r","h",1,25,"EXPERIMENT","They","They","Matching","They","Group-Stranger","Stranger","Bottom","n",1083.496285,1.083496285,1
2,21,"Female","r","h",1,26,"EXPERIMENT","They","Self","Nonmatching","They","Group-Stranger","Stranger","Top","m",783.529408,0.783529408,1
2,21,"Female","r","h",1,27,"EXPERIMENT","You","You","Matching","You","Individual_Stranger","Stranger","Top","n",750.177559,0.750177559,1
2,21,"Female","r","h",1,28,"EXPERIMENT","We","Self","Nonmatching","We","Group-Self","Self","Bottom","m",816.792823,0.816792823,1
2,21,"Female","r","h",1,29,"EXPERIMENT","Self","Self","Matching","Self","Individual_Self","Self","Top","n",566.864182,0.566864182,1
2,21,"Female","r","h",1,30,"EXPERIMENT","You","You","Matching","You","Individual_Stranger","Stranger","Bottom","n",1700.138533,1.700138533,1
2,21,"Female","r","h",1,31,"EXPERIMENT","We","We","Matching","We","Group-Self","Self","Bottom","n",633.487343,0.633487343,1
2,21,"Female","r","h",1,32,"EXPERIMENT","Self","They","Nonmatching","Self","Individual_Self","Self","Bottom","m",549.96816,0.54996816,1
2,21,"Female","r","h",1,33,"EXPERIMENT","Self","Self","Matching","Self","Individual_Self","Self","Bottom","n",583.525697,0.583525697,1
2,21,"Female","r","h",1,34,"EXPERIMENT","We","We","Matching","We","Group-Self","Self","Bottom","n",616.869255,0.616869255,1
2,21,"Female","r","h",1,35,"EXPERIMENT","You","They","Nonmatching","You","Individual_Stranger","Stranger","Bottom","m",650.174519,0.650174519,1
2,21,"Female","r","h",1,36,"EXPERIMENT","You","You","Matching","You","Individual_Stranger","Stranger","Bottom","n",500.200753,0.500200753,1
2,21,"Female","r","h",1,37,"EXPERIMENT","They","They","Matching","They","Group-Stranger","Stranger","Bottom","m",700.176039,0.700176039,0
2,21,"Female","r","h",1,38,"EXPERIMENT","You","They","Nonmatching","You","Individual_Stranger","Stranger","Bottom","m",883.502838,0.883502838,1
2,21,"Female","r","h",1,39,"EXPERIMENT","We","They","Nonmatching","We","Group-Self","Self","Top","m",850.119801,0.850119801,1
2,21,"Female","r","h",1,40,"EXPERIMENT","They","Self","Nonmatching","They","Group-Stranger","Stranger","Bottom","m",833.531718,0.833531718,1
2,21,"Female","r","h",1,41,"EXPERIMENT","We","We","Matching","We","Group-Self","Self","Bottom","n",850.171519,0.850171519,1
2,21,"Female","r","h",1,42,"EXPERIMENT","We","Self","Nonmatching","We","Group-Self","Self","Top","m",1166.806227,1.166806227,1
2,21,"Female","r","h",1,43,"EXPERIMENT","They","You","Nonmatching","They","Group-Stranger","Stranger","Top","m",1100.007777,1.100007777,1
2,21,"Female","r","h",1,44,"EXPERIMENT","They","You","Nonmatching","They","Group-Stranger","Stranger","Top","m",766.854076,0.766854076,1
2,21,"Female","r","h",1,45,"EXPERIMENT","They","They","Matching","They","Group-Stranger","Stranger","Top","n",733.503411,0.733503411,1
2,21,"Female","r","h",1,46,"EXPERIMENT","You","Self","Nonmatching","You","Individual_Stranger","Stranger","Top","m",650.20255,0.65020255,1
2,21,"Female","r","h",1,47,"EXPERIMENT","You","We","Nonmatching","You","Individual_Stranger","Stranger","Bottom","m",716.839922,0.716839922,1
2,21,"Female","r","h",1,48,"EXPERIMENT","We","You","Nonmatching","We","Group-Self","Self","Bottom","m",800.127361,0.800127361,1
2,21,"Female","r","h",1,49,"EXPERIMENT","They","Self","Nonmatching","They","Group-Stranger","Stranger","Top","m",650.019365,0.650019365,1
2,21,"Female","r","h",1,50,"EXPERIMENT","Self","They","Nonmatching","Self","Individual_Self","Self","Top","m",650.179256,0.650179256,1
2,21,"Female","r","h",1,51,"EXPERIMENT","Self","Self","Matching","Self","Individual_Self","Self","Top","n",683.519262,0.683519262,1
2,21,"Female","r","h",1,52,"EXPERIMENT","Self","They","Nonmatching","Self","Individual_Self","Self","Bottom","m",533.506806,0.533506806,1
2,21,"Female","r","h",1,53,"EXPERIMENT","We","They","Nonmatching","We","Group-Self","Self","Top","m",700.189462,0.700189462,1
2,21,"Female","r","h",1,54,"EXPERIMENT","You","You","Matching","You","Individual_Stranger","Stranger","Top","m",633.562749,0.633562749,0
2,21,"Female","r","h",1,55,"EXPERIMENT","We","Self","Nonmatching","We","Group-Self","Self","Top","m",850.173887,0.850173887,1
2,21,"Female","r","h",1,56,"EXPERIMENT","We","Self","Nonmatching","We","Group-Self","Self","Bottom","m",800.20553,0.80020553,1
2,21,"Female","r","h",1,57,"EXPERIMENT","They","We","Nonmatching","They","Group-Stranger","Stranger","Top","m",1116.873006,1.116873006,1
2,21,"Female","r","h",1,58,"EXPERIMENT","You","You","Matching","You","Individual_Stranger","Stranger","Top","n",916.819551,0.916819551,1
2,21,"Female","r","h",1,59,"EXPERIMENT","Self","Self","Matching","Self","Individual_Self","Self","Top","n",650.193469,0.650193469,1
2,21,"Female","r","h",1,60,"EXPERIMENT","You","They","Nonmatching","You","Individual_Stranger","Stranger","Top","m",766.833941,0.766833941,1
2,21,"Female","r","h",1,61,"EXPERIMENT","They","They","Matching","They","Group-Stranger","Stranger","Top","m",783.493087,0.783493087,0
2,21,"Female","r","h",1,62,"EXPERIMENT","They","They","Matching","They","Group-Stranger","Stranger","Bottom","n",766.840258,0.766840258,1
2,21,"Female","r","h",1,63,"EXPERIMENT","We","They","Nonmatching","We","Group-Self","Self","Bottom","m",633.516558,0.633516558,1
2,21,"Female","r","h",1,64,"EXPERIMENT","We","We","Matching","We","Group-Self","Self","Top","n",883.545871,0.883545871,1
2,21,"Female","r","h",1,65,"EXPERIMENT","You","You","Matching","You","Individual_Stranger","Stranger","Top","n",683.510182,0.683510182,1
2,21,"Female","r","h",1,66,"EXPERIMENT","We","They","Nonmatching","We","Group-Self","Self","Bottom","m",1216.873282,1.216873282,1
2,21,"Female","r","h",1,67,"EXPERIMENT","You","You","Matching","You","Individual_Stranger","Stranger","Bottom","n",683.476624,0.683476624,1
2,21,"Female","r","h",1,68,"EXPERIMENT","They","They","Matching","They","Group-Stranger","Stranger","Bottom","n",716.87269,0.71687269,1
2,21,"Female","r","h",1,69,"EXPERIMENT","We","You","Nonmatching","We","Group-Self","Self","Bottom","m",733.530652,0.733530652,1
2,21,"Female","r","h",1,70,"EXPERIMENT","Self","You","Nonmatching","Self","Individual_Self","Self","Bottom","m",683.484125,0.683484125,1
2,21,"Female","r","h",1,71,"EXPERIMENT","They","They","Matching","They","Group-Stranger","Stranger","Bottom","n",867.1465,0.8671465,1
2,21,"Female","r","h",1,72,"EXPERIMENT","You","Self","Nonmatching","You","Individual_Stranger","Stranger","Bottom","m",833.509214,0.833509214,1
2,21,"Female","r","h",1,73,"EXPERIMENT","Self","Self","Matching","Self","Individual_Self","Self","Top","n",566.829835,0.566829835,1
2,21,"Female","r","h",1,74,"EXPERIMENT","Self","Self","Matching","Self","Individual_Self","Self","Bottom","n",466.918783,0.466918783,1
2,21,"Female","r","h",1,75,"EXPERIMENT","Self","We","Nonmatching","Self","Individual_Self","Self","Top","m",650.162675,0.650162675,1
2,21,"Female","r","h",1,76,"EXPERIMENT","You","We","Nonmatching","You","Individual_Stranger","Stranger","Bottom","m",616.834908,0.616834908,1
2,21,"Female","r","h",1,77,"EXPERIMENT","Self","We","Nonmatching","Self","Individual_Self","Self","Bottom","m",600.161945,0.600161945,1
2,21,"Female","r","h",1,78,"EXPERIMENT","We","We","Matching","We","Group-Self","Self","Top","n",533.511544,0.533511544,1
2,21,"Female","r","h",1,79,"EXPERIMENT","They","They","Matching","They","Group-Stranger","Stranger","Top","n",616.865308,0.616865308,1
2,21,"Female","r","h",1,80,"EXPERIMENT","We","You","Nonmatching","We","Group-Self","Self","Top","m",816.840199,0.816840199,1
2,21,"Female","r","h",1,81,"EXPERIMENT","We","We","Matching","We","Group-Self","Self","Bottom","n",816.8477,0.8168477,1
2,21,"Female","r","h",1,82,"EXPERIMENT","You","You","Matching","You","Individual_Stranger","Stranger","Bottom","n",616.842804,0.616842804,1
2,21,"Female","r","h",1,83,"EXPERIMENT","You","Self","Nonmatching","You","Individual_Stranger","Stranger","Bottom","m",716.852556,0.716852556,1
2,21,"Female","r","h",1,84,"EXPERIMENT","Self","We","Nonmatching","Self","Individual_Self","Self","Top","m",1000.154365,1.000154365,1
2,21,"Female","r","h",1,85,"EXPERIMENT","We","We","Matching","We","Group-Self","Self","Top","n",683.52321,0.68352321,1
2,21,"Female","r","h",1,86,"EXPERIMENT","They","You","Nonmatching","They","Group-Stranger","Stranger","Bottom","m",750.174401,0.750174401,1
2,21,"Female","r","h",1,87,"EXPERIMENT","Self","You","Nonmatching","Self","Individual_Self","Self","Top","m",733.528678,0.733528678,1
2,21,"Female","r","h",1,88,"EXPERIMENT","Self","Self","Matching","Self","Individual_Self","Self","Top","n",566.866551,0.566866551,1
2,21,"Female","r","h",1,89,"EXPERIMENT","Self","You","Nonmatching","Self","Individual_Self","Self","Bottom","m",650.181625,0.650181625,1
2,21,"Female","r","h",1,90,"EXPERIMENT","They","Self","Nonmatching","They","Group-Stranger","Stranger","Bottom","m",666.831296,0.666831296,1
2,21,"Female","r","h",1,91,"EXPERIMENT","They","We","Nonmatching","They","Group-Stranger","Stranger","Bottom","m",766.86434,0.76686434,1
2,21,"Female","r","h",1,92,"EXPERIMENT","Self","We","Nonmatching","Self","Individual_Self","Self","Bottom","m",666.827348,0.666827348,1
2,21,"Female","r","h",1,93,"EXPERIMENT","You","You","Matching","You","Individual_Stranger","Stranger","Bottom","n",616.8507,0.6168507,1
2,21,"Female","r","h",1,94,"EXPERIMENT","They","You","Nonmatching","They","Group-Stranger","Stranger","Bottom","m",1366.864814,1.366864814,1
2,21,"Female","r","h",1,95,"EXPERIMENT","Self","Self","Matching","Self","Individual_Self","Self","Top","n",600.174183,0.600174183,1
2,21,"Female","r","h",1,96,"EXPERIMENT","They","They","Matching","They","Group-Stranger","Stranger","Top","n",883.500864,0.883500864,1
2,21,"Female","r","h",2,1,"EXPERIMENT","Self","Self","Matching","Self","Individual_Self","Self","Bottom","n",733.529072,0.733529072,1
2,21,"Female","r","h",2,2,"EXPERIMENT","We","We","Matching","We","Group-Self","Self","Top","n",933.49212,0.93349212,1
2,21,"Female","r","h",2,3,"EXPERIMENT","You","We","Nonmatching","You","Individual_Stranger","Stranger","Top","m",700.176829,0.700176829,1
2,21,"Female","r","h",2,4,"EXPERIMENT","They","You","Nonmatching","They","Group-Stranger","Stranger","Top","m",950.161925,0.950161925,1
2,21,"Female","r","h",2,5,"EXPERIMENT","Self","Self","Matching","Self","Individual_Self","Self","Bottom","n",716.837159,0.716837159,1
2,21,"Female","r","h",2,6,"EXPERIMENT","They","They","Matching","They","Group-Stranger","Stranger","Top","n",850.143488,0.850143488,1
2,21,"Female","r","h",2,7,"EXPERIMENT","You","We","Nonmatching","You","Individual_Stranger","Stranger","Top","m",616.840041,0.616840041,1
2,21,"Female","r","h",2,8,"EXPERIMENT","You","You","Matching","You","Individual_Stranger","Stranger","Bottom","n",816.843752,0.816843752,1
2,21,"Female","r","h",2,9,"EXPERIMENT","You","We","Nonmatching","You","Individual_Stranger","Stranger","Bottom","m",650.180441,0.650180441,1
2,21,"Female","r","h",2,10,"EXPERIMENT","We","They","Nonmatching","We","Group-Self","Self","Bottom","m",1133.481223,1.133481223,1
2,21,"Female","r","h",2,11,"EXPERIMENT","You","You","Matching","You","Individual_Stranger","Stranger","Bottom","n",733.449324,0.733449324,1
2,21,"Female","r","h",2,12,"EXPERIMENT","Self","They","Nonmatching","Self","Individual_Self","Self","Bottom","m",700.337905,0.700337905,1
2,21,"Female","r","h",2,13,"EXPERIMENT","We","They","Nonmatching","We","Group-Self","Self","Bottom","m",733.489198,0.733489198,1
2,21,"Female","r","h",2,14,"EXPERIMENT","We","You","Nonmatching","We","Group-Self","Self","Top","m",966.846338,0.966846338,1
2,21,"Female","r","h",2,15,"EXPERIMENT","Self","We","Nonmatching","Self","Individual_Self","Self","Top","m",616.838067,0.616838067,1
2,21,"Female","r","h",2,16,"EXPERIMENT","We","You","Nonmatching","We","Group-Self","Self","Top","m",650.170176,0.650170176,1
2,21,"Female","r","h",2,17,"EXPERIMENT","Self","We","Nonmatching","Self","Individual_Self","Self","Top","m",783.491508,0.783491508,1
2,21,"Female","r","h",2,18,"EXPERIMENT","They","We","Nonmatching","They","Group-Stranger","Stranger","Top","m",616.814774,0.616814774,1
2,21,"Female","r","h",2,19,"EXPERIMENT","You","They","Nonmatching","You","Individual_Stranger","Stranger","Top","m",683.489257,0.683489257,1
2,21,"Female","r","h",2,20,"EXPERIMENT","They","They","Matching","They","Group-Stranger","Stranger","Bottom","m",600.183659,0.600183659,0
2,21,"Female","r","h",2,21,"EXPERIMENT","You","They","Nonmatching","You","Individual_Stranger","Stranger","Top","m",700.072603,0.700072603,1
2,21,"Female","r","h",2,22,"EXPERIMENT","You","You","Matching","You","Individual_Stranger","Stranger","Top","n",683.492021,0.683492021,1
2,21,"Female","r","h",2,23,"EXPERIMENT","Self","Self","Matching","Self","Individual_Self","Self","Bottom","n",600.161945,0.600161945,1
2,21,"Female","r","h",2,24,"EXPERIMENT","They","They","Matching","They","Group-Stranger","Stranger","Bottom","n",766.860392,0.766860392,1
2,21,"Female","r","h",2,25,"EXPERIMENT","Self","Self","Matching","Self","Individual_Self","Self","Top","n",500.120215,0.500120215,1
2,21,"Female","r","h",2,26,"EXPERIMENT","Self","Self","Matching","Self","Individual_Self","Self","Bottom","n",533.520229,0.533520229,1
2,21,"Female","r","h",2,27,"EXPERIMENT","We","We","Matching","We","Group-Self","Self","Bottom","n",783.481243,0.783481243,1
2,21,"Female","r","h",2,28,"EXPERIMENT","Self","They","Nonmatching","Self","Individual_Self","Self","Bottom","m",616.800561,0.616800561,1
2,21,"Female","r","h",2,29,"EXPERIMENT","We","We","Matching","We","Group-Self","Self","Bottom","n",766.819334,0.766819334,1
2,21,"Female","r","h",2,30,"EXPERIMENT","They","They","Matching","They","Group-Stranger","Stranger","Bottom","n",700.186698,0.700186698,1
2,21,"Female","r","h",2,31,"EXPERIMENT","We","We","Matching","We","Group-Self","Self","Bottom","n",550.196351,0.550196351,1
2,21,"Female","r","h",2,32,"EXPERIMENT","We","They","Nonmatching","We","Group-Self","Self","Top","m",966.863314,0.966863314,1
2,21,"Female","r","h",2,33,"EXPERIMENT","We","They","Nonmatching","We","Group-Self","Self","Top","m",633.493265,0.633493265,1
2,21,"Female","r","h",2,34,"EXPERIMENT","You","You","Matching","You","Individual_Stranger","Stranger","Bottom","n",783.505326,0.783505326,1
2,21,"Female","r","h",2,35,"EXPERIMENT","We","Self","Nonmatching","We","Group-Self","Self","Top","n",750.151502,0.750151502,0
2,21,"Female","r","h",2,36,"EXPERIMENT","You","You","Matching","You","Individual_Stranger","Stranger","Bottom","n",633.509846,0.633509846,1
2,21,"Female","r","h",2,37,"EXPERIMENT","They","You","Nonmatching","They","Group-Stranger","Stranger","Bottom","m",700.166564,0.700166564,1
2,21,"Female","r","h",2,38,"EXPERIMENT","We","We","Matching","We","Group-Self","Self","Top","n",700.171301,0.700171301,1
2,21,"Female","r","h",2,39,"EXPERIMENT","They","They","Matching","They","Group-Stranger","Stranger","Top","None",NA,NA,3
2,21,"Female","r","h",2,40,"EXPERIMENT","We","We","Matching","We","Group-Self","Self","Top","n",1200.122939,1.200122939,1
2,21,"Female","r","h",2,41,"EXPERIMENT","Self","You","Nonmatching","Self","Individual_Self","Self","Bottom","n",550.234646,0.550234646,0
2,21,"Female","r","h",2,42,"EXPERIMENT","You","You","Matching","You","Individual_Stranger","Stranger","Top","n",583.50951,0.58350951,1
2,21,"Female","r","h",2,43,"EXPERIMENT","Self","Self","Matching","Self","Individual_Self","Self","Top","n",616.811221,0.616811221,1
2,21,"Female","r","h",2,44,"EXPERIMENT","Self","They","Nonmatching","Self","Individual_Self","Self","Top","m",766.858024,0.766858024,1
2,21,"Female","r","h",2,45,"EXPERIMENT","They","They","Matching","They","Group-Stranger","Stranger","Bottom","n",666.879066,0.666879066,1
2,21,"Female","r","h",2,46,"EXPERIMENT","You","Self","Nonmatching","You","Individual_Stranger","Stranger","Bottom","m",666.834454,0.666834454,1
2,21,"Female","r","h",2,47,"EXPERIMENT","Self","Self","Matching","Self","Individual_Self","Self","Top","n",766.863156,0.766863156,1
2,21,"Female","r","h",2,48,"EXPERIMENT","Self","Self","Matching","Self","Individual_Self","Self","Bottom","n",583.467662,0.583467662,1
2,21,"Female","r","h",2,49,"EXPERIMENT","Self","Self","Matching","Self","Individual_Self","Self","Top","n",400.214689,0.400214689,1
2,21,"Female","r","h",2,50,"EXPERIMENT","Self","You","Nonmatching","Self","Individual_Self","Self","Bottom","m",850.150594,0.850150594,1
2,21,"Female","r","h",2,51,"EXPERIMENT","We","We","Matching","We","Group-Self","Self","Bottom","n",800.183027,0.800183027,1
2,21,"Female","r","h",2,52,"EXPERIMENT","You","You","Matching","You","Individual_Stranger","Stranger","Bottom","n",816.83783,0.81683783,1
2,21,"Female","r","h",2,53,"EXPERIMENT","They","They","Matching","They","Group-Stranger","Stranger","Top","n",550.204247,0.550204247,1
2,21,"Female","r","h",2,54,"EXPERIMENT","You","Self","Nonmatching","You","Individual_Stranger","Stranger","Top","m",666.849062,0.666849062,1
2,21,"Female","r","h",2,55,"EXPERIMENT","Self","Self","Matching","Self","Individual_Self","Self","Top","n",700.2017,0.7002017,1
2,21,"Female","r","h",2,56,"EXPERIMENT","You","You","Matching","You","Individual_Stranger","Stranger","Bottom","n",683.508997,0.683508997,1
2,21,"Female","r","h",2,57,"EXPERIMENT","You","Self","Nonmatching","You","Individual_Stranger","Stranger","Bottom","m",566.864182,0.566864182,1
2,21,"Female","r","h",2,58,"EXPERIMENT","We","Self","Nonmatching","We","Group-Self","Self","Top","m",799.976154,0.799976154,1
2,21,"Female","r","h",2,59,"EXPERIMENT","They","They","Matching","They","Group-Stranger","Stranger","Top","n",666.870381,0.666870381,1
2,21,"Female","r","h",2,60,"EXPERIMENT","They","We","Nonmatching","They","Group-Stranger","Stranger","Top","m",1000.150417,1.000150417,1
2,21,"Female","r","h",2,61,"EXPERIMENT","They","Self","Nonmatching","They","Group-Stranger","Stranger","Bottom","m",683.499127,0.683499127,1
2,21,"Female","r","h",2,62,"EXPERIMENT","Self","Self","Matching","Self","Individual_Self","Self","Top","n",550.193193,0.550193193,1
2,21,"Female","r","h",2,63,"EXPERIMENT","They","Self","Nonmatching","They","Group-Stranger","Stranger","Bottom","m",666.836428,0.666836428,1
2,21,"Female","r","h",2,64,"EXPERIMENT","We","You","Nonmatching","We","Group-Self","Self","Bottom","m",666.829717,0.666829717,1
2,21,"Female","r","h",2,65,"EXPERIMENT","Self","They","Nonmatching","Self","Individual_Self","Self","Top","m",800.181053,0.800181053,1
2,21,"Female","r","h",2,66,"EXPERIMENT","We","We","Matching","We","Group-Self","Self","Top","n",600.178526,0.600178526,1
2,21,"Female","r","h",2,67,"EXPERIMENT","They","You","Nonmatching","They","Group-Stranger","Stranger","Top","m",566.847601,0.566847601,1
2,21,"Female","r","h",2,68,"EXPERIMENT","They","They","Matching","They","Group-Stranger","Stranger","Bottom","n",500.184566,0.500184566,1
2,21,"Female","r","h",2,69,"EXPERIMENT","They","They","Matching","They","Group-Stranger","Stranger","Bottom","n",583.483059,0.583483059,1
2,21,"Female","r","h",2,70,"EXPERIMENT","We","Self","Nonmatching","We","Group-Self","Self","Bottom","m",716.856898,0.716856898,1
2,21,"Female","r","h",2,71,"EXPERIMENT","They","Self","Nonmatching","They","Group-Stranger","Stranger","Top","m",600.188001,0.600188001,1
2,21,"Female","r","h",2,72,"EXPERIMENT","You","They","Nonmatching","You","Individual_Stranger","Stranger","Bottom","m",1033.51332,1.03351332,1
2,21,"Female","r","h",2,73,"EXPERIMENT","You","You","Matching","You","Individual_Stranger","Stranger","Top","n",483.527394,0.483527394,1
2,21,"Female","r","h",2,74,"EXPERIMENT","They","They","Matching","They","Group-Stranger","Stranger","Top","n",733.484066,0.733484066,1
2,21,"Female","r","h",2,75,"EXPERIMENT","Self","You","Nonmatching","Self","Individual_Self","Self","Top","m",683.533474,0.683533474,1
2,21,"Female","r","h",2,76,"EXPERIMENT","We","We","Matching","We","Group-Self","Self","Top","n",783.523486,0.783523486,1
2,21,"Female","r","h",2,77,"EXPERIMENT","Self","We","Nonmatching","Self","Individual_Self","Self","Bottom","m",650.173335,0.650173335,1
2,21,"Female","r","h",2,78,"EXPERIMENT","Self","Self","Matching","Self","Individual_Self","Self","Bottom","n",633.492475,0.633492475,1
2,21,"Female","r","h",2,79,"EXPERIMENT","You","You","Matching","You","Individual_Stranger","Stranger","Top","n",800.179868,0.800179868,1
2,21,"Female","r","h",2,80,"EXPERIMENT","We","You","Nonmatching","We","Group-Self","Self","Bottom","m",683.525579,0.683525579,1
2,21,"Female","r","h",2,81,"EXPERIMENT","They","We","Nonmatching","They","Group-Stranger","Stranger","Bottom","n",666.850641,0.666850641,0
2,21,"Female","r","h",2,82,"EXPERIMENT","They","You","Nonmatching","They","Group-Stranger","Stranger","Bottom","m",783.521117,0.783521117,1
2,21,"Female","r","h",2,83,"EXPERIMENT","They","They","Matching","They","Group-Stranger","Stranger","Top","n",850.200733,0.850200733,1
2,21,"Female","r","h",2,84,"EXPERIMENT","They","Self","Nonmatching","They","Group-Stranger","Stranger","Top","m",666.826559,0.666826559,1
2,21,"Female","r","h",2,85,"EXPERIMENT","Self","You","Nonmatching","Self","Individual_Self","Self","Top","m",733.529862,0.733529862,1
2,21,"Female","r","h",2,86,"EXPERIMENT","We","We","Matching","We","Group-Self","Self","Bottom","n",666.85222,0.66685222,1
2,21,"Female","r","h",2,87,"EXPERIMENT","Self","We","Nonmatching","Self","Individual_Self","Self","Bottom","m",716.845449,0.716845449,1
2,21,"Female","r","h",2,88,"EXPERIMENT","You","You","Matching","You","Individual_Stranger","Stranger","Top","n",683.510576,0.683510576,1
2,21,"Female","r","h",2,89,"EXPERIMENT","We","We","Matching","We","Group-Self","Self","Top","n",616.826223,0.616826223,1
2,21,"Female","r","h",2,90,"EXPERIMENT","You","Self","Nonmatching","You","Individual_Stranger","Stranger","Top","m",750.183086,0.750183086,1
2,21,"Female","r","h",2,91,"EXPERIMENT","You","You","Matching","You","Individual_Stranger","Stranger","Top","n",533.515886,0.533515886,1
2,21,"Female","r","h",2,92,"EXPERIMENT","We","We","Matching","We","Group-Self","Self","Bottom","n",800.175921,0.800175921,1
2,21,"Female","r","h",2,93,"EXPERIMENT","We","Self","Nonmatching","We","Group-Self","Self","Bottom","m",666.89012,0.66689012,1
2,21,"Female","r","h",2,94,"EXPERIMENT","You","We","Nonmatching","You","Individual_Stranger","Stranger","Bottom","m",616.897286,0.616897286,1
2,21,"Female","r","h",2,95,"EXPERIMENT","You","They","Nonmatching","You","Individual_Stranger","Stranger","Bottom","m",916.82113,0.91682113,1
2,21,"Female","r","h",2,96,"EXPERIMENT","They","We","Nonmatching","They","Group-Stranger","Stranger","Bottom","m",900.194357,0.900194357,1
2,21,"Female","r","h",3,1,"EXPERIMENT","You","You","Matching","You","Individual_Stranger","Stranger","Top","n",900.135928,0.900135928,1
2,21,"Female","r","h",3,2,"EXPERIMENT","You","You","Matching","You","Individual_Stranger","Stranger","Bottom","n",700.169722,0.700169722,1
2,21,"Female","r","h",3,3,"EXPERIMENT","Self","Self","Matching","Self","Individual_Self","Self","Top","n",700.167748,0.700167748,1
2,21,"Female","r","h",3,4,"EXPERIMENT","We","You","Nonmatching","We","Group-Self","Self","Top","m",766.878158,0.766878158,1
2,21,"Female","r","h",3,5,"EXPERIMENT","We","We","Matching","We","Group-Self","Self","Top","n",900.190409,0.900190409,1
2,21,"Female","r","h",3,6,"EXPERIMENT","We","We","Matching","We","Group-Self","Self","Bottom","n",616.814379,0.616814379,1
2,21,"Female","r","h",3,7,"EXPERIMENT","Self","You","Nonmatching","Self","Individual_Self","Self","Bottom","m",600.152075,0.600152075,1
2,21,"Female","r","h",3,8,"EXPERIMENT","We","Self","Nonmatching","We","Group-Self","Self","Bottom","m",666.79537,0.66679537,1
2,21,"Female","r","h",3,9,"EXPERIMENT","They","They","Matching","They","Group-Stranger","Stranger","Bottom","n",1383.441448,1.383441448,1
2,21,"Female","r","h",3,10,"EXPERIMENT","They","They","Matching","They","Group-Stranger","Stranger","Bottom","n",616.825433,0.616825433,1
2,21,"Female","r","h",3,11,"EXPERIMENT","We","Self","Nonmatching","We","Group-Self","Self","Top","m",733.484856,0.733484856,1
2,21,"Female","r","h",3,12,"EXPERIMENT","We","Self","Nonmatching","We","Group-Self","Self","Bottom","m",500.205885,0.500205885,1
2,21,"Female","r","h",3,13,"EXPERIMENT","They","You","Nonmatching","They","Group-Stranger","Stranger","Top","m",950.138632,0.950138632,1
2,21,"Female","r","h",3,14,"EXPERIMENT","You","They","Nonmatching","You","Individual_Stranger","Stranger","Bottom","m",783.512037,0.783512037,1
2,21,"Female","r","h",3,15,"EXPERIMENT","We","We","Matching","We","Group-Self","Self","Top","n",733.512886,0.733512886,1
2,21,"Female","r","h",3,16,"EXPERIMENT","You","You","Matching","You","Individual_Stranger","Stranger","Top","n",666.813135,0.666813135,1
2,21,"Female","r","h",3,17,"EXPERIMENT","You","We","Nonmatching","You","Individual_Stranger","Stranger","Top","m",650.186758,0.650186758,1
2,21,"Female","r","h",3,18,"EXPERIMENT","Self","They","Nonmatching","Self","Individual_Self","Self","Bottom","m",633.496028,0.633496028,1
2,21,"Female","r","h",3,19,"EXPERIMENT","We","We","Matching","We","Group-Self","Self","Top","n",716.839527,0.716839527,1
2,21,"Female","r","h",3,20,"EXPERIMENT","You","You","Matching","You","Individual_Stranger","Stranger","Bottom","n",700.160247,0.700160247,1
2,21,"Female","r","h",3,21,"EXPERIMENT","Self","They","Nonmatching","Self","Individual_Self","Self","Top","m",716.878217,0.716878217,1
2,21,"Female","r","h",3,22,"EXPERIMENT","We","They","Nonmatching","We","Group-Self","Self","Bottom","m",683.528737,0.683528737,1
2,21,"Female","r","h",3,23,"EXPERIMENT","They","Self","Nonmatching","They","Group-Stranger","Stranger","Bottom","m",733.518018,0.733518018,1
2,21,"Female","r","h",3,24,"EXPERIMENT","Self","We","Nonmatching","Self","Individual_Self","Self","Top","m",916.861004,0.916861004,1
2,21,"Female","r","h",3,25,"EXPERIMENT","Self","Self","Matching","Self","Individual_Self","Self","Bottom","n",616.901629,0.616901629,1
2,21,"Female","r","h",3,26,"EXPERIMENT","We","We","Matching","We","Group-Self","Self","Bottom","n",650.202549,0.650202549,1
2,21,"Female","r","h",3,27,"EXPERIMENT","You","Self","Nonmatching","You","Individual_Stranger","Stranger","Top","m",700.144061,0.700144061,1
2,21,"Female","r","h",3,28,"EXPERIMENT","They","Self","Nonmatching","They","Group-Stranger","Stranger","Bottom","m",683.522815,0.683522815,1
2,21,"Female","r","h",3,29,"EXPERIMENT","Self","You","Nonmatching","Self","Individual_Self","Self","Top","m",883.4906,0.8834906,1
2,21,"Female","r","h",3,30,"EXPERIMENT","You","You","Matching","You","Individual_Stranger","Stranger","Bottom","n",733.490383,0.733490383,1
2,21,"Female","r","h",3,31,"EXPERIMENT","Self","Self","Matching","Self","Individual_Self","Self","Top","n",666.837613,0.666837613,1
2,21,"Female","r","h",3,32,"EXPERIMENT","We","We","Matching","We","Group-Self","Self","Bottom","n",650.195838,0.650195838,1
2,21,"Female","r","h",3,33,"EXPERIMENT","Self","They","Nonmatching","Self","Individual_Self","Self","Bottom","m",616.862149,0.616862149,1
2,21,"Female","r","h",3,34,"EXPERIMENT","Self","Self","Matching","Self","Individual_Self","Self","Bottom","n",816.859149,0.816859149,1
2,21,"Female","r","h",3,35,"EXPERIMENT","They","They","Matching","They","Group-Stranger","Stranger","Bottom","n",750.2048,0.7502048,1
2,21,"Female","r","h",3,36,"EXPERIMENT","Self","We","Nonmatching","Self","Individual_Self","Self","Bottom","m",750.198088,0.750198088,1
2,21,"Female","r","h",3,37,"EXPERIMENT","Self","Self","Matching","Self","Individual_Self","Self","Top","n",666.849456,0.666849456,1
2,21,"Female","r","h",3,38,"EXPERIMENT","We","We","Matching","We","Group-Self","Self","Bottom","n",583.501614,0.583501614,1
2,21,"Female","r","h",3,39,"EXPERIMENT","You","Self","Nonmatching","You","Individual_Stranger","Stranger","Bottom","m",666.844719,0.666844719,1
2,21,"Female","r","h",3,40,"EXPERIMENT","You","They","Nonmatching","You","Individual_Stranger","Stranger","Top","m",700.204069,0.700204069,1
2,21,"Female","r","h",3,41,"EXPERIMENT","You","You","Matching","You","Individual_Stranger","Stranger","Bottom","n",616.838856,0.616838856,1
2,21,"Female","r","h",3,42,"EXPERIMENT","You","You","Matching","You","Individual_Stranger","Stranger","Bottom","n",700.165774,0.700165774,1
2,21,"Female","r","h",3,43,"EXPERIMENT","Self","You","Nonmatching","Self","Individual_Self","Self","Bottom","m",750.157819,0.750157819,1
2,21,"Female","r","h",3,44,"EXPERIMENT","They","You","Nonmatching","They","Group-Stranger","Stranger","Top","m",683.569401,0.683569401,1
2,21,"Female","r","h",3,45,"EXPERIMENT","You","You","Matching","You","Individual_Stranger","Stranger","Top","n",716.850976,0.716850976,1
2,21,"Female","r","h",3,46,"EXPERIMENT","We","You","Nonmatching","We","Group-Self","Self","Bottom","m",633.052674,0.633052674,1
2,21,"Female","r","h",3,47,"EXPERIMENT","You","We","Nonmatching","You","Individual_Stranger","Stranger","Bottom","m",799.948914,0.799948914,1
2,21,"Female","r","h",3,48,"EXPERIMENT","They","They","Matching","They","Group-Stranger","Stranger","Top","n",933.527256,0.933527256,1
2,21,"Female","r","h",3,49,"EXPERIMENT","You","You","Matching","You","Individual_Stranger","Stranger","Top","n",833.545536,0.833545536,1
2,21,"Female","r","h",3,50,"EXPERIMENT","We","They","Nonmatching","We","Group-Self","Self","Top","m",800.211452,0.800211452,1
2,21,"Female","r","h",3,51,"EXPERIMENT","We","We","Matching","We","Group-Self","Self","Top","n",616.864518,0.616864518,1
2,21,"Female","r","h",3,52,"EXPERIMENT","Self","Self","Matching","Self","Individual_Self","Self","Top","n",650.165834,0.650165834,1
2,21,"Female","r","h",3,53,"EXPERIMENT","You","They","Nonmatching","You","Individual_Stranger","Stranger","Bottom","m",916.870085,0.916870085,1
2,21,"Female","r","h",3,54,"EXPERIMENT","Self","We","Nonmatching","Self","Individual_Self","Self","Top","m",783.513616,0.783513616,1
2,21,"Female","r","h",3,55,"EXPERIMENT","They","We","Nonmatching","They","Group-Stranger","Stranger","Bottom","m",933.503174,0.933503174,1
2,21,"Female","r","h",3,56,"EXPERIMENT","They","We","Nonmatching","They","Group-Stranger","Stranger","Top","m",733.502226,0.733502226,1
2,21,"Female","r","h",3,57,"EXPERIMENT","They","They","Matching","They","Group-Stranger","Stranger","Top","n",1000.193844,1.000193844,1
2,21,"Female","r","h",3,58,"EXPERIMENT","We","You","Nonmatching","We","Group-Self","Self","Bottom","m",800.172367,0.800172367,1
2,21,"Female","r","h",3,59,"EXPERIMENT","Self","Self","Matching","Self","Individual_Self","Self","Top","n",683.555978,0.683555978,1
2,21,"Female","r","h",3,60,"EXPERIMENT","They","They","Matching","They","Group-Stranger","Stranger","Top","n",750.174795,0.750174795,1
2,21,"Female","r","h",3,61,"EXPERIMENT","They","They","Matching","They","Group-Stranger","Stranger","Top","n",650.150831,0.650150831,1
2,21,"Female","r","h",3,62,"EXPERIMENT","You","Self","Nonmatching","You","Individual_Stranger","Stranger","Top","m",766.800384,0.766800384,1
2,21,"Female","r","h",3,63,"EXPERIMENT","Self","Self","Matching","Self","Individual_Self","Self","Top","n",700.160247,0.700160247,1
2,21,"Female","r","h",3,64,"EXPERIMENT","You","They","Nonmatching","You","Individual_Stranger","Stranger","Top","m",716.859662,0.716859662,1
2,21,"Female","r","h",3,65,"EXPERIMENT","You","You","Matching","You","Individual_Stranger","Stranger","Bottom","n",733.514465,0.733514465,1
2,21,"Female","r","h",3,66,"EXPERIMENT","We","You","Nonmatching","We","Group-Self","Self","Top","m",666.875513,0.666875513,1
2,21,"Female","r","h",3,67,"EXPERIMENT","Self","They","Nonmatching","Self","Individual_Self","Self","Top","m",816.839804,0.816839804,1
2,21,"Female","r","h",3,68,"EXPERIMENT","Self","Self","Matching","Self","Individual_Self","Self","Bottom","n",533.484698,0.533484698,1
2,21,"Female","r","h",3,69,"EXPERIMENT","Self","Self","Matching","Self","Individual_Self","Self","Bottom","n",566.87879,0.56687879,1
2,21,"Female","r","h",3,70,"EXPERIMENT","You","You","Matching","You","Individual_Stranger","Stranger","Top","n",666.894858,0.666894858,1
2,21,"Female","r","h",3,71,"EXPERIMENT","You","Self","Nonmatching","You","Individual_Stranger","Stranger","Bottom","m",650.158727,0.650158727,1
2,21,"Female","r","h",3,72,"EXPERIMENT","We","We","Matching","We","Group-Self","Self","Bottom","n",800.143547,0.800143547,1
2,21,"Female","r","h",3,73,"EXPERIMENT","You","We","Nonmatching","You","Individual_Stranger","Stranger","Bottom","m",733.558287,0.733558287,1
2,21,"Female","r","h",3,74,"EXPERIMENT","They","They","Matching","They","Group-Stranger","Stranger","Bottom","n",766.853681,0.766853681,1
2,21,"Female","r","h",3,75,"EXPERIMENT","Self","Self","Matching","Self","Individual_Self","Self","Bottom","n",600.178921,0.600178921,1
2,21,"Female","r","h",3,76,"EXPERIMENT","They","They","Matching","They","Group-Stranger","Stranger","Top","n",716.86282,0.71686282,1
2,21,"Female","r","h",3,77,"EXPERIMENT","We","Self","Nonmatching","We","Group-Self","Self","Top","m",933.487382,0.933487382,1
2,21,"Female","r","h",3,78,"EXPERIMENT","They","They","Matching","They","Group-Stranger","Stranger","Bottom","n",666.851036,0.666851036,1
2,21,"Female","r","h",3,79,"EXPERIMENT","They","They","Matching","They","Group-Stranger","Stranger","Bottom","n",666.89091,0.66689091,1
2,21,"Female","r","h",3,80,"EXPERIMENT","They","Self","Nonmatching","They","Group-Stranger","Stranger","Top","m",716.846634,0.716846634,1
2,21,"Female","r","h",3,81,"EXPERIMENT","They","We","Nonmatching","They","Group-Stranger","Stranger","Bottom","m",1083.502207,1.083502207,1
2,21,"Female","r","h",3,82,"EXPERIMENT","They","You","Nonmatching","They","Group-Stranger","Stranger","Bottom","m",733.498279,0.733498279,1
2,21,"Female","r","h",3,83,"EXPERIMENT","We","They","Nonmatching","We","Group-Self","Self","Top","m",850.171124,0.850171124,1
2,21,"Female","r","h",3,84,"EXPERIMENT","We","We","Matching","We","Group-Self","Self","Bottom","n",766.846575,0.766846575,1
2,21,"Female","r","h",3,85,"EXPERIMENT","They","You","Nonmatching","They","Group-Stranger","Stranger","Bottom","m",816.83783,0.81683783,1
2,21,"Female","r","h",3,86,"EXPERIMENT","You","You","Matching","You","Individual_Stranger","Stranger","Top","n",866.835797,0.866835797,1
2,21,"Female","r","h",3,87,"EXPERIMENT","They","Self","Nonmatching","They","Group-Stranger","Stranger","Top","m",733.510912,0.733510912,1
2,21,"Female","r","h",3,88,"EXPERIMENT","Self","Self","Matching","Self","Individual_Self","Self","Bottom","n",566.862998,0.566862998,1
2,21,"Female","r","h",3,89,"EXPERIMENT","They","We","Nonmatching","They","Group-Stranger","Stranger","Top","m",933.53989,0.93353989,1
2,21,"Female","r","h",3,90,"EXPERIMENT","We","We","Matching","We","Group-Self","Self","Top","n",933.492909,0.933492909,1
2,21,"Female","r","h",3,91,"EXPERIMENT","They","They","Matching","They","Group-Stranger","Stranger","Top","n",783.515985,0.783515985,1
2,21,"Female","r","h",3,92,"EXPERIMENT","We","We","Matching","We","Group-Self","Self","Top","n",583.536751,0.583536751,1
2,21,"Female","r","h",3,93,"EXPERIMENT","We","They","Nonmatching","We","Group-Self","Self","Bottom","m",800.164471,0.800164471,1
2,21,"Female","r","h",3,94,"EXPERIMENT","You","We","Nonmatching","You","Individual_Stranger","Stranger","Top","m",750.150713,0.750150713,1
2,21,"Female","r","h",3,95,"EXPERIMENT","Self","You","Nonmatching","Self","Individual_Self","Self","Top","m",766.80749,0.76680749,1
2,21,"Female","r","h",3,96,"EXPERIMENT","Self","We","Nonmatching","Self","Individual_Self","Self","Bottom","m",833.521058,0.833521058,1
3,19,"Female","r","h",1,1,"EXPERIMENT","Self","They","Nonmatching","Self","Individual_Self","Self","Top","n",1366.790198,1.366790198,1
3,19,"Female","r","h",1,2,"EXPERIMENT","You","We","Nonmatching","You","Individual_Stranger","Stranger","Top","n",1133.488724,1.133488724,1
3,19,"Female","r","h",1,3,"EXPERIMENT","We","We","Matching","We","Group-Self","Self","Bottom","m",1183.502088,1.183502088,1
3,19,"Female","r","h",1,4,"EXPERIMENT","We","We","Matching","We","Group-Self","Self","Bottom","m",966.841205,0.966841205,1
3,19,"Female","r","h",1,5,"EXPERIMENT","We","They","Nonmatching","We","Group-Self","Self","Top","n",966.802516,0.966802516,1
3,19,"Female","r","h",1,6,"EXPERIMENT","Self","Self","Matching","Self","Individual_Self","Self","Bottom","n",900.156062,0.900156062,0
3,19,"Female","r","h",1,7,"EXPERIMENT","We","Self","Nonmatching","We","Group-Self","Self","Top","n",883.521394,0.883521394,1
3,19,"Female","r","h",1,8,"EXPERIMENT","They","You","Nonmatching","They","Group-Stranger","Stranger","Top","n",1133.484776,1.133484776,1
3,19,"Female","r","h",1,9,"EXPERIMENT","They","They","Matching","They","Group-Stranger","Stranger","Bottom","m",1116.80826,1.11680826,1
3,19,"Female","r","h",1,10,"EXPERIMENT","Self","Self","Matching","Self","Individual_Self","Self","Bottom","n",766.880527,0.766880527,0
3,19,"Female","r","h",1,11,"EXPERIMENT","They","We","Nonmatching","They","Group-Stranger","Stranger","Top","None",NA,NA,3
3,19,"Female","r","h",1,12,"EXPERIMENT","We","You","Nonmatching","We","Group-Self","Self","Top","n",1150.134447,1.150134447,1
3,19,"Female","r","h",1,13,"EXPERIMENT","Self","You","Nonmatching","Self","Individual_Self","Self","Bottom","n",933.301434,0.933301434,1
3,19,"Female","r","h",1,14,"EXPERIMENT","They","They","Matching","They","Group-Stranger","Stranger","Bottom","m",1033.51332,1.03351332,1
3,19,"Female","r","h",1,15,"EXPERIMENT","They","They","Matching","They","Group-Stranger","Stranger","Top","m",1000.155154,1.000155154,1
3,19,"Female","r","h",1,16,"EXPERIMENT","We","We","Matching","We","Group-Self","Self","Bottom","n",800.168419,0.800168419,0
3,19,"Female","r","h",1,17,"EXPERIMENT","They","We","Nonmatching","They","Group-Stranger","Stranger","Bottom","m",1050.176019,1.050176019,0
3,19,"Female","r","h",1,18,"EXPERIMENT","They","They","Matching","They","Group-Stranger","Stranger","Bottom","m",1516.814103,1.516814103,1
3,19,"Female","r","h",1,19,"EXPERIMENT","You","You","Matching","You","Individual_Stranger","Stranger","Bottom","m",1066.861616,1.066861616,1
3,19,"Female","r","h",1,20,"EXPERIMENT","We","We","Matching","We","Group-Self","Self","Top","m",1066.839902,1.066839902,1
3,19,"Female","r","h",1,21,"EXPERIMENT","Self","You","Nonmatching","Self","Individual_Self","Self","Top","n",1333.465984,1.333465984,1
3,19,"Female","r","h",1,22,"EXPERIMENT","Self","We","Nonmatching","Self","Individual_Self","Self","Top","n",1233.486237,1.233486237,1
3,19,"Female","r","h",1,23,"EXPERIMENT","You","We","Nonmatching","You","Individual_Stranger","Stranger","Top","n",983.484954,0.983484954,1
3,19,"Female","r","h",1,24,"EXPERIMENT","You","You","Matching","You","Individual_Stranger","Stranger","Top","m",983.493245,0.983493245,1
3,19,"Female","r","h",1,25,"EXPERIMENT","You","We","Nonmatching","You","Individual_Stranger","Stranger","Bottom","n",1266.800186,1.266800186,1
3,19,"Female","r","h",1,26,"EXPERIMENT","You","Self","Nonmatching","You","Individual_Stranger","Stranger","Bottom","n",783.501772,0.783501772,1
3,19,"Female","r","h",1,27,"EXPERIMENT","Self","They","Nonmatching","Self","Individual_Self","Self","Top","n",1466.800739,1.466800739,1
3,19,"Female","r","h",1,28,"EXPERIMENT","You","They","Nonmatching","You","Individual_Stranger","Stranger","Top","n",1250.10393,1.25010393,1
3,19,"Female","r","h",1,29,"EXPERIMENT","They","You","Nonmatching","They","Group-Stranger","Stranger","Bottom","n",1233.473209,1.233473209,1
3,19,"Female","r","h",1,30,"EXPERIMENT","You","You","Matching","You","Individual_Stranger","Stranger","Bottom","m",883.502444,0.883502444,1
3,19,"Female","r","h",1,31,"EXPERIMENT","Self","Self","Matching","Self","Individual_Self","Self","Bottom","m",950.121261,0.950121261,1
3,19,"Female","r","h",1,32,"EXPERIMENT","We","We","Matching","We","Group-Self","Self","Bottom","m",900.153299,0.900153299,1
3,19,"Female","r","h",1,33,"EXPERIMENT","Self","Self","Matching","Self","Individual_Self","Self","Top","m",800.183027,0.800183027,1
3,19,"Female","r","h",1,34,"EXPERIMENT","Self","You","Nonmatching","Self","Individual_Self","Self","Bottom","n",1383.451318,1.383451318,1
3,19,"Female","r","h",1,35,"EXPERIMENT","They","They","Matching","They","Group-Stranger","Stranger","Bottom","n",1483.466201,1.483466201,0
3,19,"Female","r","h",1,36,"EXPERIMENT","We","They","Nonmatching","We","Group-Self","Self","Top","n",1183.494587,1.183494587,1
3,19,"Female","r","h",1,37,"EXPERIMENT","Self","They","Nonmatching","Self","Individual_Self","Self","Bottom","n",916.797048,0.916797048,1
3,19,"Female","r","h",1,38,"EXPERIMENT","Self","We","Nonmatching","Self","Individual_Self","Self","Bottom","n",1133.485961,1.133485961,1
3,19,"Female","r","h",1,39,"EXPERIMENT","They","They","Matching","They","Group-Stranger","Stranger","Top","m",1133.476881,1.133476881,1
3,19,"Female","r","h",1,40,"EXPERIMENT","They","They","Matching","They","Group-Stranger","Stranger","Bottom","m",700.141692,0.700141692,1
3,19,"Female","r","h",1,41,"EXPERIMENT","You","Self","Nonmatching","You","Individual_Stranger","Stranger","Bottom","n",750.162162,0.750162162,1
3,19,"Female","r","h",1,42,"EXPERIMENT","Self","Self","Matching","Self","Individual_Self","Self","Top","n",750.169268,0.750169268,0
3,19,"Female","r","h",1,43,"EXPERIMENT","They","We","Nonmatching","They","Group-Stranger","Stranger","Bottom","m",1133.493067,1.133493067,0
3,19,"Female","r","h",1,44,"EXPERIMENT","They","Self","Nonmatching","They","Group-Stranger","Stranger","Top","n",800.169604,0.800169604,1
3,19,"Female","r","h",1,45,"EXPERIMENT","You","You","Matching","You","Individual_Stranger","Stranger","Bottom","m",1166.812938,1.166812938,1
3,19,"Female","r","h",1,46,"EXPERIMENT","We","Self","Nonmatching","We","Group-Self","Self","Top","n",966.897661,0.966897661,1
3,19,"Female","r","h",1,47,"EXPERIMENT","We","They","Nonmatching","We","Group-Self","Self","Bottom","n",1466.827585,1.466827585,1
3,19,"Female","r","h",1,48,"EXPERIMENT","Self","Self","Matching","Self","Individual_Self","Self","Top","m",1050.132987,1.050132987,1
3,19,"Female","r","h",1,49,"EXPERIMENT","Self","We","Nonmatching","Self","Individual_Self","Self","Bottom","n",1583.4724,1.5834724,1
3,19,"Female","r","h",1,50,"EXPERIMENT","We","You","Nonmatching","We","Group-Self","Self","Top","n",1383.472242,1.383472242,1
3,19,"Female","r","h",1,51,"EXPERIMENT","You","You","Matching","You","Individual_Stranger","Stranger","Bottom","m",1533.484303,1.533484303,1
3,19,"Female","r","h",1,52,"EXPERIMENT","You","You","Matching","You","Individual_Stranger","Stranger","Top","m",1016.822986,1.016822986,1
3,19,"Female","r","h",1,53,"EXPERIMENT","We","We","Matching","We","Group-Self","Self","Top","n",1316.817498,1.316817498,0
3,19,"Female","r","h",1,54,"EXPERIMENT","Self","You","Nonmatching","Self","Individual_Self","Self","Top","n",1550.183323,1.550183323,1
3,19,"Female","r","h",1,55,"EXPERIMENT","We","We","Matching","We","Group-Self","Self","Top","m",1683.462806,1.683462806,1
3,19,"Female","r","h",1,56,"EXPERIMENT","They","Self","Nonmatching","They","Group-Stranger","Stranger","Top","n",966.823045,0.966823045,1
3,19,"Female","r","h",1,57,"EXPERIMENT","They","Self","Nonmatching","They","Group-Stranger","Stranger","Bottom","n",1416.880941,1.416880941,1
3,19,"Female","r","h",1,58,"EXPERIMENT","Self","Self","Matching","Self","Individual_Self","Self","Bottom","m",833.495397,0.833495397,1
3,19,"Female","r","h",1,59,"EXPERIMENT","You","You","Matching","You","Individual_Stranger","Stranger","Top","m",916.828236,0.916828236,1
3,19,"Female","r","h",1,60,"EXPERIMENT","Self","We","Nonmatching","Self","Individual_Self","Self","Top","m",1500.138375,1.500138375,0
3,19,"Female","r","h",1,61,"EXPERIMENT","You","Self","Nonmatching","You","Individual_Stranger","Stranger","Top","n",1066.892805,1.066892805,1
3,19,"Female","r","h",1,62,"EXPERIMENT","They","They","Matching","They","Group-Stranger","Stranger","Top","n",1116.838264,1.116838264,0
3,19,"Female","r","h",1,63,"EXPERIMENT","We","Self","Nonmatching","We","Group-Self","Self","Bottom","n",716.838343,0.716838343,1
3,19,"Female","r","h",1,64,"EXPERIMENT","They","They","Matching","They","Group-Stranger","Stranger","Top","m",983.479032,0.983479032,1
3,19,"Female","r","h",1,65,"EXPERIMENT","You","You","Matching","You","Individual_Stranger","Stranger","Top","m",1233.466498,1.233466498,1
3,19,"Female","r","h",1,66,"EXPERIMENT","They","You","Nonmatching","They","Group-Stranger","Stranger","Top","n",1183.49893,1.18349893,1
3,19,"Female","r","h",1,67,"EXPERIMENT","Self","Self","Matching","Self","Individual_Self","Self","Top","m",850.150989,0.850150989,1
3,19,"Female","r","h",1,68,"EXPERIMENT","We","We","Matching","We","Group-Self","Self","Top","m",1283.453015,1.283453015,1
3,19,"Female","r","h",1,69,"EXPERIMENT","You","You","Matching","You","Individual_Stranger","Stranger","Top","m",883.511524,0.883511524,1
3,19,"Female","r","h",1,70,"EXPERIMENT","You","They","Nonmatching","You","Individual_Stranger","Stranger","Top","n",1366.798883,1.366798883,1
3,19,"Female","r","h",1,71,"EXPERIMENT","We","We","Matching","We","Group-Self","Self","Top","m",866.855141,0.866855141,1
3,19,"Female","r","h",1,72,"EXPERIMENT","You","You","Matching","You","Individual_Stranger","Stranger","Bottom","m",916.827052,0.916827052,1
3,19,"Female","r","h",1,73,"EXPERIMENT","Self","They","Nonmatching","Self","Individual_Self","Self","Bottom","n",1066.85372,1.06685372,1
3,19,"Female","r","h",1,74,"EXPERIMENT","We","We","Matching","We","Group-Self","Self","Bottom","m",1116.809444,1.116809444,1
3,19,"Female","r","h",1,75,"EXPERIMENT","We","We","Matching","We","Group-Self","Self","Bottom","n",1100.155036,1.100155036,0
3,19,"Female","r","h",1,76,"EXPERIMENT","Self","Self","Matching","Self","Individual_Self","Self","Top","m",866.826716,0.866826716,1
3,19,"Female","r","h",1,77,"EXPERIMENT","They","Self","Nonmatching","They","Group-Stranger","Stranger","Bottom","n",900.167511,0.900167511,1
3,19,"Female","r","h",1,78,"EXPERIMENT","Self","Self","Matching","Self","Individual_Self","Self","Bottom","m",783.5073,0.7835073,1
3,19,"Female","r","h",1,79,"EXPERIMENT","They","They","Matching","They","Group-Stranger","Stranger","Top","m",1150.164451,1.150164451,1
3,19,"Female","r","h",1,80,"EXPERIMENT","You","They","Nonmatching","You","Individual_Stranger","Stranger","Bottom","n",866.852773,0.866852773,1
3,19,"Female","r","h",1,81,"EXPERIMENT","We","Self","Nonmatching","We","Group-Self","Self","Bottom","n",1000.158313,1.000158313,1
3,19,"Female","r","h",1,82,"EXPERIMENT","They","They","Matching","They","Group-Stranger","Stranger","Bottom","m",983.488507,0.983488507,1
3,19,"Female","r","h",1,83,"EXPERIMENT","You","You","Matching","You","Individual_Stranger","Stranger","Top","m",900.283186,0.900283186,1
3,19,"Female","r","h",1,84,"EXPERIMENT","Self","Self","Matching","Self","Individual_Self","Self","Top","m",816.858359,0.816858359,1
3,19,"Female","r","h",1,85,"EXPERIMENT","You","Self","Nonmatching","You","Individual_Stranger","Stranger","Top","n",1500.15772,1.50015772,1
3,19,"Female","r","h",1,86,"EXPERIMENT","Self","Self","Matching","Self","Individual_Self","Self","Bottom","m",700.176434,0.700176434,1
3,19,"Female","r","h",1,87,"EXPERIMENT","They","You","Nonmatching","They","Group-Stranger","Stranger","Bottom","n",833.486316,0.833486316,1
3,19,"Female","r","h",1,88,"EXPERIMENT","You","We","Nonmatching","You","Individual_Stranger","Stranger","Bottom","n",1166.812148,1.166812148,1
3,19,"Female","r","h",1,89,"EXPERIMENT","We","You","Nonmatching","We","Group-Self","Self","Bottom","n",1400.162182,1.400162182,1
3,19,"Female","r","h",1,90,"EXPERIMENT","They","They","Matching","They","Group-Stranger","Stranger","Top","m",933.49133,0.93349133,1
3,19,"Female","r","h",1,91,"EXPERIMENT","We","You","Nonmatching","We","Group-Self","Self","Bottom","n",883.487046,0.883487046,1
3,19,"Female","r","h",1,92,"EXPERIMENT","We","We","Matching","We","Group-Self","Self","Top","m",1016.80443,1.01680443,1
3,19,"Female","r","h",1,93,"EXPERIMENT","You","You","Matching","You","Individual_Stranger","Stranger","Bottom","m",916.790731,0.916790731,1
3,19,"Female","r","h",1,94,"EXPERIMENT","They","We","Nonmatching","They","Group-Stranger","Stranger","Top","n",1283.484994,1.283484994,1
3,19,"Female","r","h",1,95,"EXPERIMENT","You","They","Nonmatching","You","Individual_Stranger","Stranger","Bottom","m",1150.137211,1.150137211,0
3,19,"Female","r","h",1,96,"EXPERIMENT","We","They","Nonmatching","We","Group-Self","Self","Bottom","n",1166.859524,1.166859524,1
3,19,"Female","r","h",2,1,"EXPERIMENT","They","You","Nonmatching","They","Group-Stranger","Stranger","Bottom","n",966.824229,0.966824229,1
3,19,"Female","r","h",2,2,"EXPERIMENT","You","You","Matching","You","Individual_Stranger","Stranger","Top","m",1066.809503,1.066809503,1
3,19,"Female","r","h",2,3,"EXPERIMENT","Self","Self","Matching","Self","Individual_Self","Self","Bottom","m",716.914144,0.716914144,1
3,19,"Female","r","h",2,4,"EXPERIMENT","They","You","Nonmatching","They","Group-Stranger","Stranger","Bottom","n",900.133164,0.900133164,1
3,19,"Female","r","h",2,5,"EXPERIMENT","They","We","Nonmatching","They","Group-Stranger","Stranger","Bottom","n",1350.160662,1.350160662,1
3,19,"Female","r","h",2,6,"EXPERIMENT","You","We","Nonmatching","You","Individual_Stranger","Stranger","Top","n",783.499404,0.783499404,1
3,19,"Female","r","h",2,7,"EXPERIMENT","Self","Self","Matching","Self","Individual_Self","Self","Top","m",700.140902,0.700140902,1
3,19,"Female","r","h",2,8,"EXPERIMENT","We","We","Matching","We","Group-Self","Self","Top","m",1100.228073,1.100228073,1
3,19,"Female","r","h",2,9,"EXPERIMENT","They","Self","Nonmatching","They","Group-Stranger","Stranger","Top","n",983.509036,0.983509036,1
3,19,"Female","r","h",2,10,"EXPERIMENT","We","Self","Nonmatching","We","Group-Self","Self","Top","n",916.828236,0.916828236,1
3,19,"Female","r","h",2,11,"EXPERIMENT","You","You","Matching","You","Individual_Stranger","Stranger","Top","m",1000.139363,1.000139363,1
3,19,"Female","r","h",2,12,"EXPERIMENT","You","You","Matching","You","Individual_Stranger","Stranger","Bottom","m",1016.873519,1.016873519,1
3,19,"Female","r","h",2,13,"EXPERIMENT","Self","Self","Matching","Self","Individual_Self","Self","Bottom","m",1383.541726,1.383541726,1
3,19,"Female","r","h",2,14,"EXPERIMENT","We","We","Matching","We","Group-Self","Self","Bottom","m",799.979708,0.799979708,1
3,19,"Female","r","h",2,15,"EXPERIMENT","They","They","Matching","They","Group-Stranger","Stranger","Bottom","m",1416.807904,1.416807904,1
3,19,"Female","r","h",2,16,"EXPERIMENT","We","We","Matching","We","Group-Self","Self","Bottom","m",833.487501,0.833487501,1
3,19,"Female","r","h",2,17,"EXPERIMENT","You","Self","Nonmatching","You","Individual_Stranger","Stranger","Bottom","n",783.517564,0.783517564,1
3,19,"Female","r","h",2,18,"EXPERIMENT","We","Self","Nonmatching","We","Group-Self","Self","Top","n",816.813747,0.816813747,1
3,19,"Female","r","h",2,19,"EXPERIMENT","You","You","Matching","You","Individual_Stranger","Stranger","Bottom","m",916.791915,0.916791915,1
3,19,"Female","r","h",2,20,"EXPERIMENT","They","They","Matching","They","Group-Stranger","Stranger","Top","None",NA,NA,3
3,19,"Female","r","h",2,21,"EXPERIMENT","Self","They","Nonmatching","Self","Individual_Self","Self","Top","n",1550.139501,1.550139501,1
3,19,"Female","r","h",2,22,"EXPERIMENT","Self","Self","Matching","Self","Individual_Self","Self","Top","m",800.151443,0.800151443,1
3,19,"Female","r","h",2,23,"EXPERIMENT","Self","We","Nonmatching","Self","Individual_Self","Self","Bottom","n",916.845607,0.916845607,1
3,19,"Female","r","h",2,24,"EXPERIMENT","Self","Self","Matching","Self","Individual_Self","Self","Bottom","m",733.528283,0.733528283,1
3,19,"Female","r","h",2,25,"EXPERIMENT","You","You","Matching","You","Individual_Stranger","Stranger","Top","m",833.505661,0.833505661,1
3,19,"Female","r","h",2,26,"EXPERIMENT","Self","We","Nonmatching","Self","Individual_Self","Self","Top","n",1083.488389,1.083488389,1
3,19,"Female","r","h",2,27,"EXPERIMENT","They","They","Matching","They","Group-Stranger","Stranger","Top","m",983.508247,0.983508247,1
3,19,"Female","r","h",2,28,"EXPERIMENT","They","Self","Nonmatching","They","Group-Stranger","Stranger","Bottom","n",850.159675,0.850159675,1
3,19,"Female","r","h",2,29,"EXPERIMENT","They","We","Nonmatching","They","Group-Stranger","Stranger","Top","n",1100.165695,1.100165695,1
3,19,"Female","r","h",2,30,"EXPERIMENT","You","Self","Nonmatching","You","Individual_Stranger","Stranger","Top","n",883.487047,0.883487047,1
3,19,"Female","r","h",2,31,"EXPERIMENT","They","Self","Nonmatching","They","Group-Stranger","Stranger","Bottom","n",733.503411,0.733503411,1
3,19,"Female","r","h",2,32,"EXPERIMENT","Self","We","Nonmatching","Self","Individual_Self","Self","Top","n",950.134289,0.950134289,1
3,19,"Female","r","h",2,33,"EXPERIMENT","We","We","Matching","We","Group-Self","Self","Top","m",1400.125466,1.400125466,1
3,19,"Female","r","h",2,34,"EXPERIMENT","They","They","Matching","They","Group-Stranger","Stranger","Top","m",850.163623,0.850163623,1
3,19,"Female","r","h",2,35,"EXPERIMENT","We","We","Matching","We","Group-Self","Self","Top","m",816.862307,0.816862307,1
3,19,"Female","r","h",2,36,"EXPERIMENT","We","You","Nonmatching","We","Group-Self","Self","Top","n",916.827842,0.916827842,1
3,19,"Female","r","h",2,37,"EXPERIMENT","They","They","Matching","They","Group-Stranger","Stranger","Bottom","m",850.195601,0.850195601,1
3,19,"Female","r","h",2,38,"EXPERIMENT","We","We","Matching","We","Group-Self","Self","Bottom","m",950.154819,0.950154819,1
3,19,"Female","r","h",2,39,"EXPERIMENT","You","We","Nonmatching","You","Individual_Stranger","Stranger","Bottom","n",816.832697,0.816832697,1
3,19,"Female","r","h",2,40,"EXPERIMENT","Self","Self","Matching","Self","Individual_Self","Self","Top","m",800.162103,0.800162103,1
3,19,"Female","r","h",2,41,"EXPERIMENT","You","You","Matching","You","Individual_Stranger","Stranger","Top","m",816.833882,0.816833882,1
3,19,"Female","r","h",2,42,"EXPERIMENT","They","They","Matching","They","Group-Stranger","Stranger","Bottom","m",783.51717,0.78351717,1
3,19,"Female","r","h",2,43,"EXPERIMENT","We","Self","Nonmatching","We","Group-Self","Self","Bottom","n",783.52546,0.78352546,1
3,19,"Female","r","h",2,44,"EXPERIMENT","They","They","Matching","They","Group-Stranger","Stranger","Top","m",966.791066,0.966791066,1
3,19,"Female","r","h",2,45,"EXPERIMENT","We","We","Matching","We","Group-Self","Self","Top","m",883.477177,0.883477177,1
3,19,"Female","r","h",2,46,"EXPERIMENT","They","They","Matching","They","Group-Stranger","Stranger","Bottom","m",1283.465649,1.283465649,1
3,19,"Female","r","h",2,47,"EXPERIMENT","Self","You","Nonmatching","Self","Individual_Self","Self","Bottom","n",900.216861,0.900216861,1
3,19,"Female","r","h",2,48,"EXPERIMENT","We","We","Matching","We","Group-Self","Self","Top","m",950.157187,0.950157187,1
3,19,"Female","r","h",2,49,"EXPERIMENT","Self","They","Nonmatching","Self","Individual_Self","Self","Top","n",1200.132809,1.200132809,1
3,19,"Female","r","h",2,50,"EXPERIMENT","Self","You","Nonmatching","Self","Individual_Self","Self","Top","n",1183.479585,1.183479585,1
3,19,"Female","r","h",2,51,"EXPERIMENT","We","We","Matching","We","Group-Self","Self","Bottom","m",1066.882935,1.066882935,1
3,19,"Female","r","h",2,52,"EXPERIMENT","You","They","Nonmatching","You","Individual_Stranger","Stranger","Bottom","n",1100.173591,1.100173591,1
3,19,"Female","r","h",2,53,"EXPERIMENT","They","Self","Nonmatching","They","Group-Stranger","Stranger","Top","n",883.485467,0.883485467,1
3,19,"Female","r","h",2,54,"EXPERIMENT","You","You","Matching","You","Individual_Stranger","Stranger","Bottom","m",783.522302,0.783522302,1
3,19,"Female","r","h",2,55,"EXPERIMENT","You","Self","Nonmatching","You","Individual_Stranger","Stranger","Bottom","n",800.133677,0.800133677,1
3,19,"Female","r","h",2,56,"EXPERIMENT","We","You","Nonmatching","We","Group-Self","Self","Top","n",1016.800877,1.016800877,1
3,19,"Female","r","h",2,57,"EXPERIMENT","Self","Self","Matching","Self","Individual_Self","Self","Bottom","m",700.151167,0.700151167,1
3,19,"Female","r","h",2,58,"EXPERIMENT","They","They","Matching","They","Group-Stranger","Stranger","Top","m",783.462293,0.783462293,1
3,19,"Female","r","h",2,59,"EXPERIMENT","We","They","Nonmatching","We","Group-Self","Self","Bottom","n",1150.157345,1.150157345,1
3,19,"Female","r","h",2,60,"EXPERIMENT","You","We","Nonmatching","You","Individual_Stranger","Stranger","Top","n",950.1714,0.9501714,1
3,19,"Female","r","h",2,61,"EXPERIMENT","They","They","Matching","They","Group-Stranger","Stranger","Top","m",1150.128525,1.150128525,1
3,19,"Female","r","h",2,62,"EXPERIMENT","They","They","Matching","They","Group-Stranger","Stranger","Bottom","m",1033.486869,1.033486869,1
3,19,"Female","r","h",2,63,"EXPERIMENT","We","Self","Nonmatching","We","Group-Self","Self","Bottom","n",716.84466,0.71684466,1
3,19,"Female","r","h",2,64,"EXPERIMENT","Self","We","Nonmatching","Self","Individual_Self","Self","Bottom","n",1033.511741,1.033511741,1
3,19,"Female","r","h",2,65,"EXPERIMENT","You","We","Nonmatching","You","Individual_Stranger","Stranger","Bottom","n",733.515255,0.733515255,1
3,19,"Female","r","h",2,66,"EXPERIMENT","We","We","Matching","We","Group-Self","Self","Bottom","n",916.823104,0.916823104,0
3,19,"Female","r","h",2,67,"EXPERIMENT","We","We","Matching","We","Group-Self","Self","Top","m",850.13046,0.85013046,1
3,19,"Female","r","h",2,68,"EXPERIMENT","You","They","Nonmatching","You","Individual_Stranger","Stranger","Top","n",1083.463517,1.083463517,1
3,19,"Female","r","h",2,69,"EXPERIMENT","You","You","Matching","You","Individual_Stranger","Stranger","Bottom","n",800.168025,0.800168025,0
3,19,"Female","r","h",2,70,"EXPERIMENT","Self","They","Nonmatching","Self","Individual_Self","Self","Bottom","n",950.180085,0.950180085,1
3,19,"Female","r","h",2,71,"EXPERIMENT","They","You","Nonmatching","They","Group-Stranger","Stranger","Top","n",1183.512353,1.183512353,1
3,19,"Female","r","h",2,72,"EXPERIMENT","You","They","Nonmatching","You","Individual_Stranger","Stranger","Bottom","n",800.151048,0.800151048,1
