"","Subject","Block","Trial","Gender","Age","Handedness","First_Language","Matching","Origin_Identity","Phase","Shape","Label","WeShape","SelfShape","TheyShape","AloneShape","ShapeLoc","Response","RT_sec","ACC","RT_ms","English_Identity","Standarlized_Identity"
"1",1,0,1,"Female",24,"r","h","Nonmatching","You","TRAINING","You","They","Triangle","Circle","Diamond","Star","Top","n",1.466773103,1,1466.773103,"You","Stranger"
"2",1,0,2,"Female",24,"r","h","Nonmatching","You","TRAINING","You","We","Triangle","Circle","Diamond","Star","Top","n",1.166803463,1,1166.803463,"You","Stranger"
"3",1,0,3,"Female",24,"r","h","Matching","You","TRAINING","You","You","Triangle","Circle","Diamond","Star","Bottom","None",NA,3,NA,"You","Stranger"
"4",1,0,4,"Female",24,"r","h","Matching","You","TRAINING","You","You","Triangle","Circle","Diamond","Star","Top","m",1.000159102,1,1000.159102,"You","Stranger"
"5",1,0,5,"Female",24,"r","h","Nonmatching","They","TRAINING","They","We","Triangle","Circle","Diamond","Star","Bottom","n",0.816838225,1,816.838225,"They","Group-Stranger"
"6",1,0,6,"Female",24,"r","h","Matching","Self","TRAINING","Self","Self","Triangle","Circle","Diamond","Star","Top","m",0.750148739,1,750.148739,"Self","Self"
"7",1,0,7,"Female",24,"r","h","Nonmatching","Self","TRAINING","Self","You","Triangle","Circle","Diamond","Star","Top","n",0.583529645,1,583.529645,"Self","Self"
"8",1,0,8,"Female",24,"r","h","Nonmatching","They","TRAINING","They","Self","Triangle","Circle","Diamond","Star","Top","n",0.683492021,1,683.492021,"They","Group-Stranger"
"9",1,0,9,"Female",24,"r","h","Matching","Self","TRAINING","Self","Self","Triangle","Circle","Diamond","Star","Bottom","m",0.683511761,1,683.511761,"Self","Self"
"10",1,0,10,"Female",24,"r","h","Nonmatching","Self","TRAINING","Self","We","Triangle","Circle","Diamond","Star","Bottom","n",0.71689322,1,716.89322,"Self","Self"
"11",1,0,11,"Female",24,"r","h","Nonmatching","We","TRAINING","We","They","Triangle","Circle","Diamond","Star","Bottom","n",0.666835639,1,666.835639,"We","Group-Self"
"12",1,0,12,"Female",24,"r","h","Matching","They","TRAINING","They","They","Triangle","Circle","Diamond","Star","Bottom","m",0.833483158,1,833.483158,"They","Group-Stranger"
"13",1,0,13,"Female",24,"r","h","Matching","We","TRAINING","We","We","Triangle","Circle","Diamond","Star","Top","n",0.716836764,0,716.836764,"We","Group-Self"
"14",1,0,14,"Female",24,"r","h","Nonmatching","They","TRAINING","They","You","Triangle","Circle","Diamond","Star","Bottom","n",1.16688558,1,1166.88558,"They","Group-Stranger"
"15",1,0,15,"Female",24,"r","h","Nonmatching","We","TRAINING","We","You","Triangle","Circle","Diamond","Star","Top","n",0.733505385,1,733.505385,"We","Group-Self"
"16",1,0,16,"Female",24,"r","h","Nonmatching","You","TRAINING","You","Self","Triangle","Circle","Diamond","Star","Bottom","n",0.75018506,1,750.18506,"You","Stranger"
"17",1,0,17,"Female",24,"r","h","Nonmatching","We","TRAINING","We","Self","Triangle","Circle","Diamond","Star","Top","n",0.783494271,1,783.494271,"We","Group-Self"
"18",1,0,18,"Female",24,"r","h","Matching","They","TRAINING","They","They","Triangle","Circle","Diamond","Star","Top","m",0.950167847,1,950.167847,"They","Group-Stranger"
"19",1,0,19,"Female",24,"r","h","Nonmatching","Self","TRAINING","Self","They","Triangle","Circle","Diamond","Star","Top","n",1.033464366,1,1033.464366,"Self","Self"
"20",1,0,20,"Female",24,"r","h","Matching","We","TRAINING","We","We","Triangle","Circle","Diamond","Star","Bottom","m",0.800169999,1,800.169999,"We","Group-Self"
"21",1,1,1,"Female",24,"r","h","Matching","Self","EXPERIMENT","Self","Self","Triangle","Circle","Diamond","Star","Top","m",1.250153674,1,1250.153674,"Self","Self"
"22",1,1,2,"Female",24,"r","h","Nonmatching","Self","EXPERIMENT","Self","They","Triangle","Circle","Diamond","Star","Top","n",0.700194594,1,700.194594,"Self","Self"
"23",1,1,3,"Female",24,"r","h","Nonmatching","They","EXPERIMENT","They","You","Triangle","Circle","Diamond","Star","Top","n",0.850199944,1,850.199944,"They","Group-Stranger"
"24",1,1,4,"Female",24,"r","h","Nonmatching","You","EXPERIMENT","You","Self","Triangle","Circle","Diamond","Star","Bottom","n",0.716834395,1,716.834395,"You","Stranger"
"25",1,1,5,"Female",24,"r","h","Matching","They","EXPERIMENT","They","They","Triangle","Circle","Diamond","Star","Top","m",0.816821643,1,816.821643,"They","Group-Stranger"
"26",1,1,6,"Female",24,"r","h","Matching","Self","EXPERIMENT","Self","Self","Triangle","Circle","Diamond","Star","Top","m",0.666831691,1,666.831691,"Self","Self"
"27",1,1,7,"Female",24,"r","h","Nonmatching","Self","EXPERIMENT","Self","They","Triangle","Circle","Diamond","Star","Bottom","n",0.633537087,1,633.537087,"Self","Self"
"28",1,1,8,"Female",24,"r","h","Matching","Self","EXPERIMENT","Self","Self","Triangle","Circle","Diamond","Star","Bottom","m",0.566880764,1,566.880764,"Self","Self"
"29",1,1,9,"Female",24,"r","h","Nonmatching","They","EXPERIMENT","They","Self","Triangle","Circle","Diamond","Star","Bottom","n",0.516847265,1,516.847265,"They","Group-Stranger"
"30",1,1,10,"Female",24,"r","h","Matching","We","EXPERIMENT","We","We","Triangle","Circle","Diamond","Star","Top","n",0.716828868,0,716.828868,"We","Group-Self"
"31",1,1,11,"Female",24,"r","h","Matching","Self","EXPERIMENT","Self","Self","Triangle","Circle","Diamond","Star","Bottom","m",0.700163011,1,700.163011,"Self","Self"
"32",1,1,12,"Female",24,"r","h","Matching","We","EXPERIMENT","We","We","Triangle","Circle","Diamond","Star","Bottom","m",0.716868742,1,716.868742,"We","Group-Self"
"33",1,1,13,"Female",24,"r","h","Nonmatching","They","EXPERIMENT","They","We","Triangle","Circle","Diamond","Star","Bottom","n",0.783491113,1,783.491113,"They","Group-Stranger"
"34",1,1,14,"Female",24,"r","h","Nonmatching","Self","EXPERIMENT","Self","We","Triangle","Circle","Diamond","Star","Bottom","n",0.950167057,1,950.167057,"Self","Self"
"35",1,1,15,"Female",24,"r","h","Nonmatching","Self","EXPERIMENT","Self","You","Triangle","Circle","Diamond","Star","Top","n",1.01683404,1,1016.83404,"Self","Self"
"36",1,1,16,"Female",24,"r","h","Nonmatching","You","EXPERIMENT","You","We","Triangle","Circle","Diamond","Star","Bottom","n",0.716829263,1,716.829263,"You","Stranger"
"37",1,1,17,"Female",24,"r","h","Matching","We","EXPERIMENT","We","We","Triangle","Circle","Diamond","Star","Bottom","m",0.833497765,1,833.497765,"We","Group-Self"
"38",1,1,18,"Female",24,"r","h","Nonmatching","They","EXPERIMENT","They","We","Triangle","Circle","Diamond","Star","Bottom","n",0.716836764,1,716.836764,"They","Group-Stranger"
"39",1,1,19,"Female",24,"r","h","Matching","You","EXPERIMENT","You","You","Triangle","Circle","Diamond","Star","Top","m",1.066818584,1,1066.818584,"You","Stranger"
"40",1,1,20,"Female",24,"r","h","Nonmatching","Self","EXPERIMENT","Self","They","Triangle","Circle","Diamond","Star","Top","n",0.983471926,1,983.471926,"Self","Self"
"41",1,1,21,"Female",24,"r","h","Nonmatching","Self","EXPERIMENT","Self","You","Triangle","Circle","Diamond","Star","Bottom","n",0.783497825,1,783.497825,"Self","Self"
"42",1,1,22,"Female",24,"r","h","Matching","They","EXPERIMENT","They","They","Triangle","Circle","Diamond","Star","Bottom","m",0.933622007,1,933.622007,"They","Group-Stranger"
"43",1,1,23,"Female",24,"r","h","Matching","We","EXPERIMENT","We","We","Triangle","Circle","Diamond","Star","Top","m",0.81686665,1,816.86665,"We","Group-Self"
"44",1,1,24,"Female",24,"r","h","Matching","You","EXPERIMENT","You","You","Triangle","Circle","Diamond","Star","Bottom","m",0.783449659,1,783.449659,"You","Stranger"
"45",1,1,25,"Female",24,"r","h","Nonmatching","We","EXPERIMENT","We","They","Triangle","Circle","Diamond","Star","Top","n",1.216820775,1,1216.820775,"We","Group-Self"
"46",1,1,26,"Female",24,"r","h","Nonmatching","Self","EXPERIMENT","Self","You","Triangle","Circle","Diamond","Star","Bottom","n",0.75011834,1,750.11834,"Self","Self"
"47",1,1,27,"Female",24,"r","h","Matching","You","EXPERIMENT","You","You","Triangle","Circle","Diamond","Star","Bottom","m",0.816840988,1,816.840988,"You","Stranger"
"48",1,1,28,"Female",24,"r","h","Matching","Self","EXPERIMENT","Self","Self","Triangle","Circle","Diamond","Star","Bottom","m",0.783495456,1,783.495456,"Self","Self"
"49",1,1,29,"Female",24,"r","h","Matching","They","EXPERIMENT","They","They","Triangle","Circle","Diamond","Star","Bottom","m",0.800190923,1,800.190923,"They","Group-Stranger"
"50",1,1,30,"Female",24,"r","h","Nonmatching","They","EXPERIMENT","They","Self","Triangle","Circle","Diamond","Star","Bottom","n",0.883520209,1,883.520209,"They","Group-Stranger"
"51",1,1,31,"Female",24,"r","h","Nonmatching","They","EXPERIMENT","They","Self","Triangle","Circle","Diamond","Star","Top","n",1.083482072,1,1083.482072,"They","Group-Stranger"
"52",1,1,32,"Female",24,"r","h","Matching","You","EXPERIMENT","You","You","Triangle","Circle","Diamond","Star","Top","m",0.733506175,1,733.506175,"You","Stranger"
"53",1,1,33,"Female",24,"r","h","Matching","We","EXPERIMENT","We","We","Triangle","Circle","Diamond","Star","Bottom","m",0.633518926,1,633.518926,"We","Group-Self"
"54",1,1,34,"Female",24,"r","h","Nonmatching","We","EXPERIMENT","We","You","Triangle","Circle","Diamond","Star","Bottom","m",0.700167748,0,700.167748,"We","Group-Self"
"55",1,1,35,"Female",24,"r","h","Matching","They","EXPERIMENT","They","They","Triangle","Circle","Diamond","Star","Bottom","m",1.050138119,1,1050.138119,"They","Group-Stranger"
"56",1,1,36,"Female",24,"r","h","Nonmatching","You","EXPERIMENT","You","They","Triangle","Circle","Diamond","Star","Bottom","n",1.083500233,1,1083.500233,"You","Stranger"
"57",1,1,37,"Female",24,"r","h","Nonmatching","You","EXPERIMENT","You","We","Triangle","Circle","Diamond","Star","Top","n",0.716822946,1,716.822946,"You","Stranger"
"58",1,1,38,"Female",24,"r","h","Matching","You","EXPERIMENT","You","You","Triangle","Circle","Diamond","Star","Top","m",0.916826657,1,916.826657,"You","Stranger"
"59",1,1,39,"Female",24,"r","h","Nonmatching","You","EXPERIMENT","You","They","Triangle","Circle","Diamond","Star","Top","n",0.833487106,1,833.487106,"You","Stranger"
"60",1,1,40,"Female",24,"r","h","Matching","We","EXPERIMENT","We","We","Triangle","Circle","Diamond","Star","Top","m",0.633507872,1,633.507872,"We","Group-Self"
"61",1,1,41,"Female",24,"r","h","Nonmatching","They","EXPERIMENT","They","We","Triangle","Circle","Diamond","Star","Top","n",0.700148008,1,700.148008,"They","Group-Stranger"
"62",1,1,42,"Female",24,"r","h","Matching","You","EXPERIMENT","You","You","Triangle","Circle","Diamond","Star","Bottom","m",0.683487678,1,683.487678,"You","Stranger"
"63",1,1,43,"Female",24,"r","h","Matching","They","EXPERIMENT","They","They","Triangle","Circle","Diamond","Star","Bottom","m",0.966843574,1,966.843574,"They","Group-Stranger"
"64",1,1,44,"Female",24,"r","h","Matching","We","EXPERIMENT","We","We","Triangle","Circle","Diamond","Star","Bottom","m",0.983486928,1,983.486928,"We","Group-Self"
"65",1,1,45,"Female",24,"r","h","Matching","You","EXPERIMENT","You","You","Triangle","Circle","Diamond","Star","Top","m",0.733536968,1,733.536968,"You","Stranger"
"66",1,1,46,"Female",24,"r","h","Nonmatching","Self","EXPERIMENT","Self","We","Triangle","Circle","Diamond","Star","Top","n",1.066786211,1,1066.786211,"Self","Self"
"67",1,1,47,"Female",24,"r","h","Nonmatching","You","EXPERIMENT","You","Self","Triangle","Circle","Diamond","Star","Bottom","n",0.966788698,1,966.788698,"You","Stranger"
"68",1,1,48,"Female",24,"r","h","Matching","Self","EXPERIMENT","Self","Self","Triangle","Circle","Diamond","Star","Bottom","m",0.983512985,1,983.512985,"Self","Self"
"69",1,1,49,"Female",24,"r","h","Nonmatching","Self","EXPERIMENT","Self","They","Triangle","Circle","Diamond","Star","Bottom","n",0.616817932,1,616.817932,"Self","Self"
"70",1,1,50,"Female",24,"r","h","Nonmatching","We","EXPERIMENT","We","Self","Triangle","Circle","Diamond","Star","Bottom","n",0.833510794,1,833.510794,"We","Group-Self"
"71",1,1,51,"Female",24,"r","h","Matching","We","EXPERIMENT","We","We","Triangle","Circle","Diamond","Star","Top","m",0.800148285,1,800.148285,"We","Group-Self"
"72",1,1,52,"Female",24,"r","h","Nonmatching","You","EXPERIMENT","You","Self","Triangle","Circle","Diamond","Star","Top","n",0.850171519,1,850.171519,"You","Stranger"
"73",1,1,53,"Female",24,"r","h","Nonmatching","Self","EXPERIMENT","Self","You","Triangle","Circle","Diamond","Star","Top","n",1.066856879,1,1066.856879,"Self","Self"
"74",1,1,54,"Female",24,"r","h","Nonmatching","They","EXPERIMENT","They","You","Triangle","Circle","Diamond","Star","Top","n",1.000217532,1,1000.217532,"They","Group-Stranger"
"75",1,1,55,"Female",24,"r","h","Nonmatching","We","EXPERIMENT","We","You","Triangle","Circle","Diamond","Star","Top","m",1.000166603,0,1000.166603,"We","Group-Self"
"76",1,1,56,"Female",24,"r","h","Nonmatching","They","EXPERIMENT","They","You","Triangle","Circle","Diamond","Star","Bottom","n",0.866853957,1,866.853957,"They","Group-Stranger"
"77",1,1,57,"Female",24,"r","h","Matching","They","EXPERIMENT","They","They","Triangle","Circle","Diamond","Star","Top","m",0.983494035,1,983.494035,"They","Group-Stranger"
"78",1,1,58,"Female",24,"r","h","Nonmatching","You","EXPERIMENT","You","They","Triangle","Circle","Diamond","Star","Top","n",1.066820953,1,1066.820953,"You","Stranger"
"79",1,1,59,"Female",24,"r","h","Matching","They","EXPERIMENT","They","They","Triangle","Circle","Diamond","Star","Bottom","m",0.850154937,1,850.154937,"They","Group-Stranger"
"80",1,1,60,"Female",24,"r","h","Matching","You","EXPERIMENT","You","You","Triangle","Circle","Diamond","Star","Bottom","m",0.733479723,1,733.479723,"You","Stranger"
"81",1,1,61,"Female",24,"r","h","Nonmatching","You","EXPERIMENT","You","Self","Triangle","Circle","Diamond","Star","Top","n",0.88349968,1,883.49968,"You","Stranger"
"82",1,1,62,"Female",24,"r","h","Matching","They","EXPERIMENT","They","They","Triangle","Circle","Diamond","Star","Top","m",0.916825867,1,916.825867,"They","Group-Stranger"
"83",1,1,63,"Female",24,"r","h","Nonmatching","They","EXPERIMENT","They","You","Triangle","Circle","Diamond","Star","Bottom","n",0.833519084,1,833.519084,"They","Group-Stranger"
"84",1,1,64,"Female",24,"r","h","Nonmatching","We","EXPERIMENT","We","Self","Triangle","Circle","Diamond","Star","Top","n",0.866796317,1,866.796317,"We","Group-Self"
"85",1,1,65,"Female",24,"r","h","Nonmatching","Self","EXPERIMENT","Self","We","Triangle","Circle","Diamond","Star","Top","n",1.00014489,1,1000.14489,"Self","Self"
"86",1,1,66,"Female",24,"r","h","Matching","Self","EXPERIMENT","Self","Self","Triangle","Circle","Diamond","Star","Top","m",0.716820577,1,716.820577,"Self","Self"
"87",1,1,67,"Female",24,"r","h","Matching","You","EXPERIMENT","You","You","Triangle","Circle","Diamond","Star","Top","m",0.716887298,1,716.887298,"You","Stranger"
"88",1,1,68,"Female",24,"r","h","Matching","You","EXPERIMENT","You","You","Triangle","Circle","Diamond","Star","Bottom","n",0.850145067,0,850.145067,"You","Stranger"
"89",1,1,69,"Female",24,"r","h","Matching","They","EXPERIMENT","They","They","Triangle","Circle","Diamond","Star","Top","m",1.100160563,1,1100.160563,"They","Group-Stranger"
"90",1,1,70,"Female",24,"r","h","Matching","You","EXPERIMENT","You","You","Triangle","Circle","Diamond","Star","Top","m",0.666859721,1,666.859721,"You","Stranger"
"91",1,1,71,"Female",24,"r","h","Matching","Self","EXPERIMENT","Self","Self","Triangle","Circle","Diamond","Star","Bottom","m",0.683553609,1,683.553609,"Self","Self"
"92",1,1,72,"Female",24,"r","h","Matching","We","EXPERIMENT","We","We","Triangle","Circle","Diamond","Star","Top","m",0.750152292,1,750.152292,"We","Group-Self"
"93",1,1,73,"Female",24,"r","h","Matching","We","EXPERIMENT","We","We","Triangle","Circle","Diamond","Star","Bottom","m",0.783519933,1,783.519933,"We","Group-Self"
"94",1,1,74,"Female",24,"r","h","Nonmatching","Self","EXPERIMENT","Self","We","Triangle","Circle","Diamond","Star","Bottom","m",0.65018123,0,650.18123,"Self","Self"
"95",1,1,75,"Female",24,"r","h","Nonmatching","They","EXPERIMENT","They","Self","Triangle","Circle","Diamond","Star","Top","n",0.733509728,1,733.509728,"They","Group-Stranger"
"96",1,1,76,"Female",24,"r","h","Nonmatching","We","EXPERIMENT","We","Self","Triangle","Circle","Diamond","Star","Bottom","n",0.883502838,1,883.502838,"We","Group-Self"
"97",1,1,77,"Female",24,"r","h","Nonmatching","We","EXPERIMENT","We","They","Triangle","Circle","Diamond","Star","Top","n",1.150209063,1,1150.209063,"We","Group-Self"
"98",1,1,78,"Female",24,"r","h","Matching","We","EXPERIMENT","We","We","Triangle","Circle","Diamond","Star","Bottom","m",0.733535784,1,733.535784,"We","Group-Self"
"99",1,1,79,"Female",24,"r","h","Nonmatching","You","EXPERIMENT","You","We","Triangle","Circle","Diamond","Star","Top","n",0.733522361,1,733.522361,"You","Stranger"
"100",1,1,80,"Female",24,"r","h","Matching","Self","EXPERIMENT","Self","Self","Triangle","Circle","Diamond","Star","Top","m",0.73349433,1,733.49433,"Self","Self"
"101",1,1,81,"Female",24,"r","h","Nonmatching","We","EXPERIMENT","We","You","Triangle","Circle","Diamond","Star","Top","n",1.250189995,1,1250.189995,"We","Group-Self"
"102",1,1,82,"Female",24,"r","h","Nonmatching","We","EXPERIMENT","We","They","Triangle","Circle","Diamond","Star","Bottom","n",0.800227244,1,800.227244,"We","Group-Self"
"103",1,1,83,"Female",24,"r","h","Matching","You","EXPERIMENT","You","You","Triangle","Circle","Diamond","Star","Bottom","m",0.700178802,1,700.178802,"You","Stranger"
"104",1,1,84,"Female",24,"r","h","Matching","They","EXPERIMENT","They","They","Triangle","Circle","Diamond","Star","Bottom","m",1.150137211,1,1150.137211,"They","Group-Stranger"
"105",1,1,85,"Female",24,"r","h","Nonmatching","We","EXPERIMENT","We","You","Triangle","Circle","Diamond","Star","Bottom","n",0.983296242,1,983.296242,"We","Group-Self"
"106",1,1,86,"Female",24,"r","h","Matching","Self","EXPERIMENT","Self","Self","Triangle","Circle","Diamond","Star","Top","m",0.683765614,1,683.765614,"Self","Self"
"107",1,1,87,"Female",24,"r","h","Nonmatching","They","EXPERIMENT","They","We","Triangle","Circle","Diamond","Star","Top","n",0.883496127,1,883.496127,"They","Group-Stranger"
"108",1,1,88,"Female",24,"r","h","Nonmatching","You","EXPERIMENT","You","We","Triangle","Circle","Diamond","Star","Bottom","n",0.733453667,1,733.453667,"You","Stranger"
"109",1,1,89,"Female",24,"r","h","Matching","Self","EXPERIMENT","Self","Self","Triangle","Circle","Diamond","Star","Top","m",0.716862426,1,716.862426,"Self","Self"
"110",1,1,90,"Female",24,"r","h","Matching","They","EXPERIMENT","They","They","Triangle","Circle","Diamond","Star","Top","m",1.000190291,1,1000.190291,"They","Group-Stranger"
"111",1,1,91,"Female",24,"r","h","Nonmatching","We","EXPERIMENT","We","Self","Triangle","Circle","Diamond","Star","Top","n",0.900155667,1,900.155667,"We","Group-Self"
"112",1,1,92,"Female",24,"r","h","Nonmatching","You","EXPERIMENT","You","They","Triangle","Circle","Diamond","Star","Bottom","n",0.983472321,1,983.472321,"You","Stranger"
"113",1,1,93,"Female",24,"r","h","Nonmatching","We","EXPERIMENT","We","They","Triangle","Circle","Diamond","Star","Bottom","n",1.266820321,1,1266.820321,"We","Group-Self"
"114",1,1,94,"Female",24,"r","h","Matching","They","EXPERIMENT","They","They","Triangle","Circle","Diamond","Star","Top","m",0.9001608,1,900.1608,"They","Group-Stranger"
"115",1,1,95,"Female",24,"r","h","Matching","Self","EXPERIMENT","Self","Self","Triangle","Circle","Diamond","Star","Bottom","m",0.833480394,1,833.480394,"Self","Self"
"116",1,1,96,"Female",24,"r","h","Matching","We","EXPERIMENT","We","We","Triangle","Circle","Diamond","Star","Top","m",1.033500687,1,1033.500687,"We","Group-Self"
"117",1,2,1,"Female",24,"r","h","Nonmatching","You","EXPERIMENT","You","They","Triangle","Circle","Diamond","Star","Bottom","None",NA,3,NA,"You","Stranger"
"118",1,2,2,"Female",24,"r","h","Matching","They","EXPERIMENT","They","They","Triangle","Circle","Diamond","Star","Bottom","m",0.916880744,1,916.880744,"They","Group-Stranger"
"119",1,2,3,"Female",24,"r","h","Nonmatching","Self","EXPERIMENT","Self","They","Triangle","Circle","Diamond","Star","Bottom","n",0.766889212,1,766.889212,"Self","Self"
"120",1,2,4,"Female",24,"r","h","Nonmatching","They","EXPERIMENT","They","You","Triangle","Circle","Diamond","Star","Top","n",0.733501832,1,733.501832,"They","Group-Stranger"
"121",1,2,5,"Female",24,"r","h","Nonmatching","You","EXPERIMENT","You","They","Triangle","Circle","Diamond","Star","Top","n",0.66688183,1,666.88183,"You","Stranger"
"122",1,2,6,"Female",24,"r","h","Nonmatching","You","EXPERIMENT","You","We","Triangle","Circle","Diamond","Star","Bottom","m",0.616838461,0,616.838461,"You","Stranger"
"123",1,2,7,"Female",24,"r","h","Matching","You","EXPERIMENT","You","You","Triangle","Circle","Diamond","Star","Top","m",0.950166268,1,950.166268,"You","Stranger"
"124",1,2,8,"Female",24,"r","h","Nonmatching","They","EXPERIMENT","They","We","Triangle","Circle","Diamond","Star","Bottom","n",0.683582034,1,683.582034,"They","Group-Stranger"
"125",1,2,9,"Female",24,"r","h","Nonmatching","Self","EXPERIMENT","Self","You","Triangle","Circle","Diamond","Star","Bottom","n",0.866831849,1,866.831849,"Self","Self"
"126",1,2,10,"Female",24,"r","h","Matching","We","EXPERIMENT","We","We","Triangle","Circle","Diamond","Star","Top","m",0.766828019,1,766.828019,"We","Group-Self"
"127",1,2,11,"Female",24,"r","h","Nonmatching","We","EXPERIMENT","We","You","Triangle","Circle","Diamond","Star","Top","n",0.700185514,1,700.185514,"We","Group-Self"
"128",1,2,12,"Female",24,"r","h","Matching","We","EXPERIMENT","We","We","Triangle","Circle","Diamond","Star","Bottom","m",1.533492198,1,1533.492198,"We","Group-Self"
"129",1,2,13,"Female",24,"r","h","Nonmatching","We","EXPERIMENT","We","Self","Triangle","Circle","Diamond","Star","Top","n",1.000156339,1,1000.156339,"We","Group-Self"
"130",1,2,14,"Female",24,"r","h","Matching","You","EXPERIMENT","You","You","Triangle","Circle","Diamond","Star","Bottom","m",0.816840593,1,816.840593,"You","Stranger"
"131",1,2,15,"Female",24,"r","h","Nonmatching","We","EXPERIMENT","We","You","Triangle","Circle","Diamond","Star","Bottom","n",0.900178171,1,900.178171,"We","Group-Self"
"132",1,2,16,"Female",24,"r","h","Nonmatching","They","EXPERIMENT","They","You","Triangle","Circle","Diamond","Star","Top","n",0.8168477,1,816.8477,"They","Group-Stranger"
"133",1,2,17,"Female",24,"r","h","Matching","You","EXPERIMENT","You","You","Triangle","Circle","Diamond","Star","Top","m",0.683554793,1,683.554793,"You","Stranger"
"134",1,2,18,"Female",24,"r","h","Matching","They","EXPERIMENT","They","They","Triangle","Circle","Diamond","Star","Top","n",0.816831908,0,816.831908,"They","Group-Stranger"
"135",1,2,19,"Female",24,"r","h","Nonmatching","Self","EXPERIMENT","Self","We","Triangle","Circle","Diamond","Star","Bottom","n",1.100158589,1,1100.158589,"Self","Self"
"136",1,2,20,"Female",24,"r","h","Nonmatching","Self","EXPERIMENT","Self","They","Triangle","Circle","Diamond","Star","Top","n",0.86685909,1,866.85909,"Self","Self"
"137",1,2,21,"Female",24,"r","h","Matching","We","EXPERIMENT","We","We","Triangle","Circle","Diamond","Star","Bottom","m",0.800162497,1,800.162497,"We","Group-Self"
"138",1,2,22,"Female",24,"r","h","Nonmatching","They","EXPERIMENT","They","Self","Triangle","Circle","Diamond","Star","Bottom","n",0.966858971,1,966.858971,"They","Group-Stranger"
"139",1,2,23,"Female",24,"r","h","Nonmatching","Self","EXPERIMENT","Self","You","Triangle","Circle","Diamond","Star","Top","n",0.81689468,1,816.89468,"Self","Self"
"140",1,2,24,"Female",24,"r","h","Matching","We","EXPERIMENT","We","We","Triangle","Circle","Diamond","Star","Bottom","m",0.75020322,1,750.20322,"We","Group-Self"
"141",1,2,25,"Female",24,"r","h","Nonmatching","We","EXPERIMENT","We","Self","Triangle","Circle","Diamond","Star","Bottom","n",0.733487224,1,733.487224,"We","Group-Self"
"142",1,2,26,"Female",24,"r","h","Matching","They","EXPERIMENT","They","They","Triangle","Circle","Diamond","Star","Top","m",1.083502601,1,1083.502601,"They","Group-Stranger"
"143",1,2,27,"Female",24,"r","h","Nonmatching","They","EXPERIMENT","They","Self","Triangle","Circle","Diamond","Star","Top","n",0.716819393,1,716.819393,"They","Group-Stranger"
"144",1,2,28,"Female",24,"r","h","Matching","Self","EXPERIMENT","Self","Self","Triangle","Circle","Diamond","Star","Bottom","m",0.700262894,1,700.262894,"Self","Self"
"145",1,2,29,"Female",24,"r","h","Matching","They","EXPERIMENT","They","They","Triangle","Circle","Diamond","Star","Top","m",0.833474472,1,833.474472,"They","Group-Stranger"
"146",1,2,30,"Female",24,"r","h","Matching","Self","EXPERIMENT","Self","Self","Triangle","Circle","Diamond","Star","Top","m",0.733508148,1,733.508148,"Self","Self"
"147",1,2,31,"Female",24,"r","h","Matching","We","EXPERIMENT","We","We","Triangle","Circle","Diamond","Star","Bottom","m",0.566908794,1,566.908794,"We","Group-Self"
"148",1,2,32,"Female",24,"r","h","Matching","You","EXPERIMENT","You","You","Triangle","Circle","Diamond","Star","Top","m",0.750166505,1,750.166505,"You","Stranger"
"149",1,2,33,"Female",24,"r","h","Nonmatching","You","EXPERIMENT","You","Self","Triangle","Circle","Diamond","Star","Top","n",0.833483553,1,833.483553,"You","Stranger"
"150",1,2,34,"Female",24,"r","h","Nonmatching","You","EXPERIMENT","You","They","Triangle","Circle","Diamond","Star","Bottom","n",0.983514564,1,983.514564,"You","Stranger"
"151",1,2,35,"Female",24,"r","h","Nonmatching","We","EXPERIMENT","We","Self","Triangle","Circle","Diamond","Star","Top","m",0.866844087,0,866.844087,"We","Group-Self"
"152",1,2,36,"Female",24,"r","h","Matching","We","EXPERIMENT","We","We","Triangle","Circle","Diamond","Star","Bottom","m",0.733434322,1,733.434322,"We","Group-Self"
"153",1,2,37,"Female",24,"r","h","Matching","Self","EXPERIMENT","Self","Self","Triangle","Circle","Diamond","Star","Bottom","m",0.800159734,1,800.159734,"Self","Self"
"154",1,2,38,"Female",24,"r","h","Matching","We","EXPERIMENT","We","We","Triangle","Circle","Diamond","Star","Top","m",0.800192502,1,800.192502,"We","Group-Self"
"155",1,2,39,"Female",24,"r","h","Matching","We","EXPERIMENT","We","We","Triangle","Circle","Diamond","Star","Top","m",0.633518137,1,633.518137,"We","Group-Self"
"156",1,2,40,"Female",24,"r","h","Nonmatching","They","EXPERIMENT","They","We","Triangle","Circle","Diamond","Star","Bottom","n",0.983499562,1,983.499562,"They","Group-Stranger"
"157",1,2,41,"Female",24,"r","h","Nonmatching","Self","EXPERIMENT","Self","You","Triangle","Circle","Diamond","Star","Bottom","n",1.016799298,1,1016.799298,"Self","Self"
"158",1,2,42,"Female",24,"r","h","Matching","You","EXPERIMENT","You","You","Triangle","Circle","Diamond","Star","Bottom","m",0.950186797,1,950.186797,"You","Stranger"
"159",1,2,43,"Female",24,"r","h","Nonmatching","We","EXPERIMENT","We","They","Triangle","Circle","Diamond","Star","Bottom","n",0.950175743,1,950.175743,"We","Group-Self"
"160",1,2,44,"Female",24,"r","h","Matching","We","EXPERIMENT","We","We","Triangle","Circle","Diamond","Star","Bottom","m",0.71683479,1,716.83479,"We","Group-Self"
"161",1,2,45,"Female",24,"r","h","Nonmatching","Self","EXPERIMENT","Self","We","Triangle","Circle","Diamond","Star","Top","n",0.783495456,1,783.495456,"Self","Self"
"162",1,2,46,"Female",24,"r","h","Matching","We","EXPERIMENT","We","We","Triangle","Circle","Diamond","Star","Top","m",1.083431933,1,1083.431933,"We","Group-Self"
"163",1,2,47,"Female",24,"r","h","Nonmatching","We","EXPERIMENT","We","They","Triangle","Circle","Diamond","Star","Top","n",0.716926777,1,716.926777,"We","Group-Self"
"164",1,2,48,"Female",24,"r","h","Matching","Self","EXPERIMENT","Self","Self","Triangle","Circle","Diamond","Star","Bottom","m",0.650163465,1,650.163465,"Self","Self"
"165",1,2,49,"Female",24,"r","h","Matching","We","EXPERIMENT","We","We","Triangle","Circle","Diamond","Star","Top","m",0.783535725,1,783.535725,"We","Group-Self"
"166",1,2,50,"Female",24,"r","h","Matching","You","EXPERIMENT","You","You","Triangle","Circle","Diamond","Star","Bottom","n",1.116831553,0,1116.831553,"You","Stranger"
"167",1,2,51,"Female",24,"r","h","Nonmatching","Self","EXPERIMENT","Self","They","Triangle","Circle","Diamond","Star","Bottom","n",1.000161866,1,1000.161866,"Self","Self"
"168",1,2,52,"Female",24,"r","h","Nonmatching","You","EXPERIMENT","You","Self","Triangle","Circle","Diamond","Star","Bottom","n",1.000189896,1,1000.189896,"You","Stranger"
"169",1,2,53,"Female",24,"r","h","Nonmatching","They","EXPERIMENT","They","You","Triangle","Circle","Diamond","Star","Bottom","n",1.266828217,1,1266.828217,"They","Group-Stranger"
"170",1,2,54,"Female",24,"r","h","Matching","You","EXPERIMENT","You","You","Triangle","Circle","Diamond","Star","Top","m",0.783479664,1,783.479664,"You","Stranger"
"171",1,2,55,"Female",24,"r","h","Matching","They","EXPERIMENT","They","They","Triangle","Circle","Diamond","Star","Bottom","n",0.81682875,0,816.82875,"They","Group-Stranger"
"172",1,2,56,"Female",24,"r","h","Nonmatching","Self","EXPERIMENT","Self","We","Triangle","Circle","Diamond","Star","Top","n",0.9668416,1,966.8416,"Self","Self"
"173",1,2,57,"Female",24,"r","h","Matching","You","EXPERIMENT","You","You","Triangle","Circle","Diamond","Star","Bottom","m",0.750177164,1,750.177164,"You","Stranger"
"174",1,2,58,"Female",24,"r","h","Matching","Self","EXPERIMENT","Self","Self","Triangle","Circle","Diamond","Star","Top","m",0.633516952,1,633.516952,"Self","Self"
"175",1,2,59,"Female",24,"r","h","Matching","Self","EXPERIMENT","Self","Self","Triangle","Circle","Diamond","Star","Top","m",0.616845568,1,616.845568,"Self","Self"
"176",1,2,60,"Female",24,"r","h","Nonmatching","We","EXPERIMENT","We","They","Triangle","Circle","Diamond","Star","Top","n",1.000154365,1,1000.154365,"We","Group-Self"
"177",1,2,61,"Female",24,"r","h","Matching","Self","EXPERIMENT","Self","Self","Triangle","Circle","Diamond","Star","Bottom","m",0.716871111,1,716.871111,"Self","Self"
"178",1,2,62,"Female",24,"r","h","Matching","They","EXPERIMENT","They","They","Triangle","Circle","Diamond","Star","Top","m",0.900211334,1,900.211334,"They","Group-Stranger"
"179",1,2,63,"Female",24,"r","h","Matching","You","EXPERIMENT","You","You","Triangle","Circle","Diamond","Star","Top","m",0.716866768,1,716.866768,"You","Stranger"
"180",1,2,64,"Female",24,"r","h","Nonmatching","We","EXPERIMENT","We","They","Triangle","Circle","Diamond","Star","Bottom","n",0.733483276,1,733.483276,"We","Group-Self"
"181",1,2,65,"Female",24,"r","h","Nonmatching","We","EXPERIMENT","We","Self","Triangle","Circle","Diamond","Star","Bottom","n",0.833507635,1,833.507635,"We","Group-Self"
"182",1,2,66,"Female",24,"r","h","Nonmatching","They","EXPERIMENT","They","We","Triangle","Circle","Diamond","Star","Top","n",0.750166505,1,750.166505,"They","Group-Stranger"
"183",1,2,67,"Female",24,"r","h","Nonmatching","You","EXPERIMENT","You","Self","Triangle","Circle","Diamond","Star","Bottom","n",0.850184547,1,850.184547,"You","Stranger"
"184",1,2,68,"Female",24,"r","h","Nonmatching","They","EXPERIMENT","They","We","Triangle","Circle","Diamond","Star","Top","m",0.733518413,0,733.518413,"They","Group-Stranger"
"185",1,2,69,"Female",24,"r","h","Matching","They","EXPERIMENT","They","They","Triangle","Circle","Diamond","Star","Bottom","m",0.900189225,1,900.189225,"They","Group-Stranger"
"186",1,2,70,"Female",24,"r","h","Matching","Self","EXPERIMENT","Self","Self","Triangle","Circle","Diamond","Star","Top","m",0.700156694,1,700.156694,"Self","Self"
"187",1,2,71,"Female",24,"r","h","Nonmatching","Self","EXPERIMENT","Self","They","Triangle","Circle","Diamond","Star","Top","n",0.866879619,1,866.879619,"Self","Self"
"188",1,2,72,"Female",24,"r","h","Nonmatching","You","EXPERIMENT","You","We","Triangle","Circle","Diamond","Star","Top","n",0.916864163,1,916.864163,"You","Stranger"
"189",1,2,73,"Female",24,"r","h","Nonmatching","We","EXPERIMENT","We","You","Triangle","Circle","Diamond","Star","Bottom","n",0.900151325,1,900.151325,"We","Group-Self"
"190",1,2,74,"Female",24,"r","h","Matching","They","EXPERIMENT","They","They","Triangle","Circle","Diamond","Star","Bottom","m",0.933513044,1,933.513044,"They","Group-Stranger"
"191",1,2,75,"Female",24,"r","h","Matching","You","EXPERIMENT","You","You","Triangle","Circle","Diamond","Star","Top","m",0.883540344,1,883.540344,"You","Stranger"
"192",1,2,76,"Female",24,"r","h","Matching","Self","EXPERIMENT","Self","Self","Triangle","Circle","Diamond","Star","Bottom","m",0.6168507,1,616.8507,"Self","Self"
"193",1,2,77,"Female",24,"r","h","Matching","You","EXPERIMENT","You","You","Triangle","Circle","Diamond","Star","Bottom","m",0.750151897,1,750.151897,"You","Stranger"
"194",1,2,78,"Female",24,"r","h","Matching","Self","EXPERIMENT","Self","Self","Triangle","Circle","Diamond","Star","Top","m",0.666850641,1,666.850641,"Self","Self"
"195",1,2,79,"Female",24,"r","h","Nonmatching","You","EXPERIMENT","You","Self","Triangle","Circle","Diamond","Star","Top","n",0.733491172,1,733.491172,"You","Stranger"
"196",1,2,80,"Female",24,"r","h","Nonmatching","Self","EXPERIMENT","Self","We","Triangle","Circle","Diamond","Star","Bottom","n",0.966852654,1,966.852654,"Self","Self"
"197",1,2,81,"Female",24,"r","h","Nonmatching","Self","EXPERIMENT","Self","You","Triangle","Circle","Diamond","Star","Top","n",0.850185336,1,850.185336,"Self","Self"
"198",1,2,82,"Female",24,"r","h","Matching","Self","EXPERIMENT","Self","Self","Triangle","Circle","Diamond","Star","Top","m",1.050159043,1,1050.159043,"Self","Self"
"199",1,2,83,"Female",24,"r","h","Matching","Self","EXPERIMENT","Self","Self","Triangle","Circle","Diamond","Star","Bottom","m",1.333502305,1,1333.502305,"Self","Self"
"200",1,2,84,"Female",24,"r","h","Nonmatching","They","EXPERIMENT","They","You","Triangle","Circle","Diamond","Star","Bottom","n",0.766858813,1,766.858813,"They","Group-Stranger"
"201",1,2,85,"Female",24,"r","h","Matching","We","EXPERIMENT","We","We","Triangle","Circle","Diamond","Star","Top","m",0.783482822,1,783.482822,"We","Group-Self"
"202",1,2,86,"Female",24,"r","h","Nonmatching","They","EXPERIMENT","They","Self","Triangle","Circle","Diamond","Star","Bottom","n",0.683537028,1,683.537028,"They","Group-Stranger"
"203",1,2,87,"Female",24,"r","h","Nonmatching","You","EXPERIMENT","You","We","Triangle","Circle","Diamond","Star","Bottom","n",0.883498496,1,883.498496,"You","Stranger"
"204",1,2,88,"Female",24,"r","h","Nonmatching","They","EXPERIMENT","They","Self","Triangle","Circle","Diamond","Star","Top","n",0.733505385,1,733.505385,"They","Group-Stranger"
"205",1,2,89,"Female",24,"r","h","Nonmatching","You","EXPERIMENT","You","We","Triangle","Circle","Diamond","Star","Top","n",1.000160682,1,1000.160682,"You","Stranger"
"206",1,2,90,"Female",24,"r","h","Matching","They","EXPERIMENT","They","They","Triangle","Circle","Diamond","Star","Top","m",1.050147594,1,1050.147594,"They","Group-Stranger"
"207",1,2,91,"Female",24,"r","h","Nonmatching","You","EXPERIMENT","You","They","Triangle","Circle","Diamond","Star","Top","n",0.900182119,1,900.182119,"You","Stranger"
"208",1,2,92,"Female",24,"r","h","Matching","They","EXPERIMENT","They","They","Triangle","Circle","Diamond","Star","Bottom","n",0.883495732,0,883.495732,"They","Group-Stranger"
"209",1,2,93,"Female",24,"r","h","Nonmatching","We","EXPERIMENT","We","You","Triangle","Circle","Diamond","Star","Top","n",1.233481894,1,1233.481894,"We","Group-Self"
"210",1,2,94,"Female",24,"r","h","Matching","They","EXPERIMENT","They","They","Triangle","Circle","Diamond","Star","Top","m",0.866836981,1,866.836981,"They","Group-Stranger"
"211",1,2,95,"Female",24,"r","h","Matching","They","EXPERIMENT","They","They","Triangle","Circle","Diamond","Star","Bottom","None",NA,3,NA,"They","Group-Stranger"
"212",1,2,96,"Female",24,"r","h","Matching","You","EXPERIMENT","You","You","Triangle","Circle","Diamond","Star","Bottom","m",0.73353381,1,733.53381,"You","Stranger"
"213",1,3,1,"Female",24,"r","h","Nonmatching","Self","EXPERIMENT","Self","You","Triangle","Circle","Diamond","Star","Bottom","n",0.850192443,1,850.192443,"Self","Self"
"214",1,3,2,"Female",24,"r","h","Matching","They","EXPERIMENT","They","They","Triangle","Circle","Diamond","Star","Bottom","m",0.716824525,1,716.824525,"They","Group-Stranger"
"215",1,3,3,"Female",24,"r","h","Matching","You","EXPERIMENT","You","You","Triangle","Circle","Diamond","Star","Bottom","m",0.600191159,1,600.191159,"You","Stranger"
"216",1,3,4,"Female",24,"r","h","Nonmatching","They","EXPERIMENT","They","You","Triangle","Circle","Diamond","Star","Bottom","n",0.71681505,1,716.81505,"They","Group-Stranger"
"217",1,3,5,"Female",24,"r","h","Nonmatching","You","EXPERIMENT","You","Self","Triangle","Circle","Diamond","Star","Top","n",1.03349437,1,1033.49437,"You","Stranger"
"218",1,3,6,"Female",24,"r","h","Matching","You","EXPERIMENT","You","You","Triangle","Circle","Diamond","Star","Bottom","m",1.016835619,1,1016.835619,"You","Stranger"
"219",1,3,7,"Female",24,"r","h","Matching","They","EXPERIMENT","They","They","Triangle","Circle","Diamond","Star","Top","m",0.616890969,1,616.890969,"They","Group-Stranger"
"220",1,3,8,"Female",24,"r","h","Matching","They","EXPERIMENT","They","They","Triangle","Circle","Diamond","Star","Top","m",0.900166722,1,900.166722,"They","Group-Stranger"
"221",1,3,9,"Female",24,"r","h","Nonmatching","They","EXPERIMENT","They","Self","Triangle","Circle","Diamond","Star","Bottom","n",0.733536179,1,733.536179,"They","Group-Stranger"
"222",1,3,10,"Female",24,"r","h","Nonmatching","Self","EXPERIMENT","Self","They","Triangle","Circle","Diamond","Star","Top","n",0.816835461,1,816.835461,"Self","Self"
"223",1,3,11,"Female",24,"r","h","Matching","Self","EXPERIMENT","Self","Self","Triangle","Circle","Diamond","Star","Top","m",0.616837277,1,616.837277,"Self","Self"
"224",1,3,12,"Female",24,"r","h","Nonmatching","They","EXPERIMENT","They","Self","Triangle","Circle","Diamond","Star","Top","n",0.633651183,1,633.651183,"They","Group-Stranger"
"225",1,3,13,"Female",24,"r","h","Nonmatching","Self","EXPERIMENT","Self","We","Triangle","Circle","Diamond","Star","Bottom","m",0.816638459,0,816.638459,"Self","Self"
"226",1,3,14,"Female",24,"r","h","Matching","Self","EXPERIMENT","Self","Self","Triangle","Circle","Diamond","Star","Top","m",0.666839982,1,666.839982,"Self","Self"
"227",1,3,15,"Female",24,"r","h","Nonmatching","You","EXPERIMENT","You","We","Triangle","Circle","Diamond","Star","Bottom","n",0.766838284,1,766.838284,"You","Stranger"
"228",1,3,16,"Female",24,"r","h","Nonmatching","You","EXPERIMENT","You","We","Triangle","Circle","Diamond","Star","Top","n",0.6834936,1,683.4936,"You","Stranger"
"229",1,3,17,"Female",24,"r","h","Nonmatching","They","EXPERIMENT","They","We","Triangle","Circle","Diamond","Star","Top","n",0.966827387,1,966.827387,"They","Group-Stranger"
"230",1,3,18,"Female",24,"r","h","Matching","We","EXPERIMENT","We","We","Triangle","Circle","Diamond","Star","Top","m",0.716813471,1,716.813471,"We","Group-Self"
"231",1,3,19,"Female",24,"r","h","Nonmatching","You","EXPERIMENT","You","They","Triangle","Circle","Diamond","Star","Bottom","n",0.750198088,1,750.198088,"You","Stranger"
"232",1,3,20,"Female",24,"r","h","Matching","We","EXPERIMENT","We","We","Triangle","Circle","Diamond","Star","Top","m",0.78350651,1,783.50651,"We","Group-Self"
"233",1,3,21,"Female",24,"r","h","Nonmatching","They","EXPERIMENT","They","You","Triangle","Circle","Diamond","Star","Top","n",0.933475933,1,933.475933,"They","Group-Stranger"
"234",1,3,22,"Female",24,"r","h","Matching","Self","EXPERIMENT","Self","Self","Triangle","Circle","Diamond","Star","Top","m",0.633546167,1,633.546167,"Self","Self"
"235",1,3,23,"Female",24,"r","h","Matching","We","EXPERIMENT","We","We","Triangle","Circle","Diamond","Star","Top","m",0.683674416,1,683.674416,"We","Group-Self"
"236",1,3,24,"Female",24,"r","h","Nonmatching","Self","EXPERIMENT","Self","You","Triangle","Circle","Diamond","Star","Bottom","n",0.750193746,1,750.193746,"Self","Self"
"237",1,3,25,"Female",24,"r","h","Nonmatching","We","EXPERIMENT","We","They","Triangle","Circle","Diamond","Star","Bottom","n",1.133488724,1,1133.488724,"We","Group-Self"
"238",1,3,26,"Female",24,"r","h","Nonmatching","You","EXPERIMENT","You","They","Triangle","Circle","Diamond","Star","Top","n",0.950198641,1,950.198641,"You","Stranger"
"239",1,3,27,"Female",24,"r","h","Nonmatching","We","EXPERIMENT","We","They","Triangle","Circle","Diamond","Star","Bottom","n",0.983485744,1,983.485744,"We","Group-Self"
"240",1,3,28,"Female",24,"r","h","Nonmatching","They","EXPERIMENT","They","We","Triangle","Circle","Diamond","Star","Bottom","n",0.700162616,1,700.162616,"They","Group-Stranger"
"241",1,3,29,"Female",24,"r","h","Matching","We","EXPERIMENT","We","We","Triangle","Circle","Diamond","Star","Top","m",0.700167748,1,700.167748,"We","Group-Self"
"242",1,3,30,"Female",24,"r","h","Nonmatching","Self","EXPERIMENT","Self","We","Triangle","Circle","Diamond","Star","Top","n",0.900152509,1,900.152509,"Self","Self"
"243",1,3,31,"Female",24,"r","h","Matching","You","EXPERIMENT","You","You","Triangle","Circle","Diamond","Star","Top","m",0.783518749,1,783.518749,"You","Stranger"
"244",1,3,32,"Female",24,"r","h","Nonmatching","They","EXPERIMENT","They","Self","Triangle","Circle","Diamond","Star","Top","n",0.666892489,1,666.892489,"They","Group-Stranger"
"245",1,3,33,"Female",24,"r","h","Matching","They","EXPERIMENT","They","They","Triangle","Circle","Diamond","Star","Top","m",0.766840653,1,766.840653,"They","Group-Stranger"
"246",1,3,34,"Female",24,"r","h","Matching","Self","EXPERIMENT","Self","Self","Triangle","Circle","Diamond","Star","Bottom","m",0.683483335,1,683.483335,"Self","Self"
"247",1,3,35,"Female",24,"r","h","Matching","They","EXPERIMENT","They","They","Triangle","Circle","Diamond","Star","Top","m",0.616806483,1,616.806483,"They","Group-Stranger"
"248",1,3,36,"Female",24,"r","h","Matching","You","EXPERIMENT","You","You","Triangle","Circle","Diamond","Star","Top","m",0.666827743,1,666.827743,"You","Stranger"
"249",1,3,37,"Female",24,"r","h","Nonmatching","They","EXPERIMENT","They","We","Triangle","Circle","Diamond","Star","Bottom","n",0.650198601,1,650.198601,"They","Group-Stranger"
"250",1,3,38,"Female",24,"r","h","Matching","You","EXPERIMENT","You","You","Triangle","Circle","Diamond","Star","Bottom","m",0.700175644,1,700.175644,"You","Stranger"
"251",1,3,39,"Female",24,"r","h","Nonmatching","Self","EXPERIMENT","Self","They","Triangle","Circle","Diamond","Star","Bottom","n",0.766833546,1,766.833546,"Self","Self"
"252",1,3,40,"Female",24,"r","h","Matching","You","EXPERIMENT","You","You","Triangle","Circle","Diamond","Star","Bottom","m",0.900210149,1,900.210149,"You","Stranger"
"253",1,3,41,"Female",24,"r","h","Nonmatching","They","EXPERIMENT","They","Self","Triangle","Circle","Diamond","Star","Bottom","n",0.633479447,1,633.479447,"They","Group-Stranger"
"254",1,3,42,"Female",24,"r","h","Matching","Self","EXPERIMENT","Self","Self","Triangle","Circle","Diamond","Star","Bottom","m",0.616861754,1,616.861754,"Self","Self"
"255",1,3,43,"Female",24,"r","h","Nonmatching","We","EXPERIMENT","We","You","Triangle","Circle","Diamond","Star","Top","n",0.716811892,1,716.811892,"We","Group-Self"
"256",1,3,44,"Female",24,"r","h","Nonmatching","We","EXPERIMENT","We","Self","Triangle","Circle","Diamond","Star","Bottom","n",0.800134467,1,800.134467,"We","Group-Self"
"257",1,3,45,"Female",24,"r","h","Matching","Self","EXPERIMENT","Self","Self","Triangle","Circle","Diamond","Star","Bottom","m",0.63352169,1,633.52169,"Self","Self"
"258",1,3,46,"Female",24,"r","h","Matching","They","EXPERIMENT","They","They","Triangle","Circle","Diamond","Star","Bottom","n",0.900152509,0,900.152509,"They","Group-Stranger"
"259",1,3,47,"Female",24,"r","h","Nonmatching","Self","EXPERIMENT","Self","They","Triangle","Circle","Diamond","Star","Top","n",0.833512373,1,833.512373,"Self","Self"
"260",1,3,48,"Female",24,"r","h","Matching","We","EXPERIMENT","We","We","Triangle","Circle","Diamond","Star","Top","m",0.633486948,1,633.486948,"We","Group-Self"
"261",1,3,49,"Female",24,"r","h","Matching","You","EXPERIMENT","You","You","Triangle","Circle","Diamond","Star","Top","m",0.850260347,1,850.260347,"You","Stranger"
"262",1,3,50,"Female",24,"r","h","Matching","They","EXPERIMENT","They","They","Triangle","Circle","Diamond","Star","Bottom","m",0.85017823,1,850.17823,"They","Group-Stranger"
"263",1,3,51,"Female",24,"r","h","Matching","You","EXPERIMENT","You","You","Triangle","Circle","Diamond","Star","Top","m",0.866831454,1,866.831454,"You","Stranger"
"264",1,3,52,"Female",24,"r","h","Nonmatching","We","EXPERIMENT","We","You","Triangle","Circle","Diamond","Star","Bottom","n",0.816831513,1,816.831513,"We","Group-Self"
"265",1,3,53,"Female",24,"r","h","Matching","Self","EXPERIMENT","Self","Self","Triangle","Circle","Diamond","Star","Bottom","m",0.616827013,1,616.827013,"Self","Self"
"266",1,3,54,"Female",24,"r","h","Nonmatching","We","EXPERIMENT","We","Self","Triangle","Circle","Diamond","Star","Top","n",0.683526763,1,683.526763,"We","Group-Self"
"267",1,3,55,"Female",24,"r","h","Matching","We","EXPERIMENT","We","We","Triangle","Circle","Diamond","Star","Top","m",0.666819847,1,666.819847,"We","Group-Self"
"268",1,3,56,"Female",24,"r","h","Matching","We","EXPERIMENT","We","We","Triangle","Circle","Diamond","Star","Bottom","m",0.666843535,1,666.843535,"We","Group-Self"
"269",1,3,57,"Female",24,"r","h","Nonmatching","Self","EXPERIMENT","Self","You","Triangle","Circle","Diamond","Star","Top","n",0.866639584,1,866.639584,"Self","Self"
"270",1,3,58,"Female",24,"r","h","Nonmatching","You","EXPERIMENT","You","They","Triangle","Circle","Diamond","Star","Bottom","m",0.683526763,0,683.526763,"You","Stranger"
"271",1,3,59,"Female",24,"r","h","Matching","We","EXPERIMENT","We","We","Triangle","Circle","Diamond","Star","Bottom","m",0.66685222,1,666.85222,"We","Group-Self"
"272",1,3,60,"Female",24,"r","h","Matching","They","EXPERIMENT","They","They","Triangle","Circle","Diamond","Star","Bottom","m",0.883489021,1,883.489021,"They","Group-Stranger"
"273",1,3,61,"Female",24,"r","h","Matching","You","EXPERIMENT","You","You","Triangle","Circle","Diamond","Star","Top","m",0.900222783,1,900.222783,"You","Stranger"
"274",1,3,62,"Female",24,"r","h","Nonmatching","We","EXPERIMENT","We","They","Triangle","Circle","Diamond","Star","Top","n",0.716831237,1,716.831237,"We","Group-Self"
"275",1,3,63,"Female",24,"r","h","Matching","We","EXPERIMENT","We","We","Triangle","Circle","Diamond","Star","Bottom","m",0.866793554,1,866.793554,"We","Group-Self"
"276",1,3,64,"Female",24,"r","h","Nonmatching","You","EXPERIMENT","You","Self","Triangle","Circle","Diamond","Star","Bottom","n",0.900161195,1,900.161195,"You","Stranger"
"277",1,3,65,"Female",24,"r","h","Nonmatching","You","EXPERIMENT","You","Self","Triangle","Circle","Diamond","Star","Top","n",0.766832362,1,766.832362,"You","Stranger"
"278",1,3,66,"Female",24,"r","h","Nonmatching","Self","EXPERIMENT","Self","You","Triangle","Circle","Diamond","Star","Top","n",0.933497252,1,933.497252,"Self","Self"
"279",1,3,67,"Female",24,"r","h","Matching","They","EXPERIMENT","They","They","Triangle","Circle","Diamond","Star","Top","m",0.90016988,1,900.16988,"They","Group-Stranger"
"280",1,3,68,"Female",24,"r","h","Matching","Self","EXPERIMENT","Self","Self","Triangle","Circle","Diamond","Star","Top","m",0.616860175,1,616.860175,"Self","Self"
"281",1,3,69,"Female",24,"r","h","Nonmatching","They","EXPERIMENT","They","You","Triangle","Circle","Diamond","Star","Bottom","n",0.991528104,1,991.528104,"They","Group-Stranger"
"282",1,3,70,"Female",24,"r","h","Matching","We","EXPERIMENT","We","We","Triangle","Circle","Diamond","Star","Bottom","m",0.750152292,1,750.152292,"We","Group-Self"
"283",1,3,71,"Female",24,"r","h","Matching","Self","EXPERIMENT","Self","Self","Triangle","Circle","Diamond","Star","Bottom","m",0.633498397,1,633.498397,"Self","Self"
"284",1,3,72,"Female",24,"r","h","Nonmatching","You","EXPERIMENT","You","We","Triangle","Circle","Diamond","Star","Bottom","n",0.933496462,1,933.496462,"You","Stranger"
"285",1,3,73,"Female",24,"r","h","Matching","You","EXPERIMENT","You","You","Triangle","Circle","Diamond","Star","Top","m",0.833500134,1,833.500134,"You","Stranger"
"286",1,3,74,"Female",24,"r","h","Nonmatching","They","EXPERIMENT","They","We","Triangle","Circle","Diamond","Star","Top","n",0.866874487,1,866.874487,"They","Group-Stranger"
"287",1,3,75,"Female",24,"r","h","Matching","You","EXPERIMENT","You","You","Triangle","Circle","Diamond","Star","Bottom","m",0.800194476,1,800.194476,"You","Stranger"
"288",1,3,76,"Female",24,"r","h","Matching","They","EXPERIMENT","They","They","Triangle","Circle","Diamond","Star","Top","m",0.783504536,1,783.504536,"They","Group-Stranger"
"289",1,3,77,"Female",24,"r","h","Nonmatching","You","EXPERIMENT","You","Self","Triangle","Circle","Diamond","Star","Bottom","n",0.700182355,1,700.182355,"You","Stranger"
"290",1,3,78,"Female",24,"r","h","Nonmatching","They","EXPERIMENT","They","You","Triangle","Circle","Diamond","Star","Top","n",0.933515413,1,933.515413,"They","Group-Stranger"
"291",1,3,79,"Female",24,"r","h","Matching","We","EXPERIMENT","We","We","Triangle","Circle","Diamond","Star","Bottom","m",0.733496304,1,733.496304,"We","Group-Self"
"292",1,3,80,"Female",24,"r","h","Matching","You","EXPERIMENT","You","You","Triangle","Circle","Diamond","Star","Bottom","n",0.833519874,0,833.519874,"You","Stranger"
"293",1,3,81,"Female",24,"r","h","Matching","Self","EXPERIMENT","Self","Self","Triangle","Circle","Diamond","Star","Bottom","m",0.76687579,1,766.87579,"Self","Self"
"294",1,3,82,"Female",24,"r","h","Matching","They","EXPERIMENT","They","They","Triangle","Circle","Diamond","Star","Bottom","m",0.733540916,1,733.540916,"They","Group-Stranger"
"295",1,3,83,"Female",24,"r","h","Nonmatching","Self","EXPERIMENT","Self","They","Triangle","Circle","Diamond","Star","Bottom","n",0.883505602,1,883.505602,"Self","Self"
"296",1,3,84,"Female",24,"r","h","Matching","Self","EXPERIMENT","Self","Self","Triangle","Circle","Diamond","Star","Top","m",0.55016003,1,550.16003,"Self","Self"
"297",1,3,85,"Female",24,"r","h","Nonmatching","Self","EXPERIMENT","Self","We","Triangle","Circle","Diamond","Star","Top","n",0.700175249,1,700.175249,"Self","Self"
"298",1,3,86,"Female",24,"r","h","Matching","We","EXPERIMENT","We","We","Triangle","Circle","Diamond","Star","Bottom","m",0.666842745,1,666.842745,"We","Group-Self"
"299",1,3,87,"Female",24,"r","h","Nonmatching","We","EXPERIMENT","We","You","Triangle","Circle","Diamond","Star","Top","n",1.01682496,1,1016.82496,"We","Group-Self"
"300",1,3,88,"Female",24,"r","h","Nonmatching","We","EXPERIMENT","We","You","Triangle","Circle","Diamond","Star","Bottom","n",0.833489869,1,833.489869,"We","Group-Self"
"301",1,3,89,"Female",24,"r","h","Matching","They","EXPERIMENT","They","They","Triangle","Circle","Diamond","Star","Bottom","m",0.816814932,1,816.814932,"They","Group-Stranger"
"302",1,3,90,"Female",24,"r","h","Nonmatching","You","EXPERIMENT","You","We","Triangle","Circle","Diamond","Star","Top","n",0.833490264,1,833.490264,"You","Stranger"
"303",1,3,91,"Female",24,"r","h","Nonmatching","We","EXPERIMENT","We","Self","Triangle","Circle","Diamond","Star","Bottom","n",0.783477295,1,783.477295,"We","Group-Self"
"304",1,3,92,"Female",24,"r","h","Nonmatching","Self","EXPERIMENT","Self","We","Triangle","Circle","Diamond","Star","Bottom","n",0.850171519,1,850.171519,"Self","Self"
"305",1,3,93,"Female",24,"r","h","Nonmatching","You","EXPERIMENT","You","They","Triangle","Circle","Diamond","Star","Top","n",0.850166781,1,850.166781,"You","Stranger"
"306",1,3,94,"Female",24,"r","h","Nonmatching","We","EXPERIMENT","We","They","Triangle","Circle","Diamond","Star","Top","n",0.933513439,1,933.513439,"We","Group-Self"
"307",1,3,95,"Female",24,"r","h","Matching","Self","EXPERIMENT","Self","Self","Triangle","Circle","Diamond","Star","Top","m",0.700199727,1,700.199727,"Self","Self"
"308",1,3,96,"Female",24,"r","h","Nonmatching","We","EXPERIMENT","We","Self","Triangle","Circle","Diamond","Star","Top","n",0.800160129,1,800.160129,"We","Group-Self"
"309",2,0,1,"Female",21,"r","h","Nonmatching","We","TRAINING","We","They","Diamond","Circle","Triangle","Star","Bottom","None",NA,3,NA,"We","Group-Self"
"310",2,0,2,"Female",21,"r","h","Nonmatching","They","TRAINING","They","Self","Diamond","Circle","Triangle","Star","Top","m",1.63344352,1,1633.44352,"They","Group-Stranger"
"311",2,0,3,"Female",21,"r","h","Nonmatching","You","TRAINING","You","They","Diamond","Circle","Triangle","Star","Top","m",0.816797166,1,816.797166,"You","Stranger"
"312",2,0,4,"Female",21,"r","h","Matching","They","TRAINING","They","They","Diamond","Circle","Triangle","Star","Top","n",1.066798449,1,1066.798449,"They","Group-Stranger"
"313",2,0,5,"Female",21,"r","h","Nonmatching","Self","TRAINING","Self","They","Diamond","Circle","Triangle","Star","Top","m",0.750163346,1,750.163346,"Self","Self"
"314",2,0,6,"Female",21,"r","h","Matching","We","TRAINING","We","We","Diamond","Circle","Triangle","Star","Bottom","n",1.133469774,1,1133.469774,"We","Group-Self"
"315",2,0,7,"Female",21,"r","h","Nonmatching","Self","TRAINING","Self","We","Diamond","Circle","Triangle","Star","Bottom","m",0.766876184,1,766.876184,"Self","Self"
"316",2,0,8,"Female",21,"r","h","Nonmatching","They","TRAINING","They","You","Diamond","Circle","Triangle","Star","Bottom","m",0.900198305,1,900.198305,"They","Group-Stranger"
"317",2,0,9,"Female",21,"r","h","Matching","Self","TRAINING","Self","Self","Diamond","Circle","Triangle","Star","Bottom","n",0.683508997,1,683.508997,"Self","Self"
"318",2,0,10,"Female",21,"r","h","Nonmatching","You","TRAINING","You","Self","Diamond","Circle","Triangle","Star","Bottom","m",0.683504654,1,683.504654,"You","Stranger"
"319",2,0,11,"Female",21,"r","h","Nonmatching","We","TRAINING","We","You","Diamond","Circle","Triangle","Star","Top","m",0.816815721,1,816.815721,"We","Group-Self"
"320",2,0,12,"Female",21,"r","h","Matching","You","TRAINING","You","You","Diamond","Circle","Triangle","Star","Top","n",0.766827624,1,766.827624,"You","Stranger"
"321",2,0,13,"Female",21,"r","h","Nonmatching","They","TRAINING","They","We","Diamond","Circle","Triangle","Star","Bottom","n",1.216847226,0,1216.847226,"They","Group-Stranger"
"322",2,0,14,"Female",21,"r","h","Matching","We","TRAINING","We","We","Diamond","Circle","Triangle","Star","Top","n",0.783513221,1,783.513221,"We","Group-Self"
"323",2,0,15,"Female",21,"r","h","Matching","They","TRAINING","They","They","Diamond","Circle","Triangle","Star","Bottom","m",0.583519775,0,583.519775,"They","Group-Stranger"
"324",2,0,16,"Female",21,"r","h","Matching","You","TRAINING","You","You","Diamond","Circle","Triangle","Star","Bottom","n",0.683497153,1,683.497153,"You","Stranger"
"325",2,0,17,"Female",21,"r","h","Nonmatching","Self","TRAINING","Self","You","Diamond","Circle","Triangle","Star","Top","n",0.61686057,0,616.86057,"Self","Self"
"326",2,0,18,"Female",21,"r","h","Nonmatching","We","TRAINING","We","Self","Diamond","Circle","Triangle","Star","Top","m",0.850180204,1,850.180204,"We","Group-Self"
"327",2,0,19,"Female",21,"r","h","Matching","Self","TRAINING","Self","Self","Diamond","Circle","Triangle","Star","Top","n",0.583535172,1,583.535172,"Self","Self"
"328",2,0,20,"Female",21,"r","h","Nonmatching","You","TRAINING","You","We","Diamond","Circle","Triangle","Star","Top","m",0.716858083,1,716.858083,"You","Stranger"
"329",2,1,1,"Female",21,"r","h","Nonmatching","They","EXPERIMENT","They","We","Diamond","Circle","Triangle","Star","Bottom","n",1.433446916,0,1433.446916,"They","Group-Stranger"
"330",2,1,2,"Female",21,"r","h","Matching","We","EXPERIMENT","We","We","Diamond","Circle","Triangle","Star","Top","n",0.716888482,1,716.888482,"We","Group-Self"
"331",2,1,3,"Female",21,"r","h","Nonmatching","They","EXPERIMENT","They","We","Diamond","Circle","Triangle","Star","Top","m",0.650175309,1,650.175309,"They","Group-Stranger"
"332",2,1,4,"Female",21,"r","h","Matching","You","EXPERIMENT","You","You","Diamond","Circle","Triangle","Star","Top","m",0.616840436,0,616.840436,"You","Stranger"
"333",2,1,5,"Female",21,"r","h","Nonmatching","You","EXPERIMENT","You","We","Diamond","Circle","Triangle","Star","Top","m",0.683507023,1,683.507023,"You","Stranger"
"334",2,1,6,"Female",21,"r","h","Matching","Self","EXPERIMENT","Self","Self","Diamond","Circle","Triangle","Star","Bottom","n",0.500184566,1,500.184566,"Self","Self"
"335",2,1,7,"Female",21,"r","h","Matching","Self","EXPERIMENT","Self","Self","Diamond","Circle","Triangle","Star","Bottom","n",0.616864913,1,616.864913,"Self","Self"
"336",2,1,8,"Female",21,"r","h","Matching","You","EXPERIMENT","You","You","Diamond","Circle","Triangle","Star","Top","n",0.633515373,1,633.515373,"You","Stranger"
"337",2,1,9,"Female",21,"r","h","Matching","They","EXPERIMENT","They","They","Diamond","Circle","Triangle","Star","Top","m",0.466863511,0,466.863511,"They","Group-Stranger"
"338",2,1,10,"Female",21,"r","h","Matching","We","EXPERIMENT","We","We","Diamond","Circle","Triangle","Star","Bottom","n",0.733512886,1,733.512886,"We","Group-Self"
"339",2,1,11,"Female",21,"r","h","Nonmatching","You","EXPERIMENT","You","Self","Diamond","Circle","Triangle","Star","Top","m",0.766841442,1,766.841442,"You","Stranger"
"340",2,1,12,"Female",21,"r","h","Nonmatching","Self","EXPERIMENT","Self","You","Diamond","Circle","Triangle","Star","Top","m",0.81682717,1,816.82717,"Self","Self"
"341",2,1,13,"Female",21,"r","h","Nonmatching","We","EXPERIMENT","We","You","Diamond","Circle","Triangle","Star","Top","m",0.750157819,1,750.157819,"We","Group-Self"
"342",2,1,14,"Female",21,"r","h","Matching","Self","EXPERIMENT","Self","Self","Diamond","Circle","Triangle","Star","Bottom","n",0.616845963,1,616.845963,"Self","Self"
"343",2,1,15,"Female",21,"r","h","Nonmatching","You","EXPERIMENT","You","They","Diamond","Circle","Triangle","Star","Top","m",0.800186185,1,800.186185,"You","Stranger"
"344",2,1,16,"Female",21,"r","h","Matching","We","EXPERIMENT","We","We","Diamond","Circle","Triangle","Star","Top","n",0.750192166,1,750.192166,"We","Group-Self"
"345",2,1,17,"Female",21,"r","h","Matching","You","EXPERIMENT","You","You","Diamond","Circle","Triangle","Star","Bottom","n",0.833485132,1,833.485132,"You","Stranger"
"346",2,1,18,"Female",21,"r","h","Matching","They","EXPERIMENT","They","They","Diamond","Circle","Triangle","Star","Bottom","m",1.000162261,0,1000.162261,"They","Group-Stranger"
"347",2,1,19,"Female",21,"r","h","Matching","We","EXPERIMENT","We","We","Diamond","Circle","Triangle","Star","Top","n",0.716865584,1,716.865584,"We","Group-Self"
"348",2,1,20,"Female",21,"r","h","Matching","We","EXPERIMENT","We","We","Diamond","Circle","Triangle","Star","Bottom","n",0.850141514,1,850.141514,"We","Group-Self"
"349",2,1,21,"Female",21,"r","h","Matching","They","EXPERIMENT","They","They","Diamond","Circle","Triangle","Star","Top","m",0.866833033,0,866.833033,"They","Group-Stranger"
"350",2,1,22,"Female",21,"r","h","Nonmatching","Self","EXPERIMENT","Self","They","Diamond","Circle","Triangle","Star","Top","m",0.783434263,1,783.434263,"Self","Self"
"351",2,1,23,"Female",21,"r","h","Matching","Self","EXPERIMENT","Self","Self","Diamond","Circle","Triangle","Star","Bottom","n",0.566820755,1,566.820755,"Self","Self"
"352",2,1,24,"Female",21,"r","h","Nonmatching","You","EXPERIMENT","You","We","Diamond","Circle","Triangle","Star","Top","m",0.650170176,1,650.170176,"You","Stranger"
"353",2,1,25,"Female",21,"r","h","Matching","They","EXPERIMENT","They","They","Diamond","Circle","Triangle","Star","Bottom","n",1.083496285,1,1083.496285,"They","Group-Stranger"
"354",2,1,26,"Female",21,"r","h","Nonmatching","They","EXPERIMENT","They","Self","Diamond","Circle","Triangle","Star","Top","m",0.783529408,1,783.529408,"They","Group-Stranger"
"355",2,1,27,"Female",21,"r","h","Matching","You","EXPERIMENT","You","You","Diamond","Circle","Triangle","Star","Top","n",0.750177559,1,750.177559,"You","Stranger"
"356",2,1,28,"Female",21,"r","h","Nonmatching","We","EXPERIMENT","We","Self","Diamond","Circle","Triangle","Star","Bottom","m",0.816792823,1,816.792823,"We","Group-Self"
"357",2,1,29,"Female",21,"r","h","Matching","Self","EXPERIMENT","Self","Self","Diamond","Circle","Triangle","Star","Top","n",0.566864182,1,566.864182,"Self","Self"
"358",2,1,30,"Female",21,"r","h","Matching","You","EXPERIMENT","You","You","Diamond","Circle","Triangle","Star","Bottom","n",1.700138533,1,1700.138533,"You","Stranger"
"359",2,1,31,"Female",21,"r","h","Matching","We","EXPERIMENT","We","We","Diamond","Circle","Triangle","Star","Bottom","n",0.633487343,1,633.487343,"We","Group-Self"
"360",2,1,32,"Female",21,"r","h","Nonmatching","Self","EXPERIMENT","Self","They","Diamond","Circle","Triangle","Star","Bottom","m",0.54996816,1,549.96816,"Self","Self"
"361",2,1,33,"Female",21,"r","h","Matching","Self","EXPERIMENT","Self","Self","Diamond","Circle","Triangle","Star","Bottom","n",0.583525697,1,583.525697,"Self","Self"
"362",2,1,34,"Female",21,"r","h","Matching","We","EXPERIMENT","We","We","Diamond","Circle","Triangle","Star","Bottom","n",0.616869255,1,616.869255,"We","Group-Self"
"363",2,1,35,"Female",21,"r","h","Nonmatching","You","EXPERIMENT","You","They","Diamond","Circle","Triangle","Star","Bottom","m",0.650174519,1,650.174519,"You","Stranger"
"364",2,1,36,"Female",21,"r","h","Matching","You","EXPERIMENT","You","You","Diamond","Circle","Triangle","Star","Bottom","n",0.500200753,1,500.200753,"You","Stranger"
"365",2,1,37,"Female",21,"r","h","Matching","They","EXPERIMENT","They","They","Diamond","Circle","Triangle","Star","Bottom","m",0.700176039,0,700.176039,"They","Group-Stranger"
"366",2,1,38,"Female",21,"r","h","Nonmatching","You","EXPERIMENT","You","They","Diamond","Circle","Triangle","Star","Bottom","m",0.883502838,1,883.502838,"You","Stranger"
"367",2,1,39,"Female",21,"r","h","Nonmatching","We","EXPERIMENT","We","They","Diamond","Circle","Triangle","Star","Top","m",0.850119801,1,850.119801,"We","Group-Self"
"368",2,1,40,"Female",21,"r","h","Nonmatching","They","EXPERIMENT","They","Self","Diamond","Circle","Triangle","Star","Bottom","m",0.833531718,1,833.531718,"They","Group-Stranger"
"369",2,1,41,"Female",21,"r","h","Matching","We","EXPERIMENT","We","We","Diamond","Circle","Triangle","Star","Bottom","n",0.850171519,1,850.171519,"We","Group-Self"
"370",2,1,42,"Female",21,"r","h","Nonmatching","We","EXPERIMENT","We","Self","Diamond","Circle","Triangle","Star","Top","m",1.166806227,1,1166.806227,"We","Group-Self"
"371",2,1,43,"Female",21,"r","h","Nonmatching","They","EXPERIMENT","They","You","Diamond","Circle","Triangle","Star","Top","m",1.100007777,1,1100.007777,"They","Group-Stranger"
"372",2,1,44,"Female",21,"r","h","Nonmatching","They","EXPERIMENT","They","You","Diamond","Circle","Triangle","Star","Top","m",0.766854076,1,766.854076,"They","Group-Stranger"
"373",2,1,45,"Female",21,"r","h","Matching","They","EXPERIMENT","They","They","Diamond","Circle","Triangle","Star","Top","n",0.733503411,1,733.503411,"They","Group-Stranger"
"374",2,1,46,"Female",21,"r","h","Nonmatching","You","EXPERIMENT","You","Self","Diamond","Circle","Triangle","Star","Top","m",0.65020255,1,650.20255,"You","Stranger"
"375",2,1,47,"Female",21,"r","h","Nonmatching","You","EXPERIMENT","You","We","Diamond","Circle","Triangle","Star","Bottom","m",0.716839922,1,716.839922,"You","Stranger"
"376",2,1,48,"Female",21,"r","h","Nonmatching","We","EXPERIMENT","We","You","Diamond","Circle","Triangle","Star","Bottom","m",0.800127361,1,800.127361,"We","Group-Self"
"377",2,1,49,"Female",21,"r","h","Nonmatching","They","EXPERIMENT","They","Self","Diamond","Circle","Triangle","Star","Top","m",0.650019365,1,650.019365,"They","Group-Stranger"
"378",2,1,50,"Female",21,"r","h","Nonmatching","Self","EXPERIMENT","Self","They","Diamond","Circle","Triangle","Star","Top","m",0.650179256,1,650.179256,"Self","Self"
"379",2,1,51,"Female",21,"r","h","Matching","Self","EXPERIMENT","Self","Self","Diamond","Circle","Triangle","Star","Top","n",0.683519262,1,683.519262,"Self","Self"
"380",2,1,52,"Female",21,"r","h","Nonmatching","Self","EXPERIMENT","Self","They","Diamond","Circle","Triangle","Star","Bottom","m",0.533506806,1,533.506806,"Self","Self"
"381",2,1,53,"Female",21,"r","h","Nonmatching","We","EXPERIMENT","We","They","Diamond","Circle","Triangle","Star","Top","m",0.700189462,1,700.189462,"We","Group-Self"
"382",2,1,54,"Female",21,"r","h","Matching","You","EXPERIMENT","You","You","Diamond","Circle","Triangle","Star","Top","m",0.633562749,0,633.562749,"You","Stranger"
"383",2,1,55,"Female",21,"r","h","Nonmatching","We","EXPERIMENT","We","Self","Diamond","Circle","Triangle","Star","Top","m",0.850173887,1,850.173887,"We","Group-Self"
"384",2,1,56,"Female",21,"r","h","Nonmatching","We","EXPERIMENT","We","Self","Diamond","Circle","Triangle","Star","Bottom","m",0.80020553,1,800.20553,"We","Group-Self"
"385",2,1,57,"Female",21,"r","h","Nonmatching","They","EXPERIMENT","They","We","Diamond","Circle","Triangle","Star","Top","m",1.116873006,1,1116.873006,"They","Group-Stranger"
"386",2,1,58,"Female",21,"r","h","Matching","You","EXPERIMENT","You","You","Diamond","Circle","Triangle","Star","Top","n",0.916819551,1,916.819551,"You","Stranger"
"387",2,1,59,"Female",21,"r","h","Matching","Self","EXPERIMENT","Self","Self","Diamond","Circle","Triangle","Star","Top","n",0.650193469,1,650.193469,"Self","Self"
"388",2,1,60,"Female",21,"r","h","Nonmatching","You","EXPERIMENT","You","They","Diamond","Circle","Triangle","Star","Top","m",0.766833941,1,766.833941,"You","Stranger"
"389",2,1,61,"Female",21,"r","h","Matching","They","EXPERIMENT","They","They","Diamond","Circle","Triangle","Star","Top","m",0.783493087,0,783.493087,"They","Group-Stranger"
"390",2,1,62,"Female",21,"r","h","Matching","They","EXPERIMENT","They","They","Diamond","Circle","Triangle","Star","Bottom","n",0.766840258,1,766.840258,"They","Group-Stranger"
"391",2,1,63,"Female",21,"r","h","Nonmatching","We","EXPERIMENT","We","They","Diamond","Circle","Triangle","Star","Bottom","m",0.633516558,1,633.516558,"We","Group-Self"
"392",2,1,64,"Female",21,"r","h","Matching","We","EXPERIMENT","We","We","Diamond","Circle","Triangle","Star","Top","n",0.883545871,1,883.545871,"We","Group-Self"
"393",2,1,65,"Female",21,"r","h","Matching","You","EXPERIMENT","You","You","Diamond","Circle","Triangle","Star","Top","n",0.683510182,1,683.510182,"You","Stranger"
"394",2,1,66,"Female",21,"r","h","Nonmatching","We","EXPERIMENT","We","They","Diamond","Circle","Triangle","Star","Bottom","m",1.216873282,1,1216.873282,"We","Group-Self"
"395",2,1,67,"Female",21,"r","h","Matching","You","EXPERIMENT","You","You","Diamond","Circle","Triangle","Star","Bottom","n",0.683476624,1,683.476624,"You","Stranger"
"396",2,1,68,"Female",21,"r","h","Matching","They","EXPERIMENT","They","They","Diamond","Circle","Triangle","Star","Bottom","n",0.71687269,1,716.87269,"They","Group-Stranger"
"397",2,1,69,"Female",21,"r","h","Nonmatching","We","EXPERIMENT","We","You","Diamond","Circle","Triangle","Star","Bottom","m",0.733530652,1,733.530652,"We","Group-Self"
"398",2,1,70,"Female",21,"r","h","Nonmatching","Self","EXPERIMENT","Self","You","Diamond","Circle","Triangle","Star","Bottom","m",0.683484125,1,683.484125,"Self","Self"
"399",2,1,71,"Female",21,"r","h","Matching","They","EXPERIMENT","They","They","Diamond","Circle","Triangle","Star","Bottom","n",0.8671465,1,867.1465,"They","Group-Stranger"
"400",2,1,72,"Female",21,"r","h","Nonmatching","You","EXPERIMENT","You","Self","Diamond","Circle","Triangle","Star","Bottom","m",0.833509214,1,833.509214,"You","Stranger"
"401",2,1,73,"Female",21,"r","h","Matching","Self","EXPERIMENT","Self","Self","Diamond","Circle","Triangle","Star","Top","n",0.566829835,1,566.829835,"Self","Self"
"402",2,1,74,"Female",21,"r","h","Matching","Self","EXPERIMENT","Self","Self","Diamond","Circle","Triangle","Star","Bottom","n",0.466918783,1,466.918783,"Self","Self"
"403",2,1,75,"Female",21,"r","h","Nonmatching","Self","EXPERIMENT","Self","We","Diamond","Circle","Triangle","Star","Top","m",0.650162675,1,650.162675,"Self","Self"
"404",2,1,76,"Female",21,"r","h","Nonmatching","You","EXPERIMENT","You","We","Diamond","Circle","Triangle","Star","Bottom","m",0.616834908,1,616.834908,"You","Stranger"
"405",2,1,77,"Female",21,"r","h","Nonmatching","Self","EXPERIMENT","Self","We","Diamond","Circle","Triangle","Star","Bottom","m",0.600161945,1,600.161945,"Self","Self"
"406",2,1,78,"Female",21,"r","h","Matching","We","EXPERIMENT","We","We","Diamond","Circle","Triangle","Star","Top","n",0.533511544,1,533.511544,"We","Group-Self"
"407",2,1,79,"Female",21,"r","h","Matching","They","EXPERIMENT","They","They","Diamond","Circle","Triangle","Star","Top","n",0.616865308,1,616.865308,"They","Group-Stranger"
"408",2,1,80,"Female",21,"r","h","Nonmatching","We","EXPERIMENT","We","You","Diamond","Circle","Triangle","Star","Top","m",0.816840199,1,816.840199,"We","Group-Self"
"409",2,1,81,"Female",21,"r","h","Matching","We","EXPERIMENT","We","We","Diamond","Circle","Triangle","Star","Bottom","n",0.8168477,1,816.8477,"We","Group-Self"
"410",2,1,82,"Female",21,"r","h","Matching","You","EXPERIMENT","You","You","Diamond","Circle","Triangle","Star","Bottom","n",0.616842804,1,616.842804,"You","Stranger"
"411",2,1,83,"Female",21,"r","h","Nonmatching","You","EXPERIMENT","You","Self","Diamond","Circle","Triangle","Star","Bottom","m",0.716852556,1,716.852556,"You","Stranger"
"412",2,1,84,"Female",21,"r","h","Nonmatching","Self","EXPERIMENT","Self","We","Diamond","Circle","Triangle","Star","Top","m",1.000154365,1,1000.154365,"Self","Self"
"413",2,1,85,"Female",21,"r","h","Matching","We","EXPERIMENT","We","We","Diamond","Circle","Triangle","Star","Top","n",0.68352321,1,683.52321,"We","Group-Self"
"414",2,1,86,"Female",21,"r","h","Nonmatching","They","EXPERIMENT","They","You","Diamond","Circle","Triangle","Star","Bottom","m",0.750174401,1,750.174401,"They","Group-Stranger"
"415",2,1,87,"Female",21,"r","h","Nonmatching","Self","EXPERIMENT","Self","You","Diamond","Circle","Triangle","Star","Top","m",0.733528678,1,733.528678,"Self","Self"
"416",2,1,88,"Female",21,"r","h","Matching","Self","EXPERIMENT","Self","Self","Diamond","Circle","Triangle","Star","Top","n",0.566866551,1,566.866551,"Self","Self"
"417",2,1,89,"Female",21,"r","h","Nonmatching","Self","EXPERIMENT","Self","You","Diamond","Circle","Triangle","Star","Bottom","m",0.650181625,1,650.181625,"Self","Self"
"418",2,1,90,"Female",21,"r","h","Nonmatching","They","EXPERIMENT","They","Self","Diamond","Circle","Triangle","Star","Bottom","m",0.666831296,1,666.831296,"They","Group-Stranger"
"419",2,1,91,"Female",21,"r","h","Nonmatching","They","EXPERIMENT","They","We","Diamond","Circle","Triangle","Star","Bottom","m",0.76686434,1,766.86434,"They","Group-Stranger"
"420",2,1,92,"Female",21,"r","h","Nonmatching","Self","EXPERIMENT","Self","We","Diamond","Circle","Triangle","Star","Bottom","m",0.666827348,1,666.827348,"Self","Self"
"421",2,1,93,"Female",21,"r","h","Matching","You","EXPERIMENT","You","You","Diamond","Circle","Triangle","Star","Bottom","n",0.6168507,1,616.8507,"You","Stranger"
"422",2,1,94,"Female",21,"r","h","Nonmatching","They","EXPERIMENT","They","You","Diamond","Circle","Triangle","Star","Bottom","m",1.366864814,1,1366.864814,"They","Group-Stranger"
"423",2,1,95,"Female",21,"r","h","Matching","Self","EXPERIMENT","Self","Self","Diamond","Circle","Triangle","Star","Top","n",0.600174183,1,600.174183,"Self","Self"
"424",2,1,96,"Female",21,"r","h","Matching","They","EXPERIMENT","They","They","Diamond","Circle","Triangle","Star","Top","n",0.883500864,1,883.500864,"They","Group-Stranger"
"425",2,2,1,"Female",21,"r","h","Matching","Self","EXPERIMENT","Self","Self","Diamond","Circle","Triangle","Star","Bottom","n",0.733529072,1,733.529072,"Self","Self"
"426",2,2,2,"Female",21,"r","h","Matching","We","EXPERIMENT","We","We","Diamond","Circle","Triangle","Star","Top","n",0.93349212,1,933.49212,"We","Group-Self"
"427",2,2,3,"Female",21,"r","h","Nonmatching","You","EXPERIMENT","You","We","Diamond","Circle","Triangle","Star","Top","m",0.700176829,1,700.176829,"You","Stranger"
"428",2,2,4,"Female",21,"r","h","Nonmatching","They","EXPERIMENT","They","You","Diamond","Circle","Triangle","Star","Top","m",0.950161925,1,950.161925,"They","Group-Stranger"
"429",2,2,5,"Female",21,"r","h","Matching","Self","EXPERIMENT","Self","Self","Diamond","Circle","Triangle","Star","Bottom","n",0.716837159,1,716.837159,"Self","Self"
"430",2,2,6,"Female",21,"r","h","Matching","They","EXPERIMENT","They","They","Diamond","Circle","Triangle","Star","Top","n",0.850143488,1,850.143488,"They","Group-Stranger"
"431",2,2,7,"Female",21,"r","h","Nonmatching","You","EXPERIMENT","You","We","Diamond","Circle","Triangle","Star","Top","m",0.616840041,1,616.840041,"You","Stranger"
"432",2,2,8,"Female",21,"r","h","Matching","You","EXPERIMENT","You","You","Diamond","Circle","Triangle","Star","Bottom","n",0.816843752,1,816.843752,"You","Stranger"
"433",2,2,9,"Female",21,"r","h","Nonmatching","You","EXPERIMENT","You","We","Diamond","Circle","Triangle","Star","Bottom","m",0.650180441,1,650.180441,"You","Stranger"
"434",2,2,10,"Female",21,"r","h","Nonmatching","We","EXPERIMENT","We","They","Diamond","Circle","Triangle","Star","Bottom","m",1.133481223,1,1133.481223,"We","Group-Self"
"435",2,2,11,"Female",21,"r","h","Matching","You","EXPERIMENT","You","You","Diamond","Circle","Triangle","Star","Bottom","n",0.733449324,1,733.449324,"You","Stranger"
"436",2,2,12,"Female",21,"r","h","Nonmatching","Self","EXPERIMENT","Self","They","Diamond","Circle","Triangle","Star","Bottom","m",0.700337905,1,700.337905,"Self","Self"
"437",2,2,13,"Female",21,"r","h","Nonmatching","We","EXPERIMENT","We","They","Diamond","Circle","Triangle","Star","Bottom","m",0.733489198,1,733.489198,"We","Group-Self"
"438",2,2,14,"Female",21,"r","h","Nonmatching","We","EXPERIMENT","We","You","Diamond","Circle","Triangle","Star","Top","m",0.966846338,1,966.846338,"We","Group-Self"
"439",2,2,15,"Female",21,"r","h","Nonmatching","Self","EXPERIMENT","Self","We","Diamond","Circle","Triangle","Star","Top","m",0.616838067,1,616.838067,"Self","Self"
"440",2,2,16,"Female",21,"r","h","Nonmatching","We","EXPERIMENT","We","You","Diamond","Circle","Triangle","Star","Top","m",0.650170176,1,650.170176,"We","Group-Self"
"441",2,2,17,"Female",21,"r","h","Nonmatching","Self","EXPERIMENT","Self","We","Diamond","Circle","Triangle","Star","Top","m",0.783491508,1,783.491508,"Self","Self"
"442",2,2,18,"Female",21,"r","h","Nonmatching","They","EXPERIMENT","They","We","Diamond","Circle","Triangle","Star","Top","m",0.616814774,1,616.814774,"They","Group-Stranger"
"443",2,2,19,"Female",21,"r","h","Nonmatching","You","EXPERIMENT","You","They","Diamond","Circle","Triangle","Star","Top","m",0.683489257,1,683.489257,"You","Stranger"
"444",2,2,20,"Female",21,"r","h","Matching","They","EXPERIMENT","They","They","Diamond","Circle","Triangle","Star","Bottom","m",0.600183659,0,600.183659,"They","Group-Stranger"
"445",2,2,21,"Female",21,"r","h","Nonmatching","You","EXPERIMENT","You","They","Diamond","Circle","Triangle","Star","Top","m",0.700072603,1,700.072603,"You","Stranger"
"446",2,2,22,"Female",21,"r","h","Matching","You","EXPERIMENT","You","You","Diamond","Circle","Triangle","Star","Top","n",0.683492021,1,683.492021,"You","Stranger"
"447",2,2,23,"Female",21,"r","h","Matching","Self","EXPERIMENT","Self","Self","Diamond","Circle","Triangle","Star","Bottom","n",0.600161945,1,600.161945,"Self","Self"
"448",2,2,24,"Female",21,"r","h","Matching","They","EXPERIMENT","They","They","Diamond","Circle","Triangle","Star","Bottom","n",0.766860392,1,766.860392,"They","Group-Stranger"
"449",2,2,25,"Female",21,"r","h","Matching","Self","EXPERIMENT","Self","Self","Diamond","Circle","Triangle","Star","Top","n",0.500120215,1,500.120215,"Self","Self"
"450",2,2,26,"Female",21,"r","h","Matching","Self","EXPERIMENT","Self","Self","Diamond","Circle","Triangle","Star","Bottom","n",0.533520229,1,533.520229,"Self","Self"
"451",2,2,27,"Female",21,"r","h","Matching","We","EXPERIMENT","We","We","Diamond","Circle","Triangle","Star","Bottom","n",0.783481243,1,783.481243,"We","Group-Self"
"452",2,2,28,"Female",21,"r","h","Nonmatching","Self","EXPERIMENT","Self","They","Diamond","Circle","Triangle","Star","Bottom","m",0.616800561,1,616.800561,"Self","Self"
"453",2,2,29,"Female",21,"r","h","Matching","We","EXPERIMENT","We","We","Diamond","Circle","Triangle","Star","Bottom","n",0.766819334,1,766.819334,"We","Group-Self"
"454",2,2,30,"Female",21,"r","h","Matching","They","EXPERIMENT","They","They","Diamond","Circle","Triangle","Star","Bottom","n",0.700186698,1,700.186698,"They","Group-Stranger"
"455",2,2,31,"Female",21,"r","h","Matching","We","EXPERIMENT","We","We","Diamond","Circle","Triangle","Star","Bottom","n",0.550196351,1,550.196351,"We","Group-Self"
"456",2,2,32,"Female",21,"r","h","Nonmatching","We","EXPERIMENT","We","They","Diamond","Circle","Triangle","Star","Top","m",0.966863314,1,966.863314,"We","Group-Self"
"457",2,2,33,"Female",21,"r","h","Nonmatching","We","EXPERIMENT","We","They","Diamond","Circle","Triangle","Star","Top","m",0.633493265,1,633.493265,"We","Group-Self"
"458",2,2,34,"Female",21,"r","h","Matching","You","EXPERIMENT","You","You","Diamond","Circle","Triangle","Star","Bottom","n",0.783505326,1,783.505326,"You","Stranger"
"459",2,2,35,"Female",21,"r","h","Nonmatching","We","EXPERIMENT","We","Self","Diamond","Circle","Triangle","Star","Top","n",0.750151502,0,750.151502,"We","Group-Self"
"460",2,2,36,"Female",21,"r","h","Matching","You","EXPERIMENT","You","You","Diamond","Circle","Triangle","Star","Bottom","n",0.633509846,1,633.509846,"You","Stranger"
"461",2,2,37,"Female",21,"r","h","Nonmatching","They","EXPERIMENT","They","You","Diamond","Circle","Triangle","Star","Bottom","m",0.700166564,1,700.166564,"They","Group-Stranger"
"462",2,2,38,"Female",21,"r","h","Matching","We","EXPERIMENT","We","We","Diamond","Circle","Triangle","Star","Top","n",0.700171301,1,700.171301,"We","Group-Self"
"463",2,2,39,"Female",21,"r","h","Matching","They","EXPERIMENT","They","They","Diamond","Circle","Triangle","Star","Top","None",NA,3,NA,"They","Group-Stranger"
"464",2,2,40,"Female",21,"r","h","Matching","We","EXPERIMENT","We","We","Diamond","Circle","Triangle","Star","Top","n",1.200122939,1,1200.122939,"We","Group-Self"
"465",2,2,41,"Female",21,"r","h","Nonmatching","Self","EXPERIMENT","Self","You","Diamond","Circle","Triangle","Star","Bottom","n",0.550234646,0,550.234646,"Self","Self"
"466",2,2,42,"Female",21,"r","h","Matching","You","EXPERIMENT","You","You","Diamond","Circle","Triangle","Star","Top","n",0.58350951,1,583.50951,"You","Stranger"
"467",2,2,43,"Female",21,"r","h","Matching","Self","EXPERIMENT","Self","Self","Diamond","Circle","Triangle","Star","Top","n",0.616811221,1,616.811221,"Self","Self"
"468",2,2,44,"Female",21,"r","h","Nonmatching","Self","EXPERIMENT","Self","They","Diamond","Circle","Triangle","Star","Top","m",0.766858024,1,766.858024,"Self","Self"
"469",2,2,45,"Female",21,"r","h","Matching","They","EXPERIMENT","They","They","Diamond","Circle","Triangle","Star","Bottom","n",0.666879066,1,666.879066,"They","Group-Stranger"
"470",2,2,46,"Female",21,"r","h","Nonmatching","You","EXPERIMENT","You","Self","Diamond","Circle","Triangle","Star","Bottom","m",0.666834454,1,666.834454,"You","Stranger"
"471",2,2,47,"Female",21,"r","h","Matching","Self","EXPERIMENT","Self","Self","Diamond","Circle","Triangle","Star","Top","n",0.766863156,1,766.863156,"Self","Self"
"472",2,2,48,"Female",21,"r","h","Matching","Self","EXPERIMENT","Self","Self","Diamond","Circle","Triangle","Star","Bottom","n",0.583467662,1,583.467662,"Self","Self"
"473",2,2,49,"Female",21,"r","h","Matching","Self","EXPERIMENT","Self","Self","Diamond","Circle","Triangle","Star","Top","n",0.400214689,1,400.214689,"Self","Self"
"474",2,2,50,"Female",21,"r","h","Nonmatching","Self","EXPERIMENT","Self","You","Diamond","Circle","Triangle","Star","Bottom","m",0.850150594,1,850.150594,"Self","Self"
"475",2,2,51,"Female",21,"r","h","Matching","We","EXPERIMENT","We","We","Diamond","Circle","Triangle","Star","Bottom","n",0.800183027,1,800.183027,"We","Group-Self"
"476",2,2,52,"Female",21,"r","h","Matching","You","EXPERIMENT","You","You","Diamond","Circle","Triangle","Star","Bottom","n",0.81683783,1,816.83783,"You","Stranger"
"477",2,2,53,"Female",21,"r","h","Matching","They","EXPERIMENT","They","They","Diamond","Circle","Triangle","Star","Top","n",0.550204247,1,550.204247,"They","Group-Stranger"
"478",2,2,54,"Female",21,"r","h","Nonmatching","You","EXPERIMENT","You","Self","Diamond","Circle","Triangle","Star","Top","m",0.666849062,1,666.849062,"You","Stranger"
"479",2,2,55,"Female",21,"r","h","Matching","Self","EXPERIMENT","Self","Self","Diamond","Circle","Triangle","Star","Top","n",0.7002017,1,700.2017,"Self","Self"
"480",2,2,56,"Female",21,"r","h","Matching","You","EXPERIMENT","You","You","Diamond","Circle","Triangle","Star","Bottom","n",0.683508997,1,683.508997,"You","Stranger"
"481",2,2,57,"Female",21,"r","h","Nonmatching","You","EXPERIMENT","You","Self","Diamond","Circle","Triangle","Star","Bottom","m",0.566864182,1,566.864182,"You","Stranger"
"482",2,2,58,"Female",21,"r","h","Nonmatching","We","EXPERIMENT","We","Self","Diamond","Circle","Triangle","Star","Top","m",0.799976154,1,799.976154,"We","Group-Self"
"483",2,2,59,"Female",21,"r","h","Matching","They","EXPERIMENT","They","They","Diamond","Circle","Triangle","Star","Top","n",0.666870381,1,666.870381,"They","Group-Stranger"
"484",2,2,60,"Female",21,"r","h","Nonmatching","They","EXPERIMENT","They","We","Diamond","Circle","Triangle","Star","Top","m",1.000150417,1,1000.150417,"They","Group-Stranger"
"485",2,2,61,"Female",21,"r","h","Nonmatching","They","EXPERIMENT","They","Self","Diamond","Circle","Triangle","Star","Bottom","m",0.683499127,1,683.499127,"They","Group-Stranger"
"486",2,2,62,"Female",21,"r","h","Matching","Self","EXPERIMENT","Self","Self","Diamond","Circle","Triangle","Star","Top","n",0.550193193,1,550.193193,"Self","Self"
"487",2,2,63,"Female",21,"r","h","Nonmatching","They","EXPERIMENT","They","Self","Diamond","Circle","Triangle","Star","Bottom","m",0.666836428,1,666.836428,"They","Group-Stranger"
"488",2,2,64,"Female",21,"r","h","Nonmatching","We","EXPERIMENT","We","You","Diamond","Circle","Triangle","Star","Bottom","m",0.666829717,1,666.829717,"We","Group-Self"
"489",2,2,65,"Female",21,"r","h","Nonmatching","Self","EXPERIMENT","Self","They","Diamond","Circle","Triangle","Star","Top","m",0.800181053,1,800.181053,"Self","Self"
"490",2,2,66,"Female",21,"r","h","Matching","We","EXPERIMENT","We","We","Diamond","Circle","Triangle","Star","Top","n",0.600178526,1,600.178526,"We","Group-Self"
"491",2,2,67,"Female",21,"r","h","Nonmatching","They","EXPERIMENT","They","You","Diamond","Circle","Triangle","Star","Top","m",0.566847601,1,566.847601,"They","Group-Stranger"
"492",2,2,68,"Female",21,"r","h","Matching","They","EXPERIMENT","They","They","Diamond","Circle","Triangle","Star","Bottom","n",0.500184566,1,500.184566,"They","Group-Stranger"
"493",2,2,69,"Female",21,"r","h","Matching","They","EXPERIMENT","They","They","Diamond","Circle","Triangle","Star","Bottom","n",0.583483059,1,583.483059,"They","Group-Stranger"
"494",2,2,70,"Female",21,"r","h","Nonmatching","We","EXPERIMENT","We","Self","Diamond","Circle","Triangle","Star","Bottom","m",0.716856898,1,716.856898,"We","Group-Self"
"495",2,2,71,"Female",21,"r","h","Nonmatching","They","EXPERIMENT","They","Self","Diamond","Circle","Triangle","Star","Top","m",0.600188001,1,600.188001,"They","Group-Stranger"
"496",2,2,72,"Female",21,"r","h","Nonmatching","You","EXPERIMENT","You","They","Diamond","Circle","Triangle","Star","Bottom","m",1.03351332,1,1033.51332,"You","Stranger"
"497",2,2,73,"Female",21,"r","h","Matching","You","EXPERIMENT","You","You","Diamond","Circle","Triangle","Star","Top","n",0.483527394,1,483.527394,"You","Stranger"
"498",2,2,74,"Female",21,"r","h","Matching","They","EXPERIMENT","They","They","Diamond","Circle","Triangle","Star","Top","n",0.733484066,1,733.484066,"They","Group-Stranger"
"499",2,2,75,"Female",21,"r","h","Nonmatching","Self","EXPERIMENT","Self","You","Diamond","Circle","Triangle","Star","Top","m",0.683533474,1,683.533474,"Self","Self"
"500",2,2,76,"Female",21,"r","h","Matching","We","EXPERIMENT","We","We","Diamond","Circle","Triangle","Star","Top","n",0.783523486,1,783.523486,"We","Group-Self"
"501",2,2,77,"Female",21,"r","h","Nonmatching","Self","EXPERIMENT","Self","We","Diamond","Circle","Triangle","Star","Bottom","m",0.650173335,1,650.173335,"Self","Self"
"502",2,2,78,"Female",21,"r","h","Matching","Self","EXPERIMENT","Self","Self","Diamond","Circle","Triangle","Star","Bottom","n",0.633492475,1,633.492475,"Self","Self"
"503",2,2,79,"Female",21,"r","h","Matching","You","EXPERIMENT","You","You","Diamond","Circle","Triangle","Star","Top","n",0.800179868,1,800.179868,"You","Stranger"
"504",2,2,80,"Female",21,"r","h","Nonmatching","We","EXPERIMENT","We","You","Diamond","Circle","Triangle","Star","Bottom","m",0.683525579,1,683.525579,"We","Group-Self"
"505",2,2,81,"Female",21,"r","h","Nonmatching","They","EXPERIMENT","They","We","Diamond","Circle","Triangle","Star","Bottom","n",0.666850641,0,666.850641,"They","Group-Stranger"
"506",2,2,82,"Female",21,"r","h","Nonmatching","They","EXPERIMENT","They","You","Diamond","Circle","Triangle","Star","Bottom","m",0.783521117,1,783.521117,"They","Group-Stranger"
"507",2,2,83,"Female",21,"r","h","Matching","They","EXPERIMENT","They","They","Diamond","Circle","Triangle","Star","Top","n",0.850200733,1,850.200733,"They","Group-Stranger"
"508",2,2,84,"Female",21,"r","h","Nonmatching","They","EXPERIMENT","They","Self","Diamond","Circle","Triangle","Star","Top","m",0.666826559,1,666.826559,"They","Group-Stranger"
"509",2,2,85,"Female",21,"r","h","Nonmatching","Self","EXPERIMENT","Self","You","Diamond","Circle","Triangle","Star","Top","m",0.733529862,1,733.529862,"Self","Self"
"510",2,2,86,"Female",21,"r","h","Matching","We","EXPERIMENT","We","We","Diamond","Circle","Triangle","Star","Bottom","n",0.66685222,1,666.85222,"We","Group-Self"
"511",2,2,87,"Female",21,"r","h","Nonmatching","Self","EXPERIMENT","Self","We","Diamond","Circle","Triangle","Star","Bottom","m",0.716845449,1,716.845449,"Self","Self"
"512",2,2,88,"Female",21,"r","h","Matching","You","EXPERIMENT","You","You","Diamond","Circle","Triangle","Star","Top","n",0.683510576,1,683.510576,"You","Stranger"
"513",2,2,89,"Female",21,"r","h","Matching","We","EXPERIMENT","We","We","Diamond","Circle","Triangle","Star","Top","n",0.616826223,1,616.826223,"We","Group-Self"
"514",2,2,90,"Female",21,"r","h","Nonmatching","You","EXPERIMENT","You","Self","Diamond","Circle","Triangle","Star","Top","m",0.750183086,1,750.183086,"You","Stranger"
"515",2,2,91,"Female",21,"r","h","Matching","You","EXPERIMENT","You","You","Diamond","Circle","Triangle","Star","Top","n",0.533515886,1,533.515886,"You","Stranger"
"516",2,2,92,"Female",21,"r","h","Matching","We","EXPERIMENT","We","We","Diamond","Circle","Triangle","Star","Bottom","n",0.800175921,1,800.175921,"We","Group-Self"
"517",2,2,93,"Female",21,"r","h","Nonmatching","We","EXPERIMENT","We","Self","Diamond","Circle","Triangle","Star","Bottom","m",0.66689012,1,666.89012,"We","Group-Self"
"518",2,2,94,"Female",21,"r","h","Nonmatching","You","EXPERIMENT","You","We","Diamond","Circle","Triangle","Star","Bottom","m",0.616897286,1,616.897286,"You","Stranger"
"519",2,2,95,"Female",21,"r","h","Nonmatching","You","EXPERIMENT","You","They","Diamond","Circle","Triangle","Star","Bottom","m",0.91682113,1,916.82113,"You","Stranger"
"520",2,2,96,"Female",21,"r","h","Nonmatching","They","EXPERIMENT","They","We","Diamond","Circle","Triangle","Star","Bottom","m",0.900194357,1,900.194357,"They","Group-Stranger"
"521",2,3,1,"Female",21,"r","h","Matching","You","EXPERIMENT","You","You","Diamond","Circle","Triangle","Star","Top","n",0.900135928,1,900.135928,"You","Stranger"
"522",2,3,2,"Female",21,"r","h","Matching","You","EXPERIMENT","You","You","Diamond","Circle","Triangle","Star","Bottom","n",0.700169722,1,700.169722,"You","Stranger"
"523",2,3,3,"Female",21,"r","h","Matching","Self","EXPERIMENT","Self","Self","Diamond","Circle","Triangle","Star","Top","n",0.700167748,1,700.167748,"Self","Self"
"524",2,3,4,"Female",21,"r","h","Nonmatching","We","EXPERIMENT","We","You","Diamond","Circle","Triangle","Star","Top","m",0.766878158,1,766.878158,"We","Group-Self"
"525",2,3,5,"Female",21,"r","h","Matching","We","EXPERIMENT","We","We","Diamond","Circle","Triangle","Star","Top","n",0.900190409,1,900.190409,"We","Group-Self"
"526",2,3,6,"Female",21,"r","h","Matching","We","EXPERIMENT","We","We","Diamond","Circle","Triangle","Star","Bottom","n",0.616814379,1,616.814379,"We","Group-Self"
"527",2,3,7,"Female",21,"r","h","Nonmatching","Self","EXPERIMENT","Self","You","Diamond","Circle","Triangle","Star","Bottom","m",0.600152075,1,600.152075,"Self","Self"
"528",2,3,8,"Female",21,"r","h","Nonmatching","We","EXPERIMENT","We","Self","Diamond","Circle","Triangle","Star","Bottom","m",0.66679537,1,666.79537,"We","Group-Self"
"529",2,3,9,"Female",21,"r","h","Matching","They","EXPERIMENT","They","They","Diamond","Circle","Triangle","Star","Bottom","n",1.383441448,1,1383.441448,"They","Group-Stranger"
"530",2,3,10,"Female",21,"r","h","Matching","They","EXPERIMENT","They","They","Diamond","Circle","Triangle","Star","Bottom","n",0.616825433,1,616.825433,"They","Group-Stranger"
"531",2,3,11,"Female",21,"r","h","Nonmatching","We","EXPERIMENT","We","Self","Diamond","Circle","Triangle","Star","Top","m",0.733484856,1,733.484856,"We","Group-Self"
"532",2,3,12,"Female",21,"r","h","Nonmatching","We","EXPERIMENT","We","Self","Diamond","Circle","Triangle","Star","Bottom","m",0.500205885,1,500.205885,"We","Group-Self"
"533",2,3,13,"Female",21,"r","h","Nonmatching","They","EXPERIMENT","They","You","Diamond","Circle","Triangle","Star","Top","m",0.950138632,1,950.138632,"They","Group-Stranger"
"534",2,3,14,"Female",21,"r","h","Nonmatching","You","EXPERIMENT","You","They","Diamond","Circle","Triangle","Star","Bottom","m",0.783512037,1,783.512037,"You","Stranger"
"535",2,3,15,"Female",21,"r","h","Matching","We","EXPERIMENT","We","We","Diamond","Circle","Triangle","Star","Top","n",0.733512886,1,733.512886,"We","Group-Self"
"536",2,3,16,"Female",21,"r","h","Matching","You","EXPERIMENT","You","You","Diamond","Circle","Triangle","Star","Top","n",0.666813135,1,666.813135,"You","Stranger"
"537",2,3,17,"Female",21,"r","h","Nonmatching","You","EXPERIMENT","You","We","Diamond","Circle","Triangle","Star","Top","m",0.650186758,1,650.186758,"You","Stranger"
"538",2,3,18,"Female",21,"r","h","Nonmatching","Self","EXPERIMENT","Self","They","Diamond","Circle","Triangle","Star","Bottom","m",0.633496028,1,633.496028,"Self","Self"
"539",2,3,19,"Female",21,"r","h","Matching","We","EXPERIMENT","We","We","Diamond","Circle","Triangle","Star","Top","n",0.716839527,1,716.839527,"We","Group-Self"
"540",2,3,20,"Female",21,"r","h","Matching","You","EXPERIMENT","You","You","Diamond","Circle","Triangle","Star","Bottom","n",0.700160247,1,700.160247,"You","Stranger"
"541",2,3,21,"Female",21,"r","h","Nonmatching","Self","EXPERIMENT","Self","They","Diamond","Circle","Triangle","Star","Top","m",0.716878217,1,716.878217,"Self","Self"
"542",2,3,22,"Female",21,"r","h","Nonmatching","We","EXPERIMENT","We","They","Diamond","Circle","Triangle","Star","Bottom","m",0.683528737,1,683.528737,"We","Group-Self"
"543",2,3,23,"Female",21,"r","h","Nonmatching","They","EXPERIMENT","They","Self","Diamond","Circle","Triangle","Star","Bottom","m",0.733518018,1,733.518018,"They","Group-Stranger"
"544",2,3,24,"Female",21,"r","h","Nonmatching","Self","EXPERIMENT","Self","We","Diamond","Circle","Triangle","Star","Top","m",0.916861004,1,916.861004,"Self","Self"
"545",2,3,25,"Female",21,"r","h","Matching","Self","EXPERIMENT","Self","Self","Diamond","Circle","Triangle","Star","Bottom","n",0.616901629,1,616.901629,"Self","Self"
"546",2,3,26,"Female",21,"r","h","Matching","We","EXPERIMENT","We","We","Diamond","Circle","Triangle","Star","Bottom","n",0.650202549,1,650.202549,"We","Group-Self"
"547",2,3,27,"Female",21,"r","h","Nonmatching","You","EXPERIMENT","You","Self","Diamond","Circle","Triangle","Star","Top","m",0.700144061,1,700.144061,"You","Stranger"
"548",2,3,28,"Female",21,"r","h","Nonmatching","They","EXPERIMENT","They","Self","Diamond","Circle","Triangle","Star","Bottom","m",0.683522815,1,683.522815,"They","Group-Stranger"
"549",2,3,29,"Female",21,"r","h","Nonmatching","Self","EXPERIMENT","Self","You","Diamond","Circle","Triangle","Star","Top","m",0.8834906,1,883.4906,"Self","Self"
"550",2,3,30,"Female",21,"r","h","Matching","You","EXPERIMENT","You","You","Diamond","Circle","Triangle","Star","Bottom","n",0.733490383,1,733.490383,"You","Stranger"
"551",2,3,31,"Female",21,"r","h","Matching","Self","EXPERIMENT","Self","Self","Diamond","Circle","Triangle","Star","Top","n",0.666837613,1,666.837613,"Self","Self"
"552",2,3,32,"Female",21,"r","h","Matching","We","EXPERIMENT","We","We","Diamond","Circle","Triangle","Star","Bottom","n",0.650195838,1,650.195838,"We","Group-Self"
"553",2,3,33,"Female",21,"r","h","Nonmatching","Self","EXPERIMENT","Self","They","Diamond","Circle","Triangle","Star","Bottom","m",0.616862149,1,616.862149,"Self","Self"
"554",2,3,34,"Female",21,"r","h","Matching","Self","EXPERIMENT","Self","Self","Diamond","Circle","Triangle","Star","Bottom","n",0.816859149,1,816.859149,"Self","Self"
"555",2,3,35,"Female",21,"r","h","Matching","They","EXPERIMENT","They","They","Diamond","Circle","Triangle","Star","Bottom","n",0.7502048,1,750.2048,"They","Group-Stranger"
"556",2,3,36,"Female",21,"r","h","Nonmatching","Self","EXPERIMENT","Self","We","Diamond","Circle","Triangle","Star","Bottom","m",0.750198088,1,750.198088,"Self","Self"
"557",2,3,37,"Female",21,"r","h","Matching","Self","EXPERIMENT","Self","Self","Diamond","Circle","Triangle","Star","Top","n",0.666849456,1,666.849456,"Self","Self"
"558",2,3,38,"Female",21,"r","h","Matching","We","EXPERIMENT","We","We","Diamond","Circle","Triangle","Star","Bottom","n",0.583501614,1,583.501614,"We","Group-Self"
"559",2,3,39,"Female",21,"r","h","Nonmatching","You","EXPERIMENT","You","Self","Diamond","Circle","Triangle","Star","Bottom","m",0.666844719,1,666.844719,"You","Stranger"
"560",2,3,40,"Female",21,"r","h","Nonmatching","You","EXPERIMENT","You","They","Diamond","Circle","Triangle","Star","Top","m",0.700204069,1,700.204069,"You","Stranger"
"561",2,3,41,"Female",21,"r","h","Matching","You","EXPERIMENT","You","You","Diamond","Circle","Triangle","Star","Bottom","n",0.616838856,1,616.838856,"You","Stranger"
"562",2,3,42,"Female",21,"r","h","Matching","You","EXPERIMENT","You","You","Diamond","Circle","Triangle","Star","Bottom","n",0.700165774,1,700.165774,"You","Stranger"
"563",2,3,43,"Female",21,"r","h","Nonmatching","Self","EXPERIMENT","Self","You","Diamond","Circle","Triangle","Star","Bottom","m",0.750157819,1,750.157819,"Self","Self"
"564",2,3,44,"Female",21,"r","h","Nonmatching","They","EXPERIMENT","They","You","Diamond","Circle","Triangle","Star","Top","m",0.683569401,1,683.569401,"They","Group-Stranger"
"565",2,3,45,"Female",21,"r","h","Matching","You","EXPERIMENT","You","You","Diamond","Circle","Triangle","Star","Top","n",0.716850976,1,716.850976,"You","Stranger"
"566",2,3,46,"Female",21,"r","h","Nonmatching","We","EXPERIMENT","We","You","Diamond","Circle","Triangle","Star","Bottom","m",0.633052674,1,633.052674,"We","Group-Self"
"567",2,3,47,"Female",21,"r","h","Nonmatching","You","EXPERIMENT","You","We","Diamond","Circle","Triangle","Star","Bottom","m",0.799948914,1,799.948914,"You","Stranger"
"568",2,3,48,"Female",21,"r","h","Matching","They","EXPERIMENT","They","They","Diamond","Circle","Triangle","Star","Top","n",0.933527256,1,933.527256,"They","Group-Stranger"
"569",2,3,49,"Female",21,"r","h","Matching","You","EXPERIMENT","You","You","Diamond","Circle","Triangle","Star","Top","n",0.833545536,1,833.545536,"You","Stranger"
"570",2,3,50,"Female",21,"r","h","Nonmatching","We","EXPERIMENT","We","They","Diamond","Circle","Triangle","Star","Top","m",0.800211452,1,800.211452,"We","Group-Self"
"571",2,3,51,"Female",21,"r","h","Matching","We","EXPERIMENT","We","We","Diamond","Circle","Triangle","Star","Top","n",0.616864518,1,616.864518,"We","Group-Self"
"572",2,3,52,"Female",21,"r","h","Matching","Self","EXPERIMENT","Self","Self","Diamond","Circle","Triangle","Star","Top","n",0.650165834,1,650.165834,"Self","Self"
"573",2,3,53,"Female",21,"r","h","Nonmatching","You","EXPERIMENT","You","They","Diamond","Circle","Triangle","Star","Bottom","m",0.916870085,1,916.870085,"You","Stranger"
"574",2,3,54,"Female",21,"r","h","Nonmatching","Self","EXPERIMENT","Self","We","Diamond","Circle","Triangle","Star","Top","m",0.783513616,1,783.513616,"Self","Self"
"575",2,3,55,"Female",21,"r","h","Nonmatching","They","EXPERIMENT","They","We","Diamond","Circle","Triangle","Star","Bottom","m",0.933503174,1,933.503174,"They","Group-Stranger"
"576",2,3,56,"Female",21,"r","h","Nonmatching","They","EXPERIMENT","They","We","Diamond","Circle","Triangle","Star","Top","m",0.733502226,1,733.502226,"They","Group-Stranger"
"577",2,3,57,"Female",21,"r","h","Matching","They","EXPERIMENT","They","They","Diamond","Circle","Triangle","Star","Top","n",1.000193844,1,1000.193844,"They","Group-Stranger"
"578",2,3,58,"Female",21,"r","h","Nonmatching","We","EXPERIMENT","We","You","Diamond","Circle","Triangle","Star","Bottom","m",0.800172367,1,800.172367,"We","Group-Self"
"579",2,3,59,"Female",21,"r","h","Matching","Self","EXPERIMENT","Self","Self","Diamond","Circle","Triangle","Star","Top","n",0.683555978,1,683.555978,"Self","Self"
"580",2,3,60,"Female",21,"r","h","Matching","They","EXPERIMENT","They","They","Diamond","Circle","Triangle","Star","Top","n",0.750174795,1,750.174795,"They","Group-Stranger"
"581",2,3,61,"Female",21,"r","h","Matching","They","EXPERIMENT","They","They","Diamond","Circle","Triangle","Star","Top","n",0.650150831,1,650.150831,"They","Group-Stranger"
"582",2,3,62,"Female",21,"r","h","Nonmatching","You","EXPERIMENT","You","Self","Diamond","Circle","Triangle","Star","Top","m",0.766800384,1,766.800384,"You","Stranger"
"583",2,3,63,"Female",21,"r","h","Matching","Self","EXPERIMENT","Self","Self","Diamond","Circle","Triangle","Star","Top","n",0.700160247,1,700.160247,"Self","Self"
"584",2,3,64,"Female",21,"r","h","Nonmatching","You","EXPERIMENT","You","They","Diamond","Circle","Triangle","Star","Top","m",0.716859662,1,716.859662,"You","Stranger"
"585",2,3,65,"Female",21,"r","h","Matching","You","EXPERIMENT","You","You","Diamond","Circle","Triangle","Star","Bottom","n",0.733514465,1,733.514465,"You","Stranger"
"586",2,3,66,"Female",21,"r","h","Nonmatching","We","EXPERIMENT","We","You","Diamond","Circle","Triangle","Star","Top","m",0.666875513,1,666.875513,"We","Group-Self"
"587",2,3,67,"Female",21,"r","h","Nonmatching","Self","EXPERIMENT","Self","They","Diamond","Circle","Triangle","Star","Top","m",0.816839804,1,816.839804,"Self","Self"
"588",2,3,68,"Female",21,"r","h","Matching","Self","EXPERIMENT","Self","Self","Diamond","Circle","Triangle","Star","Bottom","n",0.533484698,1,533.484698,"Self","Self"
"589",2,3,69,"Female",21,"r","h","Matching","Self","EXPERIMENT","Self","Self","Diamond","Circle","Triangle","Star","Bottom","n",0.56687879,1,566.87879,"Self","Self"
"590",2,3,70,"Female",21,"r","h","Matching","You","EXPERIMENT","You","You","Diamond","Circle","Triangle","Star","Top","n",0.666894858,1,666.894858,"You","Stranger"
"591",2,3,71,"Female",21,"r","h","Nonmatching","You","EXPERIMENT","You","Self","Diamond","Circle","Triangle","Star","Bottom","m",0.650158727,1,650.158727,"You","Stranger"
"592",2,3,72,"Female",21,"r","h","Matching","We","EXPERIMENT","We","We","Diamond","Circle","Triangle","Star","Bottom","n",0.800143547,1,800.143547,"We","Group-Self"
