build,computer.platform,date,time,subject,group,SubGender,SubAge,SubEthnicity,SubHand,Con_match,fill,Con_shape,Con_label,Stim_Content,tasktype,nblock,TrialID,response,latency,correct,cres,NUMBER
6.2.2,win,10/21/2020,13:57:30,18091,1,Male,22,6,Right,-,-,-,-,-,Sub-Info,0,0,22,11976,1,-,1
6.2.2,win,10/21/2020,13:57:30,18091,1,Male,22,6,Right,-,-,-,-,-,Sub-Info,0,0,Male,11976,1,-,2
6.2.2,win,10/21/2020,13:57:30,18091,1,Male,22,6,Right,-,-,-,-,-,Sub-Info,0,0,6,11976,1,-,3
6.2.2,win,10/21/2020,13:57:30,18091,1,Male,22,6,Right,-,-,-,-,-,Sub-Info,0,0,Right,11976,1,-,4
6.2.2,win,10/21/2020,13:57:30,18091,1,Male,22,6,Right,-,-,-,-,-,Sub-Info,0,0,-,2693,1,-,5
6.2.2,win,10/21/2020,13:57:30,18091,1,Male,22,6,Right,-,-,-,-,-,Sub-Info,0,0,Phil,11246,1,-,6
6.2.2,win,10/21/2020,13:57:30,18091,1,Male,22,6,Right,unmatch,happy,self,stranger,ve.tif,SAT,1,1,48,894,0,v,7
6.2.2,win,10/21/2020,13:57:30,18091,1,Male,22,6,Right,match,sad,self,self,ve.tif,SAT,1,2,48,816,1,b,8
6.2.2,win,10/21/2020,13:57:30,18091,1,Male,22,6,Right,match,line,stranger,stranger,he.tif,SAT,1,3,48,566,1,b,9
6.2.2,win,10/21/2020,13:57:30,18091,1,Male,22,6,Right,unmatch,sad,stranger,self,he.tif,SAT,1,4,47,742,1,v,10
6.2.2,win,10/21/2020,13:57:30,18091,1,Male,22,6,Right,unmatch,sad,self,stranger,ve.tif,SAT,1,5,47,872,1,v,11
6.2.2,win,10/21/2020,13:57:30,18091,1,Male,22,6,Right,unmatch,line,self,stranger,ve.tif,SAT,1,6,47,1091,1,v,12
6.2.2,win,10/21/2020,13:57:30,18091,1,Male,22,6,Right,match,happy,self,self,ve.tif,SAT,1,7,48,774,1,b,13
6.2.2,win,10/21/2020,13:57:30,18091,1,Male,22,6,Right,unmatch,line,self,stranger,ve.tif,SAT,1,8,47,910,1,v,14
6.2.2,win,10/21/2020,13:57:30,18091,1,Male,22,6,Right,unmatch,sad,self,stranger,ve.tif,SAT,1,9,47,857,1,v,15
6.2.2,win,10/21/2020,13:57:30,18091,1,Male,22,6,Right,unmatch,neutral,stranger,self,he.tif,SAT,1,10,48,982,0,v,16
6.2.2,win,10/21/2020,13:57:30,18091,1,Male,22,6,Right,match,happy,stranger,stranger,he.tif,SAT,1,11,48,1140,1,b,17
6.2.2,win,10/21/2020,13:57:30,18091,1,Male,22,6,Right,unmatch,happy,self,stranger,ve.tif,SAT,1,12,47,949,1,v,18
6.2.2,win,10/21/2020,13:57:30,18091,1,Male,22,6,Right,unmatch,happy,stranger,self,he.tif,SAT,1,13,48,1013,0,v,19
6.2.2,win,10/21/2020,13:57:30,18091,1,Male,22,6,Right,unmatch,neutral,self,stranger,ve.tif,SAT,1,14,47,835,1,v,20
6.2.2,win,10/21/2020,13:57:30,18091,1,Male,22,6,Right,match,neutral,self,self,ve.tif,SAT,1,15,48,776,1,b,21
6.2.2,win,10/21/2020,13:57:30,18091,1,Male,22,6,Right,unmatch,sad,stranger,self,he.tif,SAT,1,16,47,784,1,v,22
6.2.2,win,10/21/2020,13:57:30,18091,1,Male,22,6,Right,unmatch,line,stranger,self,he.tif,SAT,1,17,48,1030,0,v,23
6.2.2,win,10/21/2020,13:57:30,18091,1,Male,22,6,Right,unmatch,line,self,stranger,ve.tif,SAT,1,18,47,1122,1,v,24
6.2.2,win,10/21/2020,13:57:30,18091,1,Male,22,6,Right,unmatch,happy,self,stranger,ve.tif,SAT,1,19,48,1413,0,v,25
6.2.2,win,10/21/2020,13:57:30,18091,1,Male,22,6,Right,match,line,self,self,ve.tif,SAT,1,20,0,1500,0,b,26
6.2.2,win,10/21/2020,13:57:30,18091,1,Male,22,6,Right,match,sad,stranger,stranger,he.tif,SAT,1,21,48,878,1,b,27
6.2.2,win,10/21/2020,13:57:30,18091,1,Male,22,6,Right,match,happy,stranger,stranger,he.tif,SAT,1,22,48,729,1,b,28
6.2.2,win,10/21/2020,13:57:30,18091,1,Male,22,6,Right,match,neutral,stranger,stranger,he.tif,SAT,1,23,48,459,1,b,29
6.2.2,win,10/21/2020,13:57:30,18091,1,Male,22,6,Right,match,happy,self,self,ve.tif,SAT,1,24,47,495,0,b,30
6.2.2,win,10/21/2020,13:57:30,18091,1,Male,22,6,Right,match,sad,stranger,stranger,he.tif,SAT,1,25,48,522,1,b,31
6.2.2,win,10/21/2020,13:57:30,18091,1,Male,22,6,Right,match,sad,self,self,ve.tif,SAT,1,26,47,667,0,b,32
6.2.2,win,10/21/2020,13:57:30,18091,1,Male,22,6,Right,match,line,self,self,ve.tif,SAT,1,27,47,807,0,b,33
6.2.2,win,10/21/2020,13:57:30,18091,1,Male,22,6,Right,unmatch,neutral,self,stranger,ve.tif,SAT,1,28,47,861,1,v,34
6.2.2,win,10/21/2020,13:57:30,18091,1,Male,22,6,Right,match,happy,self,self,ve.tif,SAT,1,29,48,824,1,b,35
6.2.2,win,10/21/2020,13:57:30,18091,1,Male,22,6,Right,unmatch,line,stranger,self,he.tif,SAT,1,30,47,942,1,v,36
6.2.2,win,10/21/2020,13:57:30,18091,1,Male,22,6,Right,match,neutral,stranger,stranger,he.tif,SAT,1,31,48,783,1,b,37
6.2.2,win,10/21/2020,13:57:30,18091,1,Male,22,6,Right,unmatch,sad,self,stranger,ve.tif,SAT,1,32,47,750,1,v,38
6.2.2,win,10/21/2020,13:57:30,18091,1,Male,22,6,Right,match,happy,self,self,ve.tif,SAT,1,33,48,997,1,b,39
6.2.2,win,10/21/2020,13:57:30,18091,1,Male,22,6,Right,unmatch,happy,stranger,self,he.tif,SAT,1,34,47,765,1,v,40
6.2.2,win,10/21/2020,13:57:30,18091,1,Male,22,6,Right,unmatch,happy,stranger,self,he.tif,SAT,1,35,47,725,1,v,41
6.2.2,win,10/21/2020,13:57:30,18091,1,Male,22,6,Right,unmatch,neutral,stranger,self,he.tif,SAT,1,36,47,655,1,v,42
6.2.2,win,10/21/2020,13:57:30,18091,1,Male,22,6,Right,unmatch,happy,self,stranger,ve.tif,SAT,1,37,48,835,0,v,43
6.2.2,win,10/21/2020,13:57:30,18091,1,Male,22,6,Right,match,happy,stranger,stranger,he.tif,SAT,1,38,48,761,1,b,44
6.2.2,win,10/21/2020,13:57:30,18091,1,Male,22,6,Right,match,sad,stranger,stranger,he.tif,SAT,1,39,48,568,1,b,45
6.2.2,win,10/21/2020,13:57:30,18091,1,Male,22,6,Right,unmatch,line,stranger,self,he.tif,SAT,1,40,48,727,0,v,46
6.2.2,win,10/21/2020,13:57:30,18091,1,Male,22,6,Right,match,happy,stranger,stranger,he.tif,SAT,1,41,48,791,1,b,47
6.2.2,win,10/21/2020,13:57:30,18091,1,Male,22,6,Right,match,line,self,self,ve.tif,SAT,1,42,47,878,0,b,48
6.2.2,win,10/21/2020,13:57:30,18091,1,Male,22,6,Right,unmatch,neutral,self,stranger,ve.tif,SAT,1,43,47,1106,1,v,49
6.2.2,win,10/21/2020,13:57:30,18091,1,Male,22,6,Right,unmatch,sad,stranger,self,he.tif,SAT,1,44,47,1172,1,v,50
6.2.2,win,10/21/2020,13:57:30,18091,1,Male,22,6,Right,unmatch,sad,stranger,self,he.tif,SAT,1,45,47,683,1,v,51
6.2.2,win,10/21/2020,13:57:30,18091,1,Male,22,6,Right,match,line,stranger,stranger,he.tif,SAT,1,46,48,805,1,b,52
6.2.2,win,10/21/2020,13:57:30,18091,1,Male,22,6,Right,match,line,self,self,ve.tif,SAT,1,47,47,674,0,b,53
6.2.2,win,10/21/2020,13:57:30,18091,1,Male,22,6,Right,unmatch,line,stranger,self,he.tif,SAT,1,48,47,735,1,v,54
6.2.2,win,10/21/2020,13:57:30,18091,1,Male,22,6,Right,match,sad,self,self,ve.tif,SAT,1,49,47,551,0,b,55
6.2.2,win,10/21/2020,13:57:30,18091,1,Male,22,6,Right,unmatch,happy,stranger,self,he.tif,SAT,1,50,47,560,1,v,56
6.2.2,win,10/21/2020,13:57:30,18091,1,Male,22,6,Right,match,neutral,stranger,stranger,he.tif,SAT,1,51,48,544,1,b,57
6.2.2,win,10/21/2020,13:57:30,18091,1,Male,22,6,Right,match,sad,stranger,stranger,he.tif,SAT,1,52,48,409,1,b,58
6.2.2,win,10/21/2020,13:57:30,18091,1,Male,22,6,Right,match,happy,stranger,stranger,he.tif,SAT,1,53,48,424,1,b,59
6.2.2,win,10/21/2020,13:57:30,18091,1,Male,22,6,Right,unmatch,happy,self,stranger,ve.tif,SAT,1,54,47,534,1,v,60
6.2.2,win,10/21/2020,13:57:30,18091,1,Male,22,6,Right,unmatch,happy,stranger,self,he.tif,SAT,1,55,48,615,0,v,61
6.2.2,win,10/21/2020,13:57:30,18091,1,Male,22,6,Right,match,neutral,self,self,ve.tif,SAT,1,56,48,501,1,b,62
6.2.2,win,10/21/2020,13:57:30,18091,1,Male,22,6,Right,unmatch,sad,stranger,self,he.tif,SAT,1,57,47,512,1,v,63
6.2.2,win,10/21/2020,13:57:30,18091,1,Male,22,6,Right,match,neutral,stranger,stranger,he.tif,SAT,1,58,48,625,1,b,64
6.2.2,win,10/21/2020,13:57:30,18091,1,Male,22,6,Right,unmatch,neutral,self,stranger,ve.tif,SAT,1,59,47,646,1,v,65
6.2.2,win,10/21/2020,13:57:30,18091,1,Male,22,6,Right,match,sad,stranger,stranger,he.tif,SAT,1,60,47,643,0,b,66
6.2.2,win,10/21/2020,13:57:30,18091,1,Male,22,6,Right,match,neutral,self,self,ve.tif,SAT,1,61,47,848,0,b,67
6.2.2,win,10/21/2020,13:57:30,18091,1,Male,22,6,Right,match,happy,self,self,ve.tif,SAT,1,62,48,533,1,b,68
6.2.2,win,10/21/2020,13:57:30,18091,1,Male,22,6,Right,unmatch,neutral,self,stranger,ve.tif,SAT,1,63,48,614,0,v,69
6.2.2,win,10/21/2020,13:57:30,18091,1,Male,22,6,Right,unmatch,neutral,stranger,self,he.tif,SAT,1,64,47,771,1,v,70
6.2.2,win,10/21/2020,13:57:30,18091,1,Male,22,6,Right,match,line,stranger,stranger,he.tif,SAT,1,65,48,682,1,b,71
6.2.2,win,10/21/2020,13:57:30,18091,1,Male,22,6,Right,match,line,self,self,ve.tif,SAT,1,66,48,862,1,b,72
6.2.2,win,10/21/2020,13:57:30,18091,1,Male,22,6,Right,unmatch,line,self,stranger,ve.tif,SAT,1,67,48,706,0,v,73
6.2.2,win,10/21/2020,13:57:30,18091,1,Male,22,6,Right,unmatch,sad,self,stranger,ve.tif,SAT,1,68,47,988,1,v,74
6.2.2,win,10/21/2020,13:57:30,18091,1,Male,22,6,Right,match,line,stranger,stranger,he.tif,SAT,1,69,48,739,1,b,75
6.2.2,win,10/21/2020,13:57:30,18091,1,Male,22,6,Right,unmatch,line,self,stranger,ve.tif,SAT,1,70,47,805,1,v,76
6.2.2,win,10/21/2020,13:57:30,18091,1,Male,22,6,Right,unmatch,neutral,stranger,self,he.tif,SAT,1,71,48,939,0,v,77
6.2.2,win,10/21/2020,13:57:30,18091,1,Male,22,6,Right,match,line,stranger,stranger,he.tif,SAT,1,72,48,669,1,b,78
6.2.2,win,10/21/2020,13:57:30,18091,1,Male,22,6,Right,match,sad,self,self,ve.tif,SAT,1,73,47,657,0,b,79
6.2.2,win,10/21/2020,13:57:30,18091,1,Male,22,6,Right,unmatch,neutral,stranger,self,he.tif,SAT,1,74,48,621,0,v,80
6.2.2,win,10/21/2020,13:57:30,18091,1,Male,22,6,Right,match,neutral,self,self,ve.tif,SAT,1,75,47,714,0,b,81
6.2.2,win,10/21/2020,13:57:30,18091,1,Male,22,6,Right,match,sad,self,self,ve.tif,SAT,1,76,47,588,0,b,82
6.2.2,win,10/21/2020,13:57:30,18091,1,Male,22,6,Right,unmatch,line,stranger,self,he.tif,SAT,1,77,47,771,1,v,83
6.2.2,win,10/21/2020,13:57:30,18091,1,Male,22,6,Right,unmatch,sad,self,stranger,ve.tif,SAT,1,78,47,724,1,v,84
6.2.2,win,10/21/2020,13:57:30,18091,1,Male,22,6,Right,match,neutral,stranger,stranger,he.tif,SAT,1,79,48,532,1,b,85
6.2.2,win,10/21/2020,13:57:30,18091,1,Male,22,6,Right,match,neutral,self,self,ve.tif,SAT,1,80,47,621,0,b,86
6.2.2,win,10/21/2020,13:57:30,18091,1,Male,22,6,Right,match,sad,self,self,ve.tif,SAT,2,1,47,837,0,b,87
6.2.2,win,10/21/2020,13:57:30,18091,1,Male,22,6,Right,match,line,self,self,ve.tif,SAT,2,2,48,930,1,b,88
6.2.2,win,10/21/2020,13:57:30,18091,1,Male,22,6,Right,match,neutral,stranger,stranger,he.tif,SAT,2,3,47,651,0,b,89
6.2.2,win,10/21/2020,13:57:30,18091,1,Male,22,6,Right,unmatch,happy,stranger,self,he.tif,SAT,2,4,47,686,1,v,90
6.2.2,win,10/21/2020,13:57:30,18091,1,Male,22,6,Right,match,neutral,self,self,ve.tif,SAT,2,5,47,698,0,b,91
6.2.2,win,10/21/2020,13:57:30,18091,1,Male,22,6,Right,match,neutral,self,self,ve.tif,SAT,2,6,47,764,0,b,92
6.2.2,win,10/21/2020,13:57:30,18091,1,Male,22,6,Right,match,line,stranger,stranger,he.tif,SAT,2,7,48,476,1,b,93
6.2.2,win,10/21/2020,13:57:30,18091,1,Male,22,6,Right,unmatch,sad,stranger,self,he.tif,SAT,2,8,48,664,0,v,94
6.2.2,win,10/21/2020,13:57:30,18091,1,Male,22,6,Right,match,line,stranger,stranger,he.tif,SAT,2,9,48,556,1,b,95
6.2.2,win,10/21/2020,13:57:30,18091,1,Male,22,6,Right,unmatch,neutral,stranger,self,he.tif,SAT,2,10,47,629,1,v,96
6.2.2,win,10/21/2020,13:57:30,18091,1,Male,22,6,Right,unmatch,happy,self,stranger,ve.tif,SAT,2,11,47,666,1,v,97
6.2.2,win,10/21/2020,13:57:30,18091,1,Male,22,6,Right,unmatch,neutral,stranger,self,he.tif,SAT,2,12,47,790,1,v,98
6.2.2,win,10/21/2020,13:57:30,18091,1,Male,22,6,Right,match,sad,stranger,stranger,he.tif,SAT,2,13,48,484,1,b,99
6.2.2,win,10/21/2020,13:57:30,18091,1,Male,22,6,Right,unmatch,neutral,stranger,self,he.tif,SAT,2,14,47,696,1,v,100
6.2.2,win,10/21/2020,13:57:30,18091,1,Male,22,6,Right,unmatch,sad,stranger,self,he.tif,SAT,2,15,47,618,1,v,101
6.2.2,win,10/21/2020,13:57:30,18091,1,Male,22,6,Right,match,neutral,stranger,stranger,he.tif,SAT,2,16,48,430,1,b,102
6.2.2,win,10/21/2020,13:57:30,18091,1,Male,22,6,Right,match,sad,stranger,stranger,he.tif,SAT,2,17,48,491,1,b,103
6.2.2,win,10/21/2020,13:57:30,18091,1,Male,22,6,Right,match,happy,self,self,ve.tif,SAT,2,18,47,542,0,b,104
6.2.2,win,10/21/2020,13:57:30,18091,1,Male,22,6,Right,match,sad,self,self,ve.tif,SAT,2,19,47,639,0,b,105
6.2.2,win,10/21/2020,13:57:30,18091,1,Male,22,6,Right,match,line,self,self,ve.tif,SAT,2,20,47,556,0,b,106
6.2.2,win,10/21/2020,13:57:30,18091,1,Male,22,6,Right,match,line,self,self,ve.tif,SAT,2,21,47,444,0,b,107
6.2.2,win,10/21/2020,13:57:30,18091,1,Male,22,6,Right,match,line,stranger,stranger,he.tif,SAT,2,22,48,625,1,b,108
6.2.2,win,10/21/2020,13:57:30,18091,1,Male,22,6,Right,unmatch,sad,stranger,self,he.tif,SAT,2,23,47,695,1,v,109
6.2.2,win,10/21/2020,13:57:30,18091,1,Male,22,6,Right,unmatch,sad,stranger,self,he.tif,SAT,2,24,47,697,1,v,110
6.2.2,win,10/21/2020,13:57:30,18091,1,Male,22,6,Right,unmatch,line,self,stranger,ve.tif,SAT,2,25,47,859,1,v,111
6.2.2,win,10/21/2020,13:57:30,18091,1,Male,22,6,Right,match,line,self,self,ve.tif,SAT,2,26,47,967,0,b,112
6.2.2,win,10/21/2020,13:57:30,18091,1,Male,22,6,Right,match,sad,self,self,ve.tif,SAT,2,27,48,583,1,b,113
6.2.2,win,10/21/2020,13:57:30,18091,1,Male,22,6,Right,unmatch,neutral,self,stranger,ve.tif,SAT,2,28,47,855,1,v,114
6.2.2,win,10/21/2020,13:57:30,18091,1,Male,22,6,Right,unmatch,neutral,self,stranger,ve.tif,SAT,2,29,47,931,1,v,115
6.2.2,win,10/21/2020,13:57:30,18091,1,Male,22,6,Right,match,happy,stranger,stranger,he.tif,SAT,2,30,48,803,1,b,116
6.2.2,win,10/21/2020,13:57:30,18091,1,Male,22,6,Right,unmatch,sad,self,stranger,ve.tif,SAT,2,31,47,657,1,v,117
6.2.2,win,10/21/2020,13:57:30,18091,1,Male,22,6,Right,unmatch,line,self,stranger,ve.tif,SAT,2,32,47,581,1,v,118
6.2.2,win,10/21/2020,13:57:30,18091,1,Male,22,6,Right,unmatch,happy,self,stranger,ve.tif,SAT,2,33,47,731,1,v,119
6.2.2,win,10/21/2020,13:57:30,18091,1,Male,22,6,Right,unmatch,happy,stranger,self,he.tif,SAT,2,34,47,756,1,v,120
6.2.2,win,10/21/2020,13:57:30,18091,1,Male,22,6,Right,unmatch,line,stranger,self,he.tif,SAT,2,35,47,684,1,v,121
6.2.2,win,10/21/2020,13:57:30,18091,1,Male,22,6,Right,match,happy,stranger,stranger,he.tif,SAT,2,36,48,575,1,b,122
6.2.2,win,10/21/2020,13:57:30,18091,1,Male,22,6,Right,unmatch,happy,self,stranger,ve.tif,SAT,2,37,47,669,1,v,123
6.2.2,win,10/21/2020,13:57:30,18091,1,Male,22,6,Right,match,sad,stranger,stranger,he.tif,SAT,2,38,48,705,1,b,124
6.2.2,win,10/21/2020,13:57:30,18091,1,Male,22,6,Right,match,happy,self,self,ve.tif,SAT,2,39,47,548,0,b,125
6.2.2,win,10/21/2020,13:57:30,18091,1,Male,22,6,Right,unmatch,happy,self,stranger,ve.tif,SAT,2,40,48,852,0,v,126
6.2.2,win,10/21/2020,13:57:30,18091,1,Male,22,6,Right,match,neutral,stranger,stranger,he.tif,SAT,2,41,48,561,1,b,127
6.2.2,win,10/21/2020,13:57:30,18091,1,Male,22,6,Right,match,neutral,stranger,stranger,he.tif,SAT,2,42,48,713,1,b,128
6.2.2,win,10/21/2020,13:57:30,18091,1,Male,22,6,Right,unmatch,sad,stranger,self,he.tif,SAT,2,43,47,603,1,v,129
6.2.2,win,10/21/2020,13:57:30,18091,1,Male,22,6,Right,match,neutral,self,self,ve.tif,SAT,2,44,47,658,0,b,130
6.2.2,win,10/21/2020,13:57:30,18091,1,Male,22,6,Right,match,neutral,self,self,ve.tif,SAT,2,45,47,575,0,b,131
6.2.2,win,10/21/2020,13:57:30,18091,1,Male,22,6,Right,unmatch,happy,stranger,self,he.tif,SAT,2,46,47,863,1,v,132
6.2.2,win,10/21/2020,13:57:30,18091,1,Male,22,6,Right,unmatch,sad,self,stranger,ve.tif,SAT,2,47,48,659,0,v,133
6.2.2,win,10/21/2020,13:57:30,18091,1,Male,22,6,Right,match,happy,self,self,ve.tif,SAT,2,48,47,631,0,b,134
6.2.2,win,10/21/2020,13:57:30,18091,1,Male,22,6,Right,match,sad,stranger,stranger,he.tif,SAT,2,49,48,581,1,b,135
6.2.2,win,10/21/2020,13:57:30,18091,1,Male,22,6,Right,match,sad,self,self,ve.tif,SAT,2,50,47,652,0,b,136
6.2.2,win,10/21/2020,13:57:30,18091,1,Male,22,6,Right,unmatch,sad,self,stranger,ve.tif,SAT,2,51,48,744,0,v,137
6.2.2,win,10/21/2020,13:57:30,18091,1,Male,22,6,Right,match,happy,self,self,ve.tif,SAT,2,52,48,801,1,b,138
6.2.2,win,10/21/2020,13:57:30,18091,1,Male,22,6,Right,match,neutral,self,self,ve.tif,SAT,2,53,47,743,0,b,139
6.2.2,win,10/21/2020,13:57:30,18091,1,Male,22,6,Right,unmatch,line,stranger,self,he.tif,SAT,2,54,47,832,1,v,140
6.2.2,win,10/21/2020,13:57:30,18091,1,Male,22,6,Right,unmatch,neutral,self,stranger,ve.tif,SAT,2,55,47,821,1,v,141
6.2.2,win,10/21/2020,13:57:30,18091,1,Male,22,6,Right,match,line,stranger,stranger,he.tif,SAT,2,56,48,587,1,b,142
6.2.2,win,10/21/2020,13:57:30,18091,1,Male,22,6,Right,unmatch,line,self,stranger,ve.tif,SAT,2,57,48,873,0,v,143
6.2.2,win,10/21/2020,13:57:30,18091,1,Male,22,6,Right,unmatch,line,self,stranger,ve.tif,SAT,2,58,47,644,1,v,144
6.2.2,win,10/21/2020,13:57:30,18091,1,Male,22,6,Right,unmatch,happy,self,stranger,ve.tif,SAT,2,59,47,689,1,v,145
6.2.2,win,10/21/2020,13:57:30,18091,1,Male,22,6,Right,unmatch,sad,self,stranger,ve.tif,SAT,2,60,47,531,1,v,146
6.2.2,win,10/21/2020,13:57:30,18091,1,Male,22,6,Right,unmatch,neutral,stranger,self,he.tif,SAT,2,61,47,653,1,v,147
6.2.2,win,10/21/2020,13:57:30,18091,1,Male,22,6,Right,unmatch,neutral,stranger,self,he.tif,SAT,2,62,47,633,1,v,148
6.2.2,win,10/21/2020,13:57:30,18091,1,Male,22,6,Right,unmatch,line,stranger,self,he.tif,SAT,2,63,47,551,1,v,149
6.2.2,win,10/21/2020,13:57:30,18091,1,Male,22,6,Right,match,sad,self,self,ve.tif,SAT,2,64,47,527,0,b,150
6.2.2,win,10/21/2020,13:57:30,18091,1,Male,22,6,Right,unmatch,neutral,self,stranger,ve.tif,SAT,2,65,47,528,1,v,151
6.2.2,win,10/21/2020,13:57:30,18091,1,Male,22,6,Right,unmatch,line,self,stranger,ve.tif,SAT,2,66,47,658,1,v,152
6.2.2,win,10/21/2020,13:57:30,18091,1,Male,22,6,Right,unmatch,neutral,self,stranger,ve.tif,SAT,2,67,47,551,1,v,153
6.2.2,win,10/21/2020,13:57:30,18091,1,Male,22,6,Right,unmatch,sad,self,stranger,ve.tif,SAT,2,68,47,511,1,v,154
6.2.2,win,10/21/2020,13:57:30,18091,1,Male,22,6,Right,match,happy,stranger,stranger,he.tif,SAT,2,69,48,713,1,b,155
6.2.2,win,10/21/2020,13:57:30,18091,1,Male,22,6,Right,unmatch,line,stranger,self,he.tif,SAT,2,70,47,737,1,v,156
6.2.2,win,10/21/2020,13:57:30,18091,1,Male,22,6,Right,match,happy,stranger,stranger,he.tif,SAT,2,71,48,594,1,b,157
6.2.2,win,10/21/2020,13:57:30,18091,1,Male,22,6,Right,match,happy,self,self,ve.tif,SAT,2,72,48,793,1,b,158
6.2.2,win,10/21/2020,13:57:30,18091,1,Male,22,6,Right,match,sad,stranger,stranger,he.tif,SAT,2,73,48,639,1,b,159
6.2.2,win,10/21/2020,13:57:30,18091,1,Male,22,6,Right,unmatch,happy,stranger,self,he.tif,SAT,2,74,47,659,1,v,160
6.2.2,win,10/21/2020,13:57:30,18091,1,Male,22,6,Right,match,happy,stranger,stranger,he.tif,SAT,2,75,47,801,0,b,161
6.2.2,win,10/21/2020,13:57:30,18091,1,Male,22,6,Right,unmatch,happy,stranger,self,he.tif,SAT,2,76,47,615,1,v,162
6.2.2,win,10/21/2020,13:57:30,18091,1,Male,22,6,Right,match,neutral,stranger,stranger,he.tif,SAT,2,77,48,508,1,b,163
6.2.2,win,10/21/2020,13:57:30,18091,1,Male,22,6,Right,unmatch,line,stranger,self,he.tif,SAT,2,78,47,549,1,v,164
6.2.2,win,10/21/2020,13:57:30,18091,1,Male,22,6,Right,match,line,self,self,ve.tif,SAT,2,79,47,590,0,b,165
6.2.2,win,10/21/2020,13:57:30,18091,1,Male,22,6,Right,match,line,stranger,stranger,he.tif,SAT,2,80,48,852,1,b,166
6.2.2,win,10/21/2020,13:57:30,18091,1,Male,22,6,Right,match,neutral,self,self,ve.tif,SAT,3,1,47,1208,0,b,167
6.2.2,win,10/21/2020,13:57:30,18091,1,Male,22,6,Right,unmatch,line,self,stranger,ve.tif,SAT,3,2,48,724,0,v,168
6.2.2,win,10/21/2020,13:57:30,18091,1,Male,22,6,Right,match,sad,self,self,ve.tif,SAT,3,3,47,550,0,b,169
6.2.2,win,10/21/2020,13:57:30,18091,1,Male,22,6,Right,unmatch,neutral,self,stranger,ve.tif,SAT,3,4,47,725,1,v,170
6.2.2,win,10/21/2020,13:57:30,18091,1,Male,22,6,Right,match,happy,stranger,stranger,he.tif,SAT,3,5,48,647,1,b,171
6.2.2,win,10/21/2020,13:57:30,18091,1,Male,22,6,Right,match,neutral,stranger,stranger,he.tif,SAT,3,6,48,588,1,b,172
6.2.2,win,10/21/2020,13:57:30,18091,1,Male,22,6,Right,unmatch,neutral,stranger,self,he.tif,SAT,3,7,47,538,1,v,173
6.2.2,win,10/21/2020,13:57:30,18091,1,Male,22,6,Right,match,happy,stranger,stranger,he.tif,SAT,3,8,48,609,1,b,174
6.2.2,win,10/21/2020,13:57:30,18091,1,Male,22,6,Right,unmatch,happy,self,stranger,ve.tif,SAT,3,9,47,641,1,v,175
6.2.2,win,10/21/2020,13:57:30,18091,1,Male,22,6,Right,unmatch,neutral,self,stranger,ve.tif,SAT,3,10,47,485,1,v,176
6.2.2,win,10/21/2020,13:57:30,18091,1,Male,22,6,Right,match,sad,stranger,stranger,he.tif,SAT,3,11,48,479,1,b,177
6.2.2,win,10/21/2020,13:57:30,18091,1,Male,22,6,Right,unmatch,sad,self,stranger,ve.tif,SAT,3,12,47,443,1,v,178
6.2.2,win,10/21/2020,13:57:30,18091,1,Male,22,6,Right,unmatch,happy,stranger,self,he.tif,SAT,3,13,48,472,0,v,179
6.2.2,win,10/21/2020,13:57:30,18091,1,Male,22,6,Right,match,neutral,self,self,ve.tif,SAT,3,14,47,523,0,b,180
6.2.2,win,10/21/2020,13:57:30,18091,1,Male,22,6,Right,match,sad,self,self,ve.tif,SAT,3,15,47,518,0,b,181
6.2.2,win,10/21/2020,13:57:30,18091,1,Male,22,6,Right,match,line,stranger,stranger,he.tif,SAT,3,16,47,527,0,b,182
6.2.2,win,10/21/2020,13:57:30,18091,1,Male,22,6,Right,unmatch,sad,self,stranger,ve.tif,SAT,3,17,47,777,1,v,183
6.2.2,win,10/21/2020,13:57:30,18091,1,Male,22,6,Right,unmatch,sad,self,stranger,ve.tif,SAT,3,18,47,488,1,v,184
6.2.2,win,10/21/2020,13:57:30,18091,1,Male,22,6,Right,unmatch,neutral,stranger,self,he.tif,SAT,3,19,48,571,0,v,185
6.2.2,win,10/21/2020,13:57:30,18091,1,Male,22,6,Right,unmatch,happy,self,stranger,ve.tif,SAT,3,20,48,514,0,v,186
6.2.2,win,10/21/2020,13:57:30,18091,1,Male,22,6,Right,match,happy,self,self,ve.tif,SAT,3,21,47,780,0,b,187
6.2.2,win,10/21/2020,13:57:30,18091,1,Male,22,6,Right,match,happy,stranger,stranger,he.tif,SAT,3,22,48,546,1,b,188
6.2.2,win,10/21/2020,13:57:30,18091,1,Male,22,6,Right,match,sad,stranger,stranger,he.tif,SAT,3,23,48,522,1,b,189
6.2.2,win,10/21/2020,13:57:30,18091,1,Male,22,6,Right,unmatch,happy,stranger,self,he.tif,SAT,3,24,47,740,1,v,190
6.2.2,win,10/21/2020,13:57:30,18091,1,Male,22,6,Right,unmatch,neutral,self,stranger,ve.tif,SAT,3,25,47,772,1,v,191
6.2.2,win,10/21/2020,13:57:30,18091,1,Male,22,6,Right,match,line,self,self,ve.tif,SAT,3,26,47,629,0,b,192
6.2.2,win,10/21/2020,13:57:30,18091,1,Male,22,6,Right,unmatch,line,self,stranger,ve.tif,SAT,3,27,47,729,1,v,193
6.2.2,win,10/21/2020,13:57:30,18091,1,Male,22,6,Right,match,line,stranger,stranger,he.tif,SAT,3,28,48,595,1,b,194
6.2.2,win,10/21/2020,13:57:30,18091,1,Male,22,6,Right,match,line,self,self,ve.tif,SAT,3,29,48,1015,1,b,195
6.2.2,win,10/21/2020,13:57:30,18091,1,Male,22,6,Right,unmatch,happy,stranger,self,he.tif,SAT,3,30,47,742,1,v,196
6.2.2,win,10/21/2020,13:57:30,18091,1,Male,22,6,Right,match,line,stranger,stranger,he.tif,SAT,3,31,48,599,1,b,197
6.2.2,win,10/21/2020,13:57:30,18091,1,Male,22,6,Right,match,happy,self,self,ve.tif,SAT,3,32,47,685,0,b,198
6.2.2,win,10/21/2020,13:57:30,18091,1,Male,22,6,Right,match,neutral,stranger,stranger,he.tif,SAT,3,33,48,656,1,b,199
6.2.2,win,10/21/2020,13:57:30,18091,1,Male,22,6,Right,unmatch,sad,self,stranger,ve.tif,SAT,3,34,48,1092,0,v,200
6.2.2,win,10/21/2020,13:57:30,18091,1,Male,22,6,Right,unmatch,sad,stranger,self,he.tif,SAT,3,35,47,623,1,v,201
6.2.2,win,10/21/2020,13:57:30,18091,1,Male,22,6,Right,match,line,self,self,ve.tif,SAT,3,36,48,965,1,b,202
6.2.2,win,10/21/2020,13:57:30,18091,1,Male,22,6,Right,match,happy,self,self,ve.tif,SAT,3,37,47,941,0,b,203
6.2.2,win,10/21/2020,13:57:30,18091,1,Male,22,6,Right,match,line,self,self,ve.tif,SAT,3,38,48,580,1,b,204
6.2.2,win,10/21/2020,13:57:30,18091,1,Male,22,6,Right,match,sad,self,self,ve.tif,SAT,3,39,48,547,1,b,205
6.2.2,win,10/21/2020,13:57:30,18091,1,Male,22,6,Right,match,sad,self,self,ve.tif,SAT,3,40,48,484,1,b,206
6.2.2,win,10/21/2020,13:57:30,18091,1,Male,22,6,Right,unmatch,sad,stranger,self,he.tif,SAT,3,41,47,1007,1,v,207
6.2.2,win,10/21/2020,13:57:30,18091,1,Male,22,6,Right,match,happy,self,self,ve.tif,SAT,3,42,47,614,0,b,208
6.2.2,win,10/21/2020,13:57:30,18091,1,Male,22,6,Right,unmatch,line,self,stranger,ve.tif,SAT,3,43,48,571,0,v,209
6.2.2,win,10/21/2020,13:57:30,18091,1,Male,22,6,Right,unmatch,neutral,self,stranger,ve.tif,SAT,3,44,47,771,1,v,210
6.2.2,win,10/21/2020,13:57:30,18091,1,Male,22,6,Right,match,neutral,stranger,stranger,he.tif,SAT,3,45,48,699,1,b,211
6.2.2,win,10/21/2020,13:57:30,18091,1,Male,22,6,Right,match,line,stranger,stranger,he.tif,SAT,3,46,48,518,1,b,212
6.2.2,win,10/21/2020,13:57:30,18091,1,Male,22,6,Right,match,happy,self,self,ve.tif,SAT,3,47,47,560,0,b,213
6.2.2,win,10/21/2020,13:57:30,18091,1,Male,22,6,Right,match,neutral,self,self,ve.tif,SAT,3,48,47,526,0,b,214
6.2.2,win,10/21/2020,13:57:30,18091,1,Male,22,6,Right,unmatch,line,stranger,self,he.tif,SAT,3,49,47,625,1,v,215
6.2.2,win,10/21/2020,13:57:30,18091,1,Male,22,6,Right,match,happy,stranger,stranger,he.tif,SAT,3,50,48,615,1,b,216
6.2.2,win,10/21/2020,13:57:30,18091,1,Male,22,6,Right,unmatch,neutral,stranger,self,he.tif,SAT,3,51,47,636,1,v,217
6.2.2,win,10/21/2020,13:57:30,18091,1,Male,22,6,Right,match,neutral,stranger,stranger,he.tif,SAT,3,52,48,561,1,b,218
6.2.2,win,10/21/2020,13:57:30,18091,1,Male,22,6,Right,unmatch,happy,self,stranger,ve.tif,SAT,3,53,47,633,1,v,219
6.2.2,win,10/21/2020,13:57:30,18091,1,Male,22,6,Right,unmatch,sad,stranger,self,he.tif,SAT,3,54,47,599,1,v,220
6.2.2,win,10/21/2020,13:57:30,18091,1,Male,22,6,Right,match,sad,stranger,stranger,he.tif,SAT,3,55,48,485,1,b,221
6.2.2,win,10/21/2020,13:57:30,18091,1,Male,22,6,Right,unmatch,neutral,stranger,self,he.tif,SAT,3,56,47,569,1,v,222
6.2.2,win,10/21/2020,13:57:30,18091,1,Male,22,6,Right,unmatch,sad,stranger,self,he.tif,SAT,3,57,47,505,1,v,223
6.2.2,win,10/21/2020,13:57:30,18091,1,Male,22,6,Right,unmatch,happy,stranger,self,he.tif,SAT,3,58,48,683,0,v,224
6.2.2,win,10/21/2020,13:57:30,18091,1,Male,22,6,Right,match,neutral,stranger,stranger,he.tif,SAT,3,59,48,526,1,b,225
6.2.2,win,10/21/2020,13:57:30,18091,1,Male,22,6,Right,match,sad,stranger,stranger,he.tif,SAT,3,60,48,535,1,b,226
6.2.2,win,10/21/2020,13:57:30,18091,1,Male,22,6,Right,unmatch,neutral,stranger,self,he.tif,SAT,3,61,47,625,1,v,227
6.2.2,win,10/21/2020,13:57:30,18091,1,Male,22,6,Right,unmatch,sad,stranger,self,he.tif,SAT,3,62,47,477,1,v,228
6.2.2,win,10/21/2020,13:57:30,18091,1,Male,22,6,Right,match,neutral,self,self,ve.tif,SAT,3,63,47,528,0,b,229
6.2.2,win,10/21/2020,13:57:30,18091,1,Male,22,6,Right,unmatch,happy,self,stranger,ve.tif,SAT,3,64,48,535,0,v,230
6.2.2,win,10/21/2020,13:57:30,18091,1,Male,22,6,Right,match,sad,stranger,stranger,he.tif,SAT,3,65,48,658,1,b,231
6.2.2,win,10/21/2020,13:57:30,18091,1,Male,22,6,Right,unmatch,line,stranger,self,he.tif,SAT,3,66,47,590,1,v,232
6.2.2,win,10/21/2020,13:57:30,18091,1,Male,22,6,Right,unmatch,line,stranger,self,he.tif,SAT,3,67,47,517,1,v,233
6.2.2,win,10/21/2020,13:57:30,18091,1,Male,22,6,Right,unmatch,line,stranger,self,he.tif,SAT,3,68,47,518,1,v,234
6.2.2,win,10/21/2020,13:57:30,18091,1,Male,22,6,Right,match,happy,stranger,stranger,he.tif,SAT,3,69,48,576,1,b,235
6.2.2,win,10/21/2020,13:57:30,18091,1,Male,22,6,Right,match,neutral,self,self,ve.tif,SAT,3,70,47,528,0,b,236
6.2.2,win,10/21/2020,13:57:30,18091,1,Male,22,6,Right,unmatch,neutral,self,stranger,ve.tif,SAT,3,71,48,714,0,v,237
6.2.2,win,10/21/2020,13:57:30,18091,1,Male,22,6,Right,match,line,self,self,ve.tif,SAT,3,72,47,682,0,b,238
6.2.2,win,10/21/2020,13:57:30,18091,1,Male,22,6,Right,unmatch,line,self,stranger,ve.tif,SAT,3,73,48,462,0,v,239
6.2.2,win,10/21/2020,13:57:30,18091,1,Male,22,6,Right,unmatch,happy,self,stranger,ve.tif,SAT,3,74,47,634,1,v,240
6.2.2,win,10/21/2020,13:57:30,18091,1,Male,22,6,Right,match,line,stranger,stranger,he.tif,SAT,3,75,48,519,1,b,241
6.2.2,win,10/21/2020,13:57:30,18091,1,Male,22,6,Right,unmatch,sad,self,stranger,ve.tif,SAT,3,76,47,745,1,v,242
6.2.2,win,10/21/2020,13:57:30,18091,1,Male,22,6,Right,unmatch,line,self,stranger,ve.tif,SAT,3,77,47,730,1,v,243
6.2.2,win,10/21/2020,13:57:30,18091,1,Male,22,6,Right,unmatch,happy,stranger,self,he.tif,SAT,3,78,48,474,0,v,244
6.2.2,win,10/21/2020,13:57:30,18091,1,Male,22,6,Right,unmatch,line,stranger,self,he.tif,SAT,3,79,47,581,1,v,245
6.2.2,win,10/21/2020,13:57:30,18091,1,Male,22,6,Right,match,sad,self,self,ve.tif,SAT,3,80,47,556,0,b,246
6.2.2,win,10/21/2020,13:57:30,18091,1,Male,22,6,Right,unmatch,line,self,stranger,ve.tif,SAT,4,1,0,1500,0,v,247
6.2.2,win,10/21/2020,13:57:30,18091,1,Male,22,6,Right,match,neutral,self,self,ve.tif,SAT,4,2,0,1500,0,b,248
6.2.2,win,10/21/2020,13:57:30,18091,1,Male,22,6,Right,match,neutral,self,self,ve.tif,SAT,4,3,48,914,1,b,249
6.2.2,win,10/21/2020,13:57:30,18091,1,Male,22,6,Right,unmatch,line,stranger,self,he.tif,SAT,4,4,47,572,1,v,250
6.2.2,win,10/21/2020,13:57:30,18091,1,Male,22,6,Right,match,sad,stranger,stranger,he.tif,SAT,4,5,48,596,1,b,251
6.2.2,win,10/21/2020,13:57:30,18091,1,Male,22,6,Right,match,happy,self,self,ve.tif,SAT,4,6,47,626,0,b,252
6.2.2,win,10/21/2020,13:57:30,18091,1,Male,22,6,Right,match,sad,self,self,ve.tif,SAT,4,7,48,663,1,b,253
6.2.2,win,10/21/2020,13:57:30,18091,1,Male,22,6,Right,match,sad,stranger,stranger,he.tif,SAT,4,8,48,611,1,b,254
6.2.2,win,10/21/2020,13:57:30,18091,1,Male,22,6,Right,unmatch,sad,stranger,self,he.tif,SAT,4,9,47,673,1,v,255
6.2.2,win,10/21/2020,13:57:30,18091,1,Male,22,6,Right,unmatch,neutral,self,stranger,ve.tif,SAT,4,10,48,733,0,v,256
6.2.2,win,10/21/2020,13:57:30,18091,1,Male,22,6,Right,unmatch,happy,stranger,self,he.tif,SAT,4,11,47,773,1,v,257
6.2.2,win,10/21/2020,13:57:30,18091,1,Male,22,6,Right,match,neutral,stranger,stranger,he.tif,SAT,4,12,48,716,1,b,258
6.2.2,win,10/21/2020,13:57:30,18091,1,Male,22,6,Right,unmatch,line,self,stranger,ve.tif,SAT,4,13,47,822,1,v,259
6.2.2,win,10/21/2020,13:57:30,18091,1,Male,22,6,Right,match,line,self,self,ve.tif,SAT,4,14,47,498,0,b,260
6.2.2,win,10/21/2020,13:57:30,18091,1,Male,22,6,Right,unmatch,neutral,self,stranger,ve.tif,SAT,4,15,47,796,1,v,261
6.2.2,win,10/21/2020,13:57:30,18091,1,Male,22,6,Right,match,sad,stranger,stranger,he.tif,SAT,4,16,48,731,1,b,262
6.2.2,win,10/21/2020,13:57:30,18091,1,Male,22,6,Right,unmatch,happy,self,stranger,ve.tif,SAT,4,17,47,700,1,v,263
6.2.2,win,10/21/2020,13:57:30,18091,1,Male,22,6,Right,unmatch,happy,self,stranger,ve.tif,SAT,4,18,47,687,1,v,264
6.2.2,win,10/21/2020,13:57:30,18091,1,Male,22,6,Right,match,line,stranger,stranger,he.tif,SAT,4,19,0,1500,0,b,265
6.2.2,win,10/21/2020,13:57:30,18091,1,Male,22,6,Right,unmatch,line,self,stranger,ve.tif,SAT,4,20,47,797,1,v,266
6.2.2,win,10/21/2020,13:57:30,18091,1,Male,22,6,Right,unmatch,happy,stranger,self,he.tif,SAT,4,21,47,852,1,v,267
6.2.2,win,10/21/2020,13:57:30,18091,1,Male,22,6,Right,match,neutral,self,self,ve.tif,SAT,4,22,48,920,1,b,268
6.2.2,win,10/21/2020,13:57:30,18091,1,Male,22,6,Right,match,neutral,stranger,stranger,he.tif,SAT,4,23,47,690,0,b,269
6.2.2,win,10/21/2020,13:57:30,18091,1,Male,22,6,Right,match,neutral,stranger,stranger,he.tif,SAT,4,24,48,724,1,b,270
6.2.2,win,10/21/2020,13:57:30,18091,1,Male,22,6,Right,unmatch,sad,stranger,self,he.tif,SAT,4,25,48,438,0,v,271
6.2.2,win,10/21/2020,13:57:30,18091,1,Male,22,6,Right,match,sad,self,self,ve.tif,SAT,4,26,47,675,0,b,272
6.2.2,win,10/21/2020,13:57:30,18091,1,Male,22,6,Right,unmatch,sad,stranger,self,he.tif,SAT,4,27,47,862,1,v,273
6.2.2,win,10/21/2020,13:57:30,18091,1,Male,22,6,Right,match,neutral,stranger,stranger,he.tif,SAT,4,28,48,770,1,b,274
6.2.2,win,10/21/2020,13:57:30,18091,1,Male,22,6,Right,unmatch,neutral,stranger,self,he.tif,SAT,4,29,47,826,1,v,275
6.2.2,win,10/21/2020,13:57:30,18091,1,Male,22,6,Right,unmatch,sad,stranger,self,he.tif,SAT,4,30,47,879,1,v,276
6.2.2,win,10/21/2020,13:57:30,18091,1,Male,22,6,Right,match,sad,stranger,stranger,he.tif,SAT,4,31,0,1500,0,b,277
6.2.2,win,10/21/2020,13:57:30,18091,1,Male,22,6,Right,unmatch,line,stranger,self,he.tif,SAT,4,32,0,1500,0,v,278
6.2.2,win,10/21/2020,13:57:30,18091,1,Male,22,6,Right,unmatch,sad,self,stranger,ve.tif,SAT,4,33,47,1152,1,v,279
6.2.2,win,10/21/2020,13:57:30,18091,1,Male,22,6,Right,unmatch,sad,self,stranger,ve.tif,SAT,4,34,48,544,0,v,280
6.2.2,win,10/21/2020,13:57:30,18091,1,Male,22,6,Right,match,neutral,self,self,ve.tif,SAT,4,35,0,1500,0,b,281
6.2.2,win,10/21/2020,13:57:30,18091,1,Male,22,6,Right,unmatch,line,stranger,self,he.tif,SAT,4,36,0,1500,0,v,282
6.2.2,win,10/21/2020,13:57:30,18091,1,Male,22,6,Right,unmatch,neutral,stranger,self,he.tif,SAT,4,37,47,965,1,v,283
6.2.2,win,10/21/2020,13:57:30,18091,1,Male,22,6,Right,match,line,self,self,ve.tif,SAT,4,38,0,1500,0,b,284
6.2.2,win,10/21/2020,13:57:30,18091,1,Male,22,6,Right,unmatch,sad,self,stranger,ve.tif,SAT,4,39,0,1500,0,v,285
6.2.2,win,10/21/2020,13:57:30,18091,1,Male,22,6,Right,unmatch,line,self,stranger,ve.tif,SAT,4,40,0,1500,0,v,286
6.2.2,win,10/21/2020,13:57:30,18091,1,Male,22,6,Right,match,line,stranger,stranger,he.tif,SAT,4,41,48,676,1,b,287
6.2.2,win,10/21/2020,13:57:30,18091,1,Male,22,6,Right,unmatch,sad,self,stranger,ve.tif,SAT,4,42,47,511,1,v,288
6.2.2,win,10/21/2020,13:57:30,18091,1,Male,22,6,Right,unmatch,neutral,stranger,self,he.tif,SAT,4,43,47,585,1,v,289
6.2.2,win,10/21/2020,13:57:30,18091,1,Male,22,6,Right,match,happy,self,self,ve.tif,SAT,4,44,0,1500,0,b,290
6.2.2,win,10/21/2020,13:57:30,18091,1,Male,22,6,Right,unmatch,neutral,self,stranger,ve.tif,SAT,4,45,47,737,1,v,291
6.2.2,win,10/21/2020,13:57:30,18091,1,Male,22,6,Right,match,happy,stranger,stranger,he.tif,SAT,4,46,48,834,1,b,292
6.2.2,win,10/21/2020,13:57:30,18091,1,Male,22,6,Right,match,happy,self,self,ve.tif,SAT,4,47,47,543,0,b,293
6.2.2,win,10/21/2020,13:57:30,18091,1,Male,22,6,Right,unmatch,happy,self,stranger,ve.tif,SAT,4,48,48,777,0,v,294
6.2.2,win,10/21/2020,13:57:30,18091,1,Male,22,6,Right,match,happy,stranger,stranger,he.tif,SAT,4,49,48,615,1,b,295
6.2.2,win,10/21/2020,13:57:30,18091,1,Male,22,6,Right,match,neutral,stranger,stranger,he.tif,SAT,4,50,48,572,1,b,296
6.2.2,win,10/21/2020,13:57:30,18091,1,Male,22,6,Right,unmatch,neutral,stranger,self,he.tif,SAT,4,51,47,596,1,v,297
6.2.2,win,10/21/2020,13:57:30,18091,1,Male,22,6,Right,match,happy,self,self,ve.tif,SAT,4,52,47,699,0,b,298
6.2.2,win,10/21/2020,13:57:30,18091,1,Male,22,6,Right,match,sad,self,self,ve.tif,SAT,4,53,48,565,1,b,299
6.2.2,win,10/21/2020,13:57:30,18091,1,Male,22,6,Right,match,line,stranger,stranger,he.tif,SAT,4,54,48,525,1,b,300
6.2.2,win,10/21/2020,13:57:30,18091,1,Male,22,6,Right,unmatch,happy,self,stranger,ve.tif,SAT,4,55,47,599,1,v,301
6.2.2,win,10/21/2020,13:57:30,18091,1,Male,22,6,Right,match,line,self,self,ve.tif,SAT,4,56,47,757,0,b,302
6.2.2,win,10/21/2020,13:57:30,18091,1,Male,22,6,Right,match,sad,self,self,ve.tif,SAT,4,57,48,757,1,b,303
6.2.2,win,10/21/2020,13:57:30,18091,1,Male,22,6,Right,match,happy,stranger,stranger,he.tif,SAT,4,58,48,654,1,b,304
6.2.2,win,10/21/2020,13:57:30,18091,1,Male,22,6,Right,match,happy,self,self,ve.tif,SAT,4,59,47,778,0,b,305
6.2.2,win,10/21/2020,13:57:30,18091,1,Male,22,6,Right,unmatch,sad,self,stranger,ve.tif,SAT,4,60,47,857,1,v,306
6.2.2,win,10/21/2020,13:57:30,18091,1,Male,22,6,Right,unmatch,line,self,stranger,ve.tif,SAT,4,61,0,1500,0,v,307
6.2.2,win,10/21/2020,13:57:30,18091,1,Male,22,6,Right,match,line,self,self,ve.tif,SAT,4,62,48,998,1,b,308
6.2.2,win,10/21/2020,13:57:30,18091,1,Male,22,6,Right,unmatch,neutral,self,stranger,ve.tif,SAT,4,63,0,1500,0,v,309
6.2.2,win,10/21/2020,13:57:30,18091,1,Male,22,6,Right,unmatch,happy,stranger,self,he.tif,SAT,4,64,47,719,1,v,310
6.2.2,win,10/21/2020,13:57:30,18091,1,Male,22,6,Right,match,line,stranger,stranger,he.tif,SAT,4,65,0,1500,0,b,311
6.2.2,win,10/21/2020,13:57:30,18091,1,Male,22,6,Right,match,line,self,self,ve.tif,SAT,4,66,48,836,1,b,312
6.2.2,win,10/21/2020,13:57:30,18091,1,Male,22,6,Right,unmatch,neutral,self,stranger,ve.tif,SAT,4,67,47,599,1,v,313
6.2.2,win,10/21/2020,13:57:30,18091,1,Male,22,6,Right,match,happy,stranger,stranger,he.tif,SAT,4,68,48,1023,1,b,314
6.2.2,win,10/21/2020,13:57:30,18091,1,Male,22,6,Right,match,happy,stranger,stranger,he.tif,SAT,4,69,48,468,1,b,315
6.2.2,win,10/21/2020,13:57:30,18091,1,Male,22,6,Right,unmatch,neutral,stranger,self,he.tif,SAT,4,70,48,808,0,v,316
6.2.2,win,10/21/2020,13:57:30,18091,1,Male,22,6,Right,unmatch,happy,self,stranger,ve.tif,SAT,4,71,47,647,1,v,317
6.2.2,win,10/21/2020,13:57:30,18091,1,Male,22,6,Right,unmatch,happy,stranger,self,he.tif,SAT,4,72,47,827,1,v,318
6.2.2,win,10/21/2020,13:57:30,18091,1,Male,22,6,Right,match,neutral,self,self,ve.tif,SAT,4,73,47,729,0,b,319
6.2.2,win,10/21/2020,13:57:30,18091,1,Male,22,6,Right,match,sad,stranger,stranger,he.tif,SAT,4,74,48,515,1,b,320
6.2.2,win,10/21/2020,13:57:30,18091,1,Male,22,6,Right,unmatch,happy,stranger,self,he.tif,SAT,4,75,47,788,1,v,321
6.2.2,win,10/21/2020,13:57:30,18091,1,Male,22,6,Right,unmatch,line,stranger,self,he.tif,SAT,4,76,47,699,1,v,322
6.2.2,win,10/21/2020,13:57:30,18091,1,Male,22,6,Right,unmatch,sad,stranger,self,he.tif,SAT,4,77,47,557,1,v,323
6.2.2,win,10/21/2020,13:57:30,18091,1,Male,22,6,Right,unmatch,line,stranger,self,he.tif,SAT,4,78,47,694,1,v,324
6.2.2,win,10/21/2020,13:57:30,18091,1,Male,22,6,Right,match,line,stranger,stranger,he.tif,SAT,4,79,48,441,1,b,325
6.2.2,win,10/21/2020,13:57:30,18091,1,Male,22,6,Right,match,sad,self,self,ve.tif,SAT,4,80,47,591,0,b,326
6.2.2,win,10/21/2020,13:57:30,18091,1,Male,22,6,Right,match,sad,self,self,ve.tif,PWB,4,80,3,589253,1,b,327
6.2.2,win,10/21/2020,13:57:30,18091,1,Male,22,6,Right,match,sad,self,self,ve.tif,PWB,4,80,4,589253,1,b,328
6.2.2,win,10/21/2020,13:57:30,18091,1,Male,22,6,Right,match,sad,self,self,ve.tif,PWB,4,80,3,589253,1,b,329
6.2.2,win,10/21/2020,13:57:30,18091,1,Male,22,6,Right,match,sad,self,self,ve.tif,PWB,4,80,2,589253,1,b,330
6.2.2,win,10/21/2020,13:57:30,18091,1,Male,22,6,Right,match,sad,self,self,ve.tif,PWB,4,80,3,589253,1,b,331
6.2.2,win,10/21/2020,13:57:30,18091,1,Male,22,6,Right,match,sad,self,self,ve.tif,PWB,4,80,3,589253,1,b,332
6.2.2,win,10/21/2020,13:57:30,18091,1,Male,22,6,Right,match,sad,self,self,ve.tif,PWB,4,80,6,589253,1,b,333
6.2.2,win,10/21/2020,13:57:30,18091,1,Male,22,6,Right,match,sad,self,self,ve.tif,PWB,4,80,5,589253,1,b,334
6.2.2,win,10/21/2020,13:57:30,18091,1,Male,22,6,Right,match,sad,self,self,ve.tif,PWB,4,80,3,589253,1,b,335
6.2.2,win,10/21/2020,13:57:30,18091,1,Male,22,6,Right,match,sad,self,self,ve.tif,PWB,4,80,7,589253,1,b,336
6.2.2,win,10/21/2020,13:57:30,18091,1,Male,22,6,Right,match,sad,self,self,ve.tif,PWB,4,80,2,589253,1,b,337
6.2.2,win,10/21/2020,13:57:30,18091,1,Male,22,6,Right,match,sad,self,self,ve.tif,PWB,4,80,1,589253,1,b,338
6.2.2,win,10/21/2020,13:57:30,18091,1,Male,22,6,Right,match,sad,self,self,ve.tif,PWB,4,80,1,589253,1,b,339
6.2.2,win,10/21/2020,13:57:30,18091,1,Male,22,6,Right,match,sad,self,self,ve.tif,PWB,4,80,6,589253,1,b,340
6.2.2,win,10/21/2020,13:57:30,18091,1,Male,22,6,Right,match,sad,self,self,ve.tif,PWB,4,80,5,589253,1,b,341
6.2.2,win,10/21/2020,13:57:30,18091,1,Male,22,6,Right,match,sad,self,self,ve.tif,PWB,4,80,3,589253,1,b,342
6.2.2,win,10/21/2020,13:57:30,18091,1,Male,22,6,Right,match,sad,self,self,ve.tif,PWB,4,80,4,589253,1,b,343
6.2.2,win,10/21/2020,13:57:30,18091,1,Male,22,6,Right,match,sad,self,self,ve.tif,BDI,4,80,1,509725,1,b,344
6.2.2,win,10/21/2020,13:57:30,18091,1,Male,22,6,Right,match,sad,self,self,ve.tif,BDI,4,80,2,509725,1,b,345
6.2.2,win,10/21/2020,13:57:30,18091,1,Male,22,6,Right,match,sad,self,self,ve.tif,BDI,4,80,2,509725,1,b,346
6.2.2,win,10/21/2020,13:57:30,18091,1,Male,22,6,Right,match,sad,self,self,ve.tif,BDI,4,80,0,509725,1,b,347
6.2.2,win,10/21/2020,13:57:30,18091,1,Male,22,6,Right,match,sad,self,self,ve.tif,BDI,4,80,1,509725,1,b,348
6.2.2,win,10/21/2020,13:57:30,18091,1,Male,22,6,Right,match,sad,self,self,ve.tif,BDI,4,80,0,509725,1,b,349
6.2.2,win,10/21/2020,13:57:30,18091,1,Male,22,6,Right,match,sad,self,self,ve.tif,BDI,4,80,0,509725,1,b,350
6.2.2,win,10/21/2020,13:57:30,18091,1,Male,22,6,Right,match,sad,self,self,ve.tif,BDI,4,80,1,509725,1,b,351
6.2.2,win,10/21/2020,13:57:30,18091,1,Male,22,6,Right,match,sad,self,self,ve.tif,BDI,4,80,0,509725,1,b,352
6.2.2,win,10/21/2020,13:57:30,18091,1,Male,22,6,Right,match,sad,self,self,ve.tif,BDI,4,80,0,509725,1,b,353
6.2.2,win,10/21/2020,13:57:30,18091,1,Male,22,6,Right,match,sad,self,self,ve.tif,BDI,4,80,0,509725,1,b,354
6.2.2,win,10/21/2020,13:57:30,18091,1,Male,22,6,Right,match,sad,self,self,ve.tif,BDI,4,80,1,509725,1,b,355
6.2.2,win,10/21/2020,13:57:30,18091,1,Male,22,6,Right,match,sad,self,self,ve.tif,BDI,4,80,0,509725,1,b,356
6.2.2,win,10/21/2020,13:57:30,18091,1,Male,22,6,Right,match,sad,self,self,ve.tif,BDI,4,80,1,509725,1,b,357
6.2.2,win,10/21/2020,13:57:30,18091,1,Male,22,6,Right,match,sad,self,self,ve.tif,BDI,4,80,0,509725,1,b,358
6.2.2,win,10/21/2020,13:57:30,18091,1,Male,22,6,Right,match,sad,self,self,ve.tif,BDI,4,80,0,509725,1,b,359
6.2.2,win,10/21/2020,13:57:30,18091,1,Male,22,6,Right,match,sad,self,self,ve.tif,BDI,4,80,0,509725,1,b,360
6.2.2,win,10/21/2020,13:57:30,18091,1,Male,22,6,Right,match,sad,self,self,ve.tif,BDI,4,80,2,509725,1,b,361
6.2.2,win,10/21/2020,13:57:30,18091,1,Male,22,6,Right,match,sad,self,self,ve.tif,BDI,4,80,2,509725,1,b,362
6.2.2,win,10/21/2020,13:57:30,18091,1,Male,22,6,Right,match,sad,self,self,ve.tif,BDI,4,80,0,509725,1,b,363
6.2.2,win,10/21/2020,13:57:30,18091,1,Male,22,6,Right,match,sad,self,self,ve.tif,SWL,4,80,5,205380,1,b,364
6.2.2,win,10/21/2020,13:57:30,18091,1,Male,22,6,Right,match,sad,self,self,ve.tif,SWL,4,80,6,205380,1,b,365
6.2.2,win,10/21/2020,13:57:30,18091,1,Male,22,6,Right,match,sad,self,self,ve.tif,SWL,4,80,3,205380,1,b,366
6.2.2,win,10/21/2020,13:57:30,18091,1,Male,22,6,Right,match,sad,self,self,ve.tif,SWL,4,80,2,205380,1,b,367
6.2.2,win,10/21/2020,13:57:30,18091,1,Male,22,6,Right,match,sad,self,self,ve.tif,SWL,4,80,1,205380,1,b,368
6.2.2,win,10/21/2020,13:57:30,18091,1,Male,22,6,Right,match,sad,self,self,ve.tif,BFI,4,80,4,594943,1,b,369
6.2.2,win,10/21/2020,13:57:30,18091,1,Male,22,6,Right,match,sad,self,self,ve.tif,BFI,4,80,1,594943,1,b,370
6.2.2,win,10/21/2020,13:57:30,18091,1,Male,22,6,Right,match,sad,self,self,ve.tif,BFI,4,80,4,594943,1,b,371
6.2.2,win,10/21/2020,13:57:30,18091,1,Male,22,6,Right,match,sad,self,self,ve.tif,BFI,4,80,3,594943,1,b,372
6.2.2,win,10/21/2020,13:57:30,18091,1,Male,22,6,Right,match,sad,self,self,ve.tif,BFI,4,80,5,594943,1,b,373
6.2.2,win,10/21/2020,13:57:30,18091,1,Male,22,6,Right,match,sad,self,self,ve.tif,BFI,4,80,4,594943,1,b,374
6.2.2,win,10/21/2020,13:57:30,18091,1,Male,22,6,Right,match,sad,self,self,ve.tif,BFI,4,80,5,594943,1,b,375
6.2.2,win,10/21/2020,13:57:30,18091,1,Male,22,6,Right,match,sad,self,self,ve.tif,BFI,4,80,4,594943,1,b,376
6.2.2,win,10/21/2020,13:57:30,18091,1,Male,22,6,Right,match,sad,self,self,ve.tif,BFI,4,80,3,594943,1,b,377
6.2.2,win,10/21/2020,13:57:30,18091,1,Male,22,6,Right,match,sad,self,self,ve.tif,BFI,4,80,5,594943,1,b,378
6.2.2,win,10/21/2020,13:57:30,18091,1,Male,22,6,Right,match,sad,self,self,ve.tif,BFI,4,80,2,594943,1,b,379
6.2.2,win,10/21/2020,13:57:30,18091,1,Male,22,6,Right,match,sad,self,self,ve.tif,BFI,4,80,1,594943,1,b,380
6.2.2,win,10/21/2020,13:57:30,18091,1,Male,22,6,Right,match,sad,self,self,ve.tif,BFI,4,80,4,594943,1,b,381
6.2.2,win,10/21/2020,13:57:30,18091,1,Male,22,6,Right,match,sad,self,self,ve.tif,BFI,4,80,4,594943,1,b,382
6.2.2,win,10/21/2020,13:57:30,18091,1,Male,22,6,Right,match,sad,self,self,ve.tif,BFI,4,80,4,594943,1,b,383
6.2.2,win,10/21/2020,13:57:30,18091,1,Male,22,6,Right,match,sad,self,self,ve.tif,BFI,4,80,4,594943,1,b,384
6.2.2,win,10/21/2020,13:57:30,18091,1,Male,22,6,Right,match,sad,self,self,ve.tif,BFI,4,80,4,594943,1,b,385
6.2.2,win,10/21/2020,13:57:30,18091,1,Male,22,6,Right,match,sad,self,self,ve.tif,BFI,4,80,3,594943,1,b,386
6.2.2,win,10/21/2020,13:57:30,18091,1,Male,22,6,Right,match,sad,self,self,ve.tif,BFI,4,80,4,594943,1,b,387
6.2.2,win,10/21/2020,13:57:30,18091,1,Male,22,6,Right,match,sad,self,self,ve.tif,BFI,4,80,5,594943,1,b,388
6.2.2,win,10/21/2020,13:57:30,18091,1,Male,22,6,Right,match,sad,self,self,ve.tif,BFI,4,80,2,594943,1,b,389
6.2.2,win,10/21/2020,13:57:30,18091,1,Male,22,6,Right,match,sad,self,self,ve.tif,BFI,4,80,4,594943,1,b,390
6.2.2,win,10/21/2020,13:57:30,18091,1,Male,22,6,Right,match,sad,self,self,ve.tif,BFI,4,80,3,594943,1,b,391
6.2.2,win,10/21/2020,13:57:30,18091,1,Male,22,6,Right,match,sad,self,self,ve.tif,BFI,4,80,4,594943,1,b,392
6.2.2,win,10/21/2020,13:57:30,18091,1,Male,22,6,Right,match,sad,self,self,ve.tif,BFI,4,80,4,594943,1,b,393
6.2.2,win,10/21/2020,13:57:30,18091,1,Male,22,6,Right,match,sad,self,self,ve.tif,BFI,4,80,3,594943,1,b,394
6.2.2,win,10/21/2020,13:57:30,18091,1,Male,22,6,Right,match,sad,self,self,ve.tif,BFI,4,80,2,594943,1,b,395
6.2.2,win,10/21/2020,13:57:30,18091,1,Male,22,6,Right,match,sad,self,self,ve.tif,BFI,4,80,4,594943,1,b,396
6.2.2,win,10/21/2020,13:57:30,18091,1,Male,22,6,Right,match,sad,self,self,ve.tif,BFI,4,80,3,594943,1,b,397
6.2.2,win,10/21/2020,13:57:30,18091,1,Male,22,6,Right,match,sad,self,self,ve.tif,BFI,4,80,4,594943,1,b,398
6.2.2,win,10/21/2020,13:57:30,18091,1,Male,22,6,Right,match,sad,self,self,ve.tif,BFI,4,80,4,594943,1,b,399
6.2.2,win,10/21/2020,13:57:30,18091,1,Male,22,6,Right,match,sad,self,self,ve.tif,BFI,4,80,5,594943,1,b,400
6.2.2,win,10/21/2020,13:57:30,18091,1,Male,22,6,Right,match,sad,self,self,ve.tif,BFI,4,80,2,594943,1,b,401
6.2.2,win,10/21/2020,13:57:30,18091,1,Male,22,6,Right,match,sad,self,self,ve.tif,BFI,4,80,4,594943,1,b,402
6.2.2,win,10/21/2020,13:57:30,18091,1,Male,22,6,Right,match,sad,self,self,ve.tif,BFI,4,80,5,594943,1,b,403
6.2.2,win,10/21/2020,13:57:30,18091,1,Male,22,6,Right,match,sad,self,self,ve.tif,BFI,4,80,3,594943,1,b,404
6.2.2,win,10/21/2020,13:57:30,18091,1,Male,22,6,Right,match,sad,self,self,ve.tif,BFI,4,80,1,594943,1,b,405
6.2.2,win,10/21/2020,13:57:30,18091,1,Male,22,6,Right,match,sad,self,self,ve.tif,BFI,4,80,4,594943,1,b,406
6.2.2,win,10/21/2020,13:57:30,18091,1,Male,22,6,Right,match,sad,self,self,ve.tif,BFI,4,80,5,594943,1,b,407
6.2.2,win,10/21/2020,13:57:30,18091,1,Male,22,6,Right,match,sad,self,self,ve.tif,BFI,4,80,5,594943,1,b,408
6.2.2,win,10/21/2020,13:57:30,18091,1,Male,22,6,Right,match,sad,self,self,ve.tif,BFI,4,80,1,594943,1,b,409
6.2.2,win,10/21/2020,13:57:30,18091,1,Male,22,6,Right,match,sad,self,self,ve.tif,BFI,4,80,5,594943,1,b,410
6.2.2,win,10/21/2020,13:57:30,18091,1,Male,22,6,Right,match,sad,self,self,ve.tif,BFI,4,80,5,594943,1,b,411
6.2.2,win,10/21/2020,13:57:30,18091,1,Male,22,6,Right,match,sad,self,self,ve.tif,BFI,4,80,4,594943,1,b,412
6.2.2,win,10/21/2020,13:57:30,18091,1,Male,22,6,Right,match,sad,self,self,ve.tif,Donation,4,80,400,17187,1,b,413
6.2.2,win,10/21/2020,13:57:30,18091,1,Male,22,6,Right,match,sad,self,self,ve.tif,COVID,4,80,1,56956,1,b,414
6.2.2,win,10/21/2020,13:57:30,18091,1,Male,22,6,Right,match,sad,self,self,ve.tif,COVID,4,80,1,56956,1,b,415
6.2.2,win,10/21/2020,13:57:30,18091,1,Male,22,6,Right,match,sad,self,self,ve.tif,COVID,4,80,1,56956,1,b,416
6.2.2,win,10/21/2020,13:57:30,18091,1,Male,22,6,Right,match,sad,self,self,ve.tif,COVID,4,80,-,56956,1,b,417
6.2.2,win,10/21/2020,13:57:30,18091,1,Male,22,6,Right,match,sad,self,self,ve.tif,COVID,4,80,0,56956,1,b,418
6.2.2,win,10/21/2020,13:57:30,18091,1,Male,22,6,Right,match,sad,self,self,ve.tif,COVID,4,80,0,56956,1,b,419
6.2.2,win,10/21/2020,13:57:30,18091,1,Male,22,6,Right,match,sad,self,self,ve.tif,COVID,4,80,1,56956,1,b,420
6.2.2,win,10/21/2020,13:57:30,18091,1,Male,22,6,Right,match,sad,self,self,ve.tif,COVID,4,80,1,56956,1,b,421
6.2.2,win,10/21/2020,13:57:30,18091,1,Male,22,6,Right,match,sad,self,self,ve.tif,COVID,4,80,57,56956,1,b,422
6.2.2,win,10/21/2020,13:57:30,18091,1,Male,22,6,Right,match,sad,self,self,ve.tif,GAD,4,80,1,42767,1,b,423
6.2.2,win,10/21/2020,13:57:30,18091,1,Male,22,6,Right,match,sad,self,self,ve.tif,GAD,4,80,1,42767,1,b,424
6.2.2,win,10/21/2020,13:57:30,18091,1,Male,22,6,Right,match,sad,self,self,ve.tif,GAD,4,80,2,42767,1,b,425
6.2.2,win,10/21/2020,13:57:30,18091,1,Male,22,6,Right,match,sad,self,self,ve.tif,GAD,4,80,2,42767,1,b,426
6.2.2,win,10/21/2020,13:57:30,18091,1,Male,22,6,Right,match,sad,self,self,ve.tif,GAD,4,80,1,42767,1,b,427
6.2.2,win,10/21/2020,13:57:30,18091,1,Male,22,6,Right,match,sad,self,self,ve.tif,GAD,4,80,0,42767,1,b,428
6.2.2,win,10/21/2020,13:57:30,18091,1,Male,22,6,Right,match,sad,self,self,ve.tif,GAD,4,80,1,42767,1,b,429
6.2.2,win,10/21/2020,13:57:30,18091,1,Male,22,6,Right,match,sad,self,self,ve.tif,GAD,4,80,2,42767,1,b,430
6.2.2,win,10/21/2020,20:50:03,18173,1,Female,21,6,Right,-,-,-,-,-,Sub-Info,0,0,21,18289,1,-,1
6.2.2,win,10/21/2020,20:50:03,18173,1,Female,21,6,Right,-,-,-,-,-,Sub-Info,0,0,Female,18289,1,-,2
6.2.2,win,10/21/2020,20:50:03,18173,1,Female,21,6,Right,-,-,-,-,-,Sub-Info,0,0,6,18289,1,-,3
6.2.2,win,10/21/2020,20:50:03,18173,1,Female,21,6,Right,-,-,-,-,-,Sub-Info,0,0,Right,18289,1,-,4
6.2.2,win,10/21/2020,20:50:03,18173,1,Female,21,6,Right,-,-,-,-,-,Sub-Info,0,0,-,14293,1,-,5
6.2.2,win,10/21/2020,20:50:03,18173,1,Female,21,6,Right,-,-,-,-,-,Sub-Info,0,0,Polly,14135,1,-,6
6.2.2,win,10/21/2020,20:50:03,18173,1,Female,21,6,Right,unmatch,happy,self,stranger,he.tif,SAT,1,1,0,1500,0,b,7
6.2.2,win,10/21/2020,20:50:03,18173,1,Female,21,6,Right,unmatch,line,stranger,self,ve.tif,SAT,1,2,47,538,0,b,8
6.2.2,win,10/21/2020,20:50:03,18173,1,Female,21,6,Right,match,sad,self,self,he.tif,SAT,1,3,48,881,0,v,9
6.2.2,win,10/21/2020,20:50:03,18173,1,Female,21,6,Right,match,neutral,self,self,he.tif,SAT,1,4,47,691,1,v,10
6.2.2,win,10/21/2020,20:50:03,18173,1,Female,21,6,Right,unmatch,line,self,stranger,he.tif,SAT,1,5,47,889,0,b,11
6.2.2,win,10/21/2020,20:50:03,18173,1,Female,21,6,Right,unmatch,sad,self,stranger,he.tif,SAT,1,6,47,1494,0,b,12
6.2.2,win,10/21/2020,20:50:03,18173,1,Female,21,6,Right,match,sad,stranger,stranger,ve.tif,SAT,1,7,47,637,1,v,13
6.2.2,win,10/21/2020,20:50:03,18173,1,Female,21,6,Right,unmatch,line,self,stranger,he.tif,SAT,1,8,48,866,1,b,14
6.2.2,win,10/21/2020,20:50:03,18173,1,Female,21,6,Right,unmatch,happy,self,stranger,he.tif,SAT,1,9,48,1004,1,b,15
6.2.2,win,10/21/2020,20:50:03,18173,1,Female,21,6,Right,match,happy,self,self,he.tif,SAT,1,10,47,792,1,v,16
6.2.2,win,10/21/2020,20:50:03,18173,1,Female,21,6,Right,match,happy,stranger,stranger,ve.tif,SAT,1,11,47,719,1,v,17
6.2.2,win,10/21/2020,20:50:03,18173,1,Female,21,6,Right,match,line,self,self,he.tif,SAT,1,12,48,956,0,v,18
6.2.2,win,10/21/2020,20:50:03,18173,1,Female,21,6,Right,unmatch,happy,stranger,self,ve.tif,SAT,1,13,47,808,0,b,19
6.2.2,win,10/21/2020,20:50:03,18173,1,Female,21,6,Right,unmatch,happy,self,stranger,he.tif,SAT,1,14,48,1052,1,b,20
6.2.2,win,10/21/2020,20:50:03,18173,1,Female,21,6,Right,match,happy,stranger,stranger,ve.tif,SAT,1,15,47,801,1,v,21
6.2.2,win,10/21/2020,20:50:03,18173,1,Female,21,6,Right,unmatch,sad,self,stranger,he.tif,SAT,1,16,48,1181,1,b,22
6.2.2,win,10/21/2020,20:50:03,18173,1,Female,21,6,Right,match,sad,self,self,he.tif,SAT,1,17,47,794,1,v,23
6.2.2,win,10/21/2020,20:50:03,18173,1,Female,21,6,Right,match,neutral,self,self,he.tif,SAT,1,18,47,769,1,v,24
6.2.2,win,10/21/2020,20:50:03,18173,1,Female,21,6,Right,unmatch,line,self,stranger,he.tif,SAT,1,19,48,999,1,b,25
6.2.2,win,10/21/2020,20:50:03,18173,1,Female,21,6,Right,match,line,stranger,stranger,ve.tif,SAT,1,20,47,718,1,v,26
6.2.2,win,10/21/2020,20:50:03,18173,1,Female,21,6,Right,match,sad,self,self,he.tif,SAT,1,21,47,1140,1,v,27
6.2.2,win,10/21/2020,20:50:03,18173,1,Female,21,6,Right,unmatch,happy,stranger,self,ve.tif,SAT,1,22,48,897,1,b,28
6.2.2,win,10/21/2020,20:50:03,18173,1,Female,21,6,Right,unmatch,happy,self,stranger,he.tif,SAT,1,23,48,1013,1,b,29
6.2.2,win,10/21/2020,20:50:03,18173,1,Female,21,6,Right,unmatch,sad,stranger,self,ve.tif,SAT,1,24,47,896,0,b,30
6.2.2,win,10/21/2020,20:50:03,18173,1,Female,21,6,Right,match,sad,self,self,he.tif,SAT,1,25,47,788,1,v,31
6.2.2,win,10/21/2020,20:50:03,18173,1,Female,21,6,Right,unmatch,neutral,self,stranger,he.tif,SAT,1,26,48,788,1,b,32
6.2.2,win,10/21/2020,20:50:03,18173,1,Female,21,6,Right,unmatch,happy,stranger,self,ve.tif,SAT,1,27,47,417,0,b,33
6.2.2,win,10/21/2020,20:50:03,18173,1,Female,21,6,Right,unmatch,line,stranger,self,ve.tif,SAT,1,28,48,1394,1,b,34
6.2.2,win,10/21/2020,20:50:03,18173,1,Female,21,6,Right,unmatch,line,self,stranger,he.tif,SAT,1,29,48,888,1,b,35
6.2.2,win,10/21/2020,20:50:03,18173,1,Female,21,6,Right,unmatch,happy,stranger,self,ve.tif,SAT,1,30,47,915,0,b,36
6.2.2,win,10/21/2020,20:50:03,18173,1,Female,21,6,Right,match,neutral,stranger,stranger,ve.tif,SAT,1,31,47,725,1,v,37
6.2.2,win,10/21/2020,20:50:03,18173,1,Female,21,6,Right,match,line,stranger,stranger,ve.tif,SAT,1,32,47,1012,1,v,38
6.2.2,win,10/21/2020,20:50:03,18173,1,Female,21,6,Right,match,happy,self,self,he.tif,SAT,1,33,47,665,1,v,39
6.2.2,win,10/21/2020,20:50:03,18173,1,Female,21,6,Right,unmatch,neutral,self,stranger,he.tif,SAT,1,34,48,597,1,b,40
6.2.2,win,10/21/2020,20:50:03,18173,1,Female,21,6,Right,match,neutral,self,self,he.tif,SAT,1,35,47,824,1,v,41
6.2.2,win,10/21/2020,20:50:03,18173,1,Female,21,6,Right,unmatch,neutral,stranger,self,ve.tif,SAT,1,36,47,676,0,b,42
6.2.2,win,10/21/2020,20:50:03,18173,1,Female,21,6,Right,unmatch,neutral,self,stranger,he.tif,SAT,1,37,48,838,1,b,43
6.2.2,win,10/21/2020,20:50:03,18173,1,Female,21,6,Right,unmatch,neutral,stranger,self,ve.tif,SAT,1,38,48,1058,1,b,44
6.2.2,win,10/21/2020,20:50:03,18173,1,Female,21,6,Right,unmatch,sad,self,stranger,he.tif,SAT,1,39,48,1208,1,b,45
6.2.2,win,10/21/2020,20:50:03,18173,1,Female,21,6,Right,unmatch,line,stranger,self,ve.tif,SAT,1,40,48,1007,1,b,46
6.2.2,win,10/21/2020,20:50:03,18173,1,Female,21,6,Right,match,happy,stranger,stranger,ve.tif,SAT,1,41,47,776,1,v,47
6.2.2,win,10/21/2020,20:50:03,18173,1,Female,21,6,Right,match,line,stranger,stranger,ve.tif,SAT,1,42,47,617,1,v,48
6.2.2,win,10/21/2020,20:50:03,18173,1,Female,21,6,Right,unmatch,sad,stranger,self,ve.tif,SAT,1,43,48,1067,1,b,49
6.2.2,win,10/21/2020,20:50:03,18173,1,Female,21,6,Right,match,line,self,self,he.tif,SAT,1,44,47,706,1,v,50
6.2.2,win,10/21/2020,20:50:03,18173,1,Female,21,6,Right,match,neutral,stranger,stranger,ve.tif,SAT,1,45,47,736,1,v,51
6.2.2,win,10/21/2020,20:50:03,18173,1,Female,21,6,Right,match,line,self,self,he.tif,SAT,1,46,47,647,1,v,52
6.2.2,win,10/21/2020,20:50:03,18173,1,Female,21,6,Right,unmatch,line,self,stranger,he.tif,SAT,1,47,48,872,1,b,53
6.2.2,win,10/21/2020,20:50:03,18173,1,Female,21,6,Right,match,sad,stranger,stranger,ve.tif,SAT,1,48,47,705,1,v,54
6.2.2,win,10/21/2020,20:50:03,18173,1,Female,21,6,Right,match,happy,self,self,he.tif,SAT,1,49,47,708,1,v,55
6.2.2,win,10/21/2020,20:50:03,18173,1,Female,21,6,Right,unmatch,sad,self,stranger,he.tif,SAT,1,50,48,1134,1,b,56
6.2.2,win,10/21/2020,20:50:03,18173,1,Female,21,6,Right,unmatch,line,stranger,self,ve.tif,SAT,1,51,48,901,1,b,57
6.2.2,win,10/21/2020,20:50:03,18173,1,Female,21,6,Right,match,happy,stranger,stranger,ve.tif,SAT,1,52,47,648,1,v,58
6.2.2,win,10/21/2020,20:50:03,18173,1,Female,21,6,Right,match,neutral,stranger,stranger,ve.tif,SAT,1,53,47,729,1,v,59
6.2.2,win,10/21/2020,20:50:03,18173,1,Female,21,6,Right,match,line,stranger,stranger,ve.tif,SAT,1,54,47,675,1,v,60
6.2.2,win,10/21/2020,20:50:03,18173,1,Female,21,6,Right,match,sad,stranger,stranger,ve.tif,SAT,1,55,47,607,1,v,61
6.2.2,win,10/21/2020,20:50:03,18173,1,Female,21,6,Right,match,happy,self,self,he.tif,SAT,1,56,47,949,1,v,62
6.2.2,win,10/21/2020,20:50:03,18173,1,Female,21,6,Right,unmatch,sad,stranger,self,ve.tif,SAT,1,57,48,741,1,b,63
6.2.2,win,10/21/2020,20:50:03,18173,1,Female,21,6,Right,match,neutral,stranger,stranger,ve.tif,SAT,1,58,47,642,1,v,64
6.2.2,win,10/21/2020,20:50:03,18173,1,Female,21,6,Right,unmatch,sad,self,stranger,he.tif,SAT,1,59,48,839,1,b,65
6.2.2,win,10/21/2020,20:50:03,18173,1,Female,21,6,Right,match,line,stranger,stranger,ve.tif,SAT,1,60,47,798,1,v,66
6.2.2,win,10/21/2020,20:50:03,18173,1,Female,21,6,Right,match,line,self,self,he.tif,SAT,1,61,47,826,1,v,67
6.2.2,win,10/21/2020,20:50:03,18173,1,Female,21,6,Right,match,neutral,self,self,he.tif,SAT,1,62,47,698,1,v,68
6.2.2,win,10/21/2020,20:50:03,18173,1,Female,21,6,Right,unmatch,happy,stranger,self,ve.tif,SAT,1,63,48,731,1,b,69
6.2.2,win,10/21/2020,20:50:03,18173,1,Female,21,6,Right,match,neutral,stranger,stranger,ve.tif,SAT,1,64,47,626,1,v,70
6.2.2,win,10/21/2020,20:50:03,18173,1,Female,21,6,Right,match,happy,stranger,stranger,ve.tif,SAT,1,65,47,617,1,v,71
6.2.2,win,10/21/2020,20:50:03,18173,1,Female,21,6,Right,match,sad,stranger,stranger,ve.tif,SAT,1,66,47,716,1,v,72
6.2.2,win,10/21/2020,20:50:03,18173,1,Female,21,6,Right,unmatch,sad,stranger,self,ve.tif,SAT,1,67,48,833,1,b,73
6.2.2,win,10/21/2020,20:50:03,18173,1,Female,21,6,Right,match,line,self,self,he.tif,SAT,1,68,0,1500,0,v,74
6.2.2,win,10/21/2020,20:50:03,18173,1,Female,21,6,Right,match,neutral,self,self,he.tif,SAT,1,69,47,988,1,v,75
6.2.2,win,10/21/2020,20:50:03,18173,1,Female,21,6,Right,unmatch,sad,stranger,self,ve.tif,SAT,1,70,48,720,1,b,76
6.2.2,win,10/21/2020,20:50:03,18173,1,Female,21,6,Right,unmatch,neutral,stranger,self,ve.tif,SAT,1,71,48,1193,1,b,77
6.2.2,win,10/21/2020,20:50:03,18173,1,Female,21,6,Right,unmatch,happy,self,stranger,he.tif,SAT,1,72,48,785,1,b,78
6.2.2,win,10/21/2020,20:50:03,18173,1,Female,21,6,Right,unmatch,neutral,stranger,self,ve.tif,SAT,1,73,47,666,0,b,79
6.2.2,win,10/21/2020,20:50:03,18173,1,Female,21,6,Right,unmatch,line,stranger,self,ve.tif,SAT,1,74,48,836,1,b,80
6.2.2,win,10/21/2020,20:50:03,18173,1,Female,21,6,Right,match,happy,self,self,he.tif,SAT,1,75,47,590,1,v,81
6.2.2,win,10/21/2020,20:50:03,18173,1,Female,21,6,Right,unmatch,neutral,self,stranger,he.tif,SAT,1,76,48,979,1,b,82
6.2.2,win,10/21/2020,20:50:03,18173,1,Female,21,6,Right,match,sad,self,self,he.tif,SAT,1,77,47,816,1,v,83
6.2.2,win,10/21/2020,20:50:03,18173,1,Female,21,6,Right,unmatch,neutral,stranger,self,ve.tif,SAT,1,78,48,909,1,b,84
6.2.2,win,10/21/2020,20:50:03,18173,1,Female,21,6,Right,match,sad,stranger,stranger,ve.tif,SAT,1,79,47,397,1,v,85
6.2.2,win,10/21/2020,20:50:03,18173,1,Female,21,6,Right,unmatch,neutral,self,stranger,he.tif,SAT,1,80,47,761,0,b,86
6.2.2,win,10/21/2020,20:50:03,18173,1,Female,21,6,Right,match,happy,stranger,stranger,ve.tif,SAT,2,1,47,454,1,v,87
6.2.2,win,10/21/2020,20:50:03,18173,1,Female,21,6,Right,unmatch,sad,self,stranger,he.tif,SAT,2,2,48,706,1,b,88
6.2.2,win,10/21/2020,20:50:03,18173,1,Female,21,6,Right,match,neutral,self,self,he.tif,SAT,2,3,47,534,1,v,89
6.2.2,win,10/21/2020,20:50:03,18173,1,Female,21,6,Right,unmatch,line,stranger,self,ve.tif,SAT,2,4,48,802,1,b,90
6.2.2,win,10/21/2020,20:50:03,18173,1,Female,21,6,Right,match,neutral,self,self,he.tif,SAT,2,5,47,563,1,v,91
6.2.2,win,10/21/2020,20:50:03,18173,1,Female,21,6,Right,match,line,stranger,stranger,ve.tif,SAT,2,6,47,664,1,v,92
6.2.2,win,10/21/2020,20:50:03,18173,1,Female,21,6,Right,unmatch,happy,self,stranger,he.tif,SAT,2,7,48,827,1,b,93
6.2.2,win,10/21/2020,20:50:03,18173,1,Female,21,6,Right,match,sad,self,self,he.tif,SAT,2,8,47,855,1,v,94
6.2.2,win,10/21/2020,20:50:03,18173,1,Female,21,6,Right,match,neutral,stranger,stranger,ve.tif,SAT,2,9,47,536,1,v,95
6.2.2,win,10/21/2020,20:50:03,18173,1,Female,21,6,Right,match,line,self,self,he.tif,SAT,2,10,48,850,0,v,96
6.2.2,win,10/21/2020,20:50:03,18173,1,Female,21,6,Right,match,happy,stranger,stranger,ve.tif,SAT,2,11,47,655,1,v,97
6.2.2,win,10/21/2020,20:50:03,18173,1,Female,21,6,Right,match,happy,stranger,stranger,ve.tif,SAT,2,12,47,783,1,v,98
6.2.2,win,10/21/2020,20:50:03,18173,1,Female,21,6,Right,unmatch,neutral,stranger,self,ve.tif,SAT,2,13,48,723,1,b,99
6.2.2,win,10/21/2020,20:50:03,18173,1,Female,21,6,Right,match,neutral,self,self,he.tif,SAT,2,14,47,610,1,v,100
6.2.2,win,10/21/2020,20:50:03,18173,1,Female,21,6,Right,unmatch,sad,stranger,self,ve.tif,SAT,2,15,48,723,1,b,101
6.2.2,win,10/21/2020,20:50:03,18173,1,Female,21,6,Right,unmatch,sad,self,stranger,he.tif,SAT,2,16,47,655,0,b,102
6.2.2,win,10/21/2020,20:50:03,18173,1,Female,21,6,Right,unmatch,sad,stranger,self,ve.tif,SAT,2,17,47,794,0,b,103
6.2.2,win,10/21/2020,20:50:03,18173,1,Female,21,6,Right,unmatch,neutral,stranger,self,ve.tif,SAT,2,18,48,734,1,b,104
6.2.2,win,10/21/2020,20:50:03,18173,1,Female,21,6,Right,unmatch,happy,stranger,self,ve.tif,SAT,2,19,47,669,0,b,105
6.2.2,win,10/21/2020,20:50:03,18173,1,Female,21,6,Right,match,line,stranger,stranger,ve.tif,SAT,2,20,0,1500,0,v,106
6.2.2,win,10/21/2020,20:50:03,18173,1,Female,21,6,Right,unmatch,sad,stranger,self,ve.tif,SAT,2,21,48,790,1,b,107
6.2.2,win,10/21/2020,20:50:03,18173,1,Female,21,6,Right,match,happy,self,self,he.tif,SAT,2,22,47,687,1,v,108
6.2.2,win,10/21/2020,20:50:03,18173,1,Female,21,6,Right,unmatch,line,self,stranger,he.tif,SAT,2,23,48,774,1,b,109
6.2.2,win,10/21/2020,20:50:03,18173,1,Female,21,6,Right,unmatch,neutral,stranger,self,ve.tif,SAT,2,24,48,703,1,b,110
6.2.2,win,10/21/2020,20:50:03,18173,1,Female,21,6,Right,unmatch,line,self,stranger,he.tif,SAT,2,25,48,796,1,b,111
6.2.2,win,10/21/2020,20:50:03,18173,1,Female,21,6,Right,unmatch,happy,self,stranger,he.tif,SAT,2,26,48,766,1,b,112
6.2.2,win,10/21/2020,20:50:03,18173,1,Female,21,6,Right,match,line,self,self,he.tif,SAT,2,27,47,759,1,v,113
6.2.2,win,10/21/2020,20:50:03,18173,1,Female,21,6,Right,match,sad,self,self,he.tif,SAT,2,28,47,652,1,v,114
6.2.2,win,10/21/2020,20:50:03,18173,1,Female,21,6,Right,unmatch,neutral,stranger,self,ve.tif,SAT,2,29,48,637,1,b,115
6.2.2,win,10/21/2020,20:50:03,18173,1,Female,21,6,Right,match,happy,self,self,he.tif,SAT,2,30,47,576,1,v,116
6.2.2,win,10/21/2020,20:50:03,18173,1,Female,21,6,Right,unmatch,sad,self,stranger,he.tif,SAT,2,31,48,985,1,b,117
6.2.2,win,10/21/2020,20:50:03,18173,1,Female,21,6,Right,unmatch,happy,self,stranger,he.tif,SAT,2,32,48,731,1,b,118
6.2.2,win,10/21/2020,20:50:03,18173,1,Female,21,6,Right,unmatch,neutral,self,stranger,he.tif,SAT,2,33,48,589,1,b,119
6.2.2,win,10/21/2020,20:50:03,18173,1,Female,21,6,Right,unmatch,sad,stranger,self,ve.tif,SAT,2,34,48,874,1,b,120
6.2.2,win,10/21/2020,20:50:03,18173,1,Female,21,6,Right,match,sad,self,self,he.tif,SAT,2,35,47,828,1,v,121
6.2.2,win,10/21/2020,20:50:03,18173,1,Female,21,6,Right,match,neutral,stranger,stranger,ve.tif,SAT,2,36,47,807,1,v,122
6.2.2,win,10/21/2020,20:50:03,18173,1,Female,21,6,Right,match,line,self,self,he.tif,SAT,2,37,47,642,1,v,123
6.2.2,win,10/21/2020,20:50:03,18173,1,Female,21,6,Right,unmatch,neutral,self,stranger,he.tif,SAT,2,38,48,980,1,b,124
6.2.2,win,10/21/2020,20:50:03,18173,1,Female,21,6,Right,match,line,self,self,he.tif,SAT,2,39,47,656,1,v,125
6.2.2,win,10/21/2020,20:50:03,18173,1,Female,21,6,Right,unmatch,happy,stranger,self,ve.tif,SAT,2,40,48,679,1,b,126
6.2.2,win,10/21/2020,20:50:03,18173,1,Female,21,6,Right,unmatch,sad,self,stranger,he.tif,SAT,2,41,48,956,1,b,127
6.2.2,win,10/21/2020,20:50:03,18173,1,Female,21,6,Right,unmatch,line,self,stranger,he.tif,SAT,2,42,48,698,1,b,128
6.2.2,win,10/21/2020,20:50:03,18173,1,Female,21,6,Right,unmatch,line,self,stranger,he.tif,SAT,2,43,48,775,1,b,129
6.2.2,win,10/21/2020,20:50:03,18173,1,Female,21,6,Right,unmatch,happy,stranger,self,ve.tif,SAT,2,44,48,674,1,b,130
6.2.2,win,10/21/2020,20:50:03,18173,1,Female,21,6,Right,unmatch,sad,self,stranger,he.tif,SAT,2,45,48,718,1,b,131
6.2.2,win,10/21/2020,20:50:03,18173,1,Female,21,6,Right,match,neutral,stranger,stranger,ve.tif,SAT,2,46,47,1043,1,v,132
6.2.2,win,10/21/2020,20:50:03,18173,1,Female,21,6,Right,unmatch,happy,stranger,self,ve.tif,SAT,2,47,48,703,1,b,133
6.2.2,win,10/21/2020,20:50:03,18173,1,Female,21,6,Right,unmatch,happy,self,stranger,he.tif,SAT,2,48,48,859,1,b,134
6.2.2,win,10/21/2020,20:50:03,18173,1,Female,21,6,Right,match,happy,self,self,he.tif,SAT,2,49,47,567,1,v,135
6.2.2,win,10/21/2020,20:50:03,18173,1,Female,21,6,Right,match,happy,self,self,he.tif,SAT,2,50,47,527,1,v,136
6.2.2,win,10/21/2020,20:50:03,18173,1,Female,21,6,Right,unmatch,line,stranger,self,ve.tif,SAT,2,51,48,644,1,b,137
6.2.2,win,10/21/2020,20:50:03,18173,1,Female,21,6,Right,match,sad,stranger,stranger,ve.tif,SAT,2,52,47,665,1,v,138
6.2.2,win,10/21/2020,20:50:03,18173,1,Female,21,6,Right,unmatch,line,stranger,self,ve.tif,SAT,2,53,48,685,1,b,139
6.2.2,win,10/21/2020,20:50:03,18173,1,Female,21,6,Right,match,line,stranger,stranger,ve.tif,SAT,2,54,47,765,1,v,140
6.2.2,win,10/21/2020,20:50:03,18173,1,Female,21,6,Right,match,neutral,self,self,he.tif,SAT,2,55,47,675,1,v,141
6.2.2,win,10/21/2020,20:50:03,18173,1,Female,21,6,Right,unmatch,neutral,stranger,self,ve.tif,SAT,2,56,48,622,1,b,142
6.2.2,win,10/21/2020,20:50:03,18173,1,Female,21,6,Right,unmatch,happy,self,stranger,he.tif,SAT,2,57,48,806,1,b,143
6.2.2,win,10/21/2020,20:50:03,18173,1,Female,21,6,Right,match,sad,stranger,stranger,ve.tif,SAT,2,58,48,789,0,v,144
6.2.2,win,10/21/2020,20:50:03,18173,1,Female,21,6,Right,unmatch,neutral,self,stranger,he.tif,SAT,2,59,48,700,1,b,145
6.2.2,win,10/21/2020,20:50:03,18173,1,Female,21,6,Right,match,sad,stranger,stranger,ve.tif,SAT,2,60,47,486,1,v,146
6.2.2,win,10/21/2020,20:50:03,18173,1,Female,21,6,Right,match,happy,self,self,he.tif,SAT,2,61,47,936,1,v,147
6.2.2,win,10/21/2020,20:50:03,18173,1,Female,21,6,Right,match,happy,stranger,stranger,ve.tif,SAT,2,62,48,793,0,v,148
6.2.2,win,10/21/2020,20:50:03,18173,1,Female,21,6,Right,match,neutral,stranger,stranger,ve.tif,SAT,2,63,47,678,1,v,149
6.2.2,win,10/21/2020,20:50:03,18173,1,Female,21,6,Right,unmatch,happy,stranger,self,ve.tif,SAT,2,64,48,668,1,b,150
6.2.2,win,10/21/2020,20:50:03,18173,1,Female,21,6,Right,match,sad,stranger,stranger,ve.tif,SAT,2,65,47,569,1,v,151
6.2.2,win,10/21/2020,20:50:03,18173,1,Female,21,6,Right,match,sad,stranger,stranger,ve.tif,SAT,2,66,47,564,1,v,152
6.2.2,win,10/21/2020,20:50:03,18173,1,Female,21,6,Right,match,neutral,stranger,stranger,ve.tif,SAT,2,67,47,531,1,v,153
6.2.2,win,10/21/2020,20:50:03,18173,1,Female,21,6,Right,match,line,stranger,stranger,ve.tif,SAT,2,68,47,558,1,v,154
6.2.2,win,10/21/2020,20:50:03,18173,1,Female,21,6,Right,unmatch,line,stranger,self,ve.tif,SAT,2,69,48,581,1,b,155
6.2.2,win,10/21/2020,20:50:03,18173,1,Female,21,6,Right,unmatch,neutral,self,stranger,he.tif,SAT,2,70,48,985,1,b,156
6.2.2,win,10/21/2020,20:50:03,18173,1,Female,21,6,Right,unmatch,line,self,stranger,he.tif,SAT,2,71,48,605,1,b,157
6.2.2,win,10/21/2020,20:50:03,18173,1,Female,21,6,Right,match,happy,stranger,stranger,ve.tif,SAT,2,72,47,869,1,v,158
6.2.2,win,10/21/2020,20:50:03,18173,1,Female,21,6,Right,match,neutral,self,self,he.tif,SAT,2,73,47,632,1,v,159
6.2.2,win,10/21/2020,20:50:03,18173,1,Female,21,6,Right,match,sad,self,self,he.tif,SAT,2,74,47,1186,1,v,160
6.2.2,win,10/21/2020,20:50:03,18173,1,Female,21,6,Right,match,sad,self,self,he.tif,SAT,2,75,47,599,1,v,161
6.2.2,win,10/21/2020,20:50:03,18173,1,Female,21,6,Right,unmatch,line,stranger,self,ve.tif,SAT,2,76,48,705,1,b,162
6.2.2,win,10/21/2020,20:50:03,18173,1,Female,21,6,Right,match,line,stranger,stranger,ve.tif,SAT,2,77,47,576,1,v,163
6.2.2,win,10/21/2020,20:50:03,18173,1,Female,21,6,Right,match,line,self,self,he.tif,SAT,2,78,47,731,1,v,164
6.2.2,win,10/21/2020,20:50:03,18173,1,Female,21,6,Right,unmatch,neutral,self,stranger,he.tif,SAT,2,79,48,871,1,b,165
6.2.2,win,10/21/2020,20:50:03,18173,1,Female,21,6,Right,unmatch,sad,stranger,self,ve.tif,SAT,2,80,48,1077,1,b,166
6.2.2,win,10/21/2020,20:50:03,18173,1,Female,21,6,Right,unmatch,line,stranger,self,ve.tif,SAT,3,1,48,854,1,b,167
6.2.2,win,10/21/2020,20:50:03,18173,1,Female,21,6,Right,match,neutral,self,self,he.tif,SAT,3,2,47,599,1,v,168
6.2.2,win,10/21/2020,20:50:03,18173,1,Female,21,6,Right,unmatch,sad,stranger,self,ve.tif,SAT,3,3,48,660,1,b,169
6.2.2,win,10/21/2020,20:50:03,18173,1,Female,21,6,Right,unmatch,happy,self,stranger,he.tif,SAT,3,4,48,976,1,b,170
6.2.2,win,10/21/2020,20:50:03,18173,1,Female,21,6,Right,unmatch,sad,stranger,self,ve.tif,SAT,3,5,48,860,1,b,171
6.2.2,win,10/21/2020,20:50:03,18173,1,Female,21,6,Right,match,line,stranger,stranger,ve.tif,SAT,3,6,47,664,1,v,172
6.2.2,win,10/21/2020,20:50:03,18173,1,Female,21,6,Right,match,neutral,stranger,stranger,ve.tif,SAT,3,7,47,664,1,v,173
6.2.2,win,10/21/2020,20:50:03,18173,1,Female,21,6,Right,match,sad,stranger,stranger,ve.tif,SAT,3,8,47,556,1,v,174
6.2.2,win,10/21/2020,20:50:03,18173,1,Female,21,6,Right,unmatch,neutral,stranger,self,ve.tif,SAT,3,9,48,743,1,b,175
6.2.2,win,10/21/2020,20:50:03,18173,1,Female,21,6,Right,unmatch,happy,stranger,self,ve.tif,SAT,3,10,48,772,1,b,176
6.2.2,win,10/21/2020,20:50:03,18173,1,Female,21,6,Right,unmatch,happy,stranger,self,ve.tif,SAT,3,11,48,630,1,b,177
6.2.2,win,10/21/2020,20:50:03,18173,1,Female,21,6,Right,match,neutral,stranger,stranger,ve.tif,SAT,3,12,47,673,1,v,178
6.2.2,win,10/21/2020,20:50:03,18173,1,Female,21,6,Right,unmatch,happy,self,stranger,he.tif,SAT,3,13,48,704,1,b,179
6.2.2,win,10/21/2020,20:50:03,18173,1,Female,21,6,Right,match,happy,stranger,stranger,ve.tif,SAT,3,14,47,562,1,v,180
6.2.2,win,10/21/2020,20:50:03,18173,1,Female,21,6,Right,unmatch,line,stranger,self,ve.tif,SAT,3,15,48,781,1,b,181
6.2.2,win,10/21/2020,20:50:03,18173,1,Female,21,6,Right,unmatch,line,self,stranger,he.tif,SAT,3,16,48,642,1,b,182
6.2.2,win,10/21/2020,20:50:03,18173,1,Female,21,6,Right,unmatch,sad,stranger,self,ve.tif,SAT,3,17,48,720,1,b,183
6.2.2,win,10/21/2020,20:50:03,18173,1,Female,21,6,Right,unmatch,sad,stranger,self,ve.tif,SAT,3,18,48,649,1,b,184
6.2.2,win,10/21/2020,20:50:03,18173,1,Female,21,6,Right,unmatch,sad,stranger,self,ve.tif,SAT,3,19,48,544,1,b,185
6.2.2,win,10/21/2020,20:50:03,18173,1,Female,21,6,Right,unmatch,happy,self,stranger,he.tif,SAT,3,20,48,910,1,b,186
6.2.2,win,10/21/2020,20:50:03,18173,1,Female,21,6,Right,unmatch,neutral,self,stranger,he.tif,SAT,3,21,48,625,1,b,187
6.2.2,win,10/21/2020,20:50:03,18173,1,Female,21,6,Right,unmatch,sad,self,stranger,he.tif,SAT,3,22,48,518,1,b,188
6.2.2,win,10/21/2020,20:50:03,18173,1,Female,21,6,Right,unmatch,sad,self,stranger,he.tif,SAT,3,23,48,364,1,b,189
6.2.2,win,10/21/2020,20:50:03,18173,1,Female,21,6,Right,match,sad,self,self,he.tif,SAT,3,24,47,461,1,v,190
6.2.2,win,10/21/2020,20:50:03,18173,1,Female,21,6,Right,match,line,self,self,he.tif,SAT,3,25,47,553,1,v,191
6.2.2,win,10/21/2020,20:50:03,18173,1,Female,21,6,Right,unmatch,line,self,stranger,he.tif,SAT,3,26,48,509,1,b,192
6.2.2,win,10/21/2020,20:50:03,18173,1,Female,21,6,Right,match,sad,self,self,he.tif,SAT,3,27,47,403,1,v,193
6.2.2,win,10/21/2020,20:50:03,18173,1,Female,21,6,Right,match,happy,self,self,he.tif,SAT,3,28,47,460,1,v,194
6.2.2,win,10/21/2020,20:50:03,18173,1,Female,21,6,Right,unmatch,neutral,self,stranger,he.tif,SAT,3,29,48,347,1,b,195
6.2.2,win,10/21/2020,20:50:03,18173,1,Female,21,6,Right,match,neutral,stranger,stranger,ve.tif,SAT,3,30,48,453,0,v,196
6.2.2,win,10/21/2020,20:50:03,18173,1,Female,21,6,Right,match,happy,self,self,he.tif,SAT,3,31,47,553,1,v,197
6.2.2,win,10/21/2020,20:50:03,18173,1,Female,21,6,Right,unmatch,sad,self,stranger,he.tif,SAT,3,32,48,705,1,b,198
6.2.2,win,10/21/2020,20:50:03,18173,1,Female,21,6,Right,match,line,self,self,he.tif,SAT,3,33,47,842,1,v,199
6.2.2,win,10/21/2020,20:50:03,18173,1,Female,21,6,Right,unmatch,neutral,self,stranger,he.tif,SAT,3,34,48,607,1,b,200
6.2.2,win,10/21/2020,20:50:03,18173,1,Female,21,6,Right,unmatch,happy,self,stranger,he.tif,SAT,3,35,48,570,1,b,201
6.2.2,win,10/21/2020,20:50:03,18173,1,Female,21,6,Right,match,happy,self,self,he.tif,SAT,3,36,47,644,1,v,202
6.2.2,win,10/21/2020,20:50:03,18173,1,Female,21,6,Right,unmatch,happy,stranger,self,ve.tif,SAT,3,37,47,506,0,b,203
6.2.2,win,10/21/2020,20:50:03,18173,1,Female,21,6,Right,unmatch,neutral,self,stranger,he.tif,SAT,3,38,48,538,1,b,204
6.2.2,win,10/21/2020,20:50:03,18173,1,Female,21,6,Right,unmatch,sad,self,stranger,he.tif,SAT,3,39,48,411,1,b,205
6.2.2,win,10/21/2020,20:50:03,18173,1,Female,21,6,Right,match,happy,self,self,he.tif,SAT,3,40,47,645,1,v,206
6.2.2,win,10/21/2020,20:50:03,18173,1,Female,21,6,Right,match,line,self,self,he.tif,SAT,3,41,47,571,1,v,207
6.2.2,win,10/21/2020,20:50:03,18173,1,Female,21,6,Right,match,sad,stranger,stranger,ve.tif,SAT,3,42,47,713,1,v,208
6.2.2,win,10/21/2020,20:50:03,18173,1,Female,21,6,Right,match,happy,stranger,stranger,ve.tif,SAT,3,43,47,542,1,v,209
6.2.2,win,10/21/2020,20:50:03,18173,1,Female,21,6,Right,unmatch,neutral,stranger,self,ve.tif,SAT,3,44,47,346,0,b,210
6.2.2,win,10/21/2020,20:50:03,18173,1,Female,21,6,Right,match,neutral,stranger,stranger,ve.tif,SAT,3,45,47,338,1,v,211
6.2.2,win,10/21/2020,20:50:03,18173,1,Female,21,6,Right,match,sad,self,self,he.tif,SAT,3,46,47,516,1,v,212
6.2.2,win,10/21/2020,20:50:03,18173,1,Female,21,6,Right,match,line,stranger,stranger,ve.tif,SAT,3,47,47,645,1,v,213
6.2.2,win,10/21/2020,20:50:03,18173,1,Female,21,6,Right,match,happy,self,self,he.tif,SAT,3,48,47,593,1,v,214
6.2.2,win,10/21/2020,20:50:03,18173,1,Female,21,6,Right,match,neutral,self,self,he.tif,SAT,3,49,47,568,1,v,215
6.2.2,win,10/21/2020,20:50:03,18173,1,Female,21,6,Right,unmatch,happy,stranger,self,ve.tif,SAT,3,50,47,693,0,b,216
6.2.2,win,10/21/2020,20:50:03,18173,1,Female,21,6,Right,match,sad,self,self,he.tif,SAT,3,51,47,859,1,v,217
6.2.2,win,10/21/2020,20:50:03,18173,1,Female,21,6,Right,unmatch,neutral,stranger,self,ve.tif,SAT,3,52,48,615,1,b,218
6.2.2,win,10/21/2020,20:50:03,18173,1,Female,21,6,Right,match,sad,self,self,he.tif,SAT,3,53,47,529,1,v,219
6.2.2,win,10/21/2020,20:50:03,18173,1,Female,21,6,Right,match,sad,stranger,stranger,ve.tif,SAT,3,54,47,647,1,v,220
6.2.2,win,10/21/2020,20:50:03,18173,1,Female,21,6,Right,unmatch,happy,stranger,self,ve.tif,SAT,3,55,48,670,1,b,221
6.2.2,win,10/21/2020,20:50:03,18173,1,Female,21,6,Right,unmatch,neutral,self,stranger,he.tif,SAT,3,56,47,665,0,b,222
6.2.2,win,10/21/2020,20:50:03,18173,1,Female,21,6,Right,unmatch,line,stranger,self,ve.tif,SAT,3,57,48,686,1,b,223
6.2.2,win,10/21/2020,20:50:03,18173,1,Female,21,6,Right,unmatch,line,stranger,self,ve.tif,SAT,3,58,48,754,1,b,224
6.2.2,win,10/21/2020,20:50:03,18173,1,Female,21,6,Right,match,line,stranger,stranger,ve.tif,SAT,3,59,47,597,1,v,225
6.2.2,win,10/21/2020,20:50:03,18173,1,Female,21,6,Right,match,sad,stranger,stranger,ve.tif,SAT,3,60,48,782,0,v,226
6.2.2,win,10/21/2020,20:50:03,18173,1,Female,21,6,Right,unmatch,neutral,stranger,self,ve.tif,SAT,3,61,48,779,1,b,227
6.2.2,win,10/21/2020,20:50:03,18173,1,Female,21,6,Right,unmatch,line,stranger,self,ve.tif,SAT,3,62,48,847,1,b,228
6.2.2,win,10/21/2020,20:50:03,18173,1,Female,21,6,Right,match,line,self,self,he.tif,SAT,3,63,47,707,1,v,229
6.2.2,win,10/21/2020,20:50:03,18173,1,Female,21,6,Right,match,neutral,self,self,he.tif,SAT,3,64,47,643,1,v,230
6.2.2,win,10/21/2020,20:50:03,18173,1,Female,21,6,Right,match,line,stranger,stranger,ve.tif,SAT,3,65,47,827,1,v,231
6.2.2,win,10/21/2020,20:50:03,18173,1,Female,21,6,Right,unmatch,line,self,stranger,he.tif,SAT,3,66,48,920,1,b,232
6.2.2,win,10/21/2020,20:50:03,18173,1,Female,21,6,Right,match,neutral,self,self,he.tif,SAT,3,67,47,628,1,v,233
6.2.2,win,10/21/2020,20:50:03,18173,1,Female,21,6,Right,unmatch,line,self,stranger,he.tif,SAT,3,68,48,954,1,b,234
6.2.2,win,10/21/2020,20:50:03,18173,1,Female,21,6,Right,unmatch,line,self,stranger,he.tif,SAT,3,69,48,565,1,b,235
6.2.2,win,10/21/2020,20:50:03,18173,1,Female,21,6,Right,unmatch,happy,self,stranger,he.tif,SAT,3,70,48,799,1,b,236
6.2.2,win,10/21/2020,20:50:03,18173,1,Female,21,6,Right,match,line,stranger,stranger,ve.tif,SAT,3,71,47,482,1,v,237
6.2.2,win,10/21/2020,20:50:03,18173,1,Female,21,6,Right,match,neutral,stranger,stranger,ve.tif,SAT,3,72,47,420,1,v,238
6.2.2,win,10/21/2020,20:50:03,18173,1,Female,21,6,Right,match,happy,stranger,stranger,ve.tif,SAT,3,73,47,527,1,v,239
6.2.2,win,10/21/2020,20:50:03,18173,1,Female,21,6,Right,match,neutral,self,self,he.tif,SAT,3,74,48,734,0,v,240
6.2.2,win,10/21/2020,20:50:03,18173,1,Female,21,6,Right,unmatch,sad,self,stranger,he.tif,SAT,3,75,48,630,1,b,241
6.2.2,win,10/21/2020,20:50:03,18173,1,Female,21,6,Right,match,line,self,self,he.tif,SAT,3,76,47,471,1,v,242
6.2.2,win,10/21/2020,20:50:03,18173,1,Female,21,6,Right,match,happy,stranger,stranger,ve.tif,SAT,3,77,47,449,1,v,243
6.2.2,win,10/21/2020,20:50:03,18173,1,Female,21,6,Right,match,happy,stranger,stranger,ve.tif,SAT,3,78,47,435,1,v,244
6.2.2,win,10/21/2020,20:50:03,18173,1,Female,21,6,Right,match,sad,stranger,stranger,ve.tif,SAT,3,79,47,447,1,v,245
6.2.2,win,10/21/2020,20:50:03,18173,1,Female,21,6,Right,unmatch,neutral,stranger,self,ve.tif,SAT,3,80,47,376,0,b,246
6.2.2,win,10/21/2020,20:50:03,18173,1,Female,21,6,Right,unmatch,neutral,self,stranger,he.tif,SAT,4,1,48,1084,1,b,247
6.2.2,win,10/21/2020,20:50:03,18173,1,Female,21,6,Right,unmatch,sad,stranger,self,ve.tif,SAT,4,2,48,678,1,b,248
6.2.2,win,10/21/2020,20:50:03,18173,1,Female,21,6,Right,match,sad,self,self,he.tif,SAT,4,3,47,664,1,v,249
6.2.2,win,10/21/2020,20:50:03,18173,1,Female,21,6,Right,unmatch,happy,self,stranger,he.tif,SAT,4,4,48,704,1,b,250
6.2.2,win,10/21/2020,20:50:03,18173,1,Female,21,6,Right,unmatch,sad,self,stranger,he.tif,SAT,4,5,48,720,1,b,251
6.2.2,win,10/21/2020,20:50:03,18173,1,Female,21,6,Right,match,line,self,self,he.tif,SAT,4,6,47,904,1,v,252
6.2.2,win,10/21/2020,20:50:03,18173,1,Female,21,6,Right,unmatch,happy,stranger,self,ve.tif,SAT,4,7,48,654,1,b,253
6.2.2,win,10/21/2020,20:50:03,18173,1,Female,21,6,Right,match,neutral,stranger,stranger,ve.tif,SAT,4,8,47,548,1,v,254
6.2.2,win,10/21/2020,20:50:03,18173,1,Female,21,6,Right,match,sad,stranger,stranger,ve.tif,SAT,4,9,47,635,1,v,255
6.2.2,win,10/21/2020,20:50:03,18173,1,Female,21,6,Right,match,neutral,stranger,stranger,ve.tif,SAT,4,10,47,704,1,v,256
6.2.2,win,10/21/2020,20:50:03,18173,1,Female,21,6,Right,unmatch,sad,self,stranger,he.tif,SAT,4,11,48,943,1,b,257
6.2.2,win,10/21/2020,20:50:03,18173,1,Female,21,6,Right,match,line,self,self,he.tif,SAT,4,12,47,625,1,v,258
6.2.2,win,10/21/2020,20:50:03,18173,1,Female,21,6,Right,match,happy,self,self,he.tif,SAT,4,13,47,670,1,v,259
6.2.2,win,10/21/2020,20:50:03,18173,1,Female,21,6,Right,match,happy,self,self,he.tif,SAT,4,14,47,681,1,v,260
6.2.2,win,10/21/2020,20:50:03,18173,1,Female,21,6,Right,match,line,stranger,stranger,ve.tif,SAT,4,15,47,630,1,v,261
6.2.2,win,10/21/2020,20:50:03,18173,1,Female,21,6,Right,unmatch,line,self,stranger,he.tif,SAT,4,16,48,957,1,b,262
6.2.2,win,10/21/2020,20:50:03,18173,1,Female,21,6,Right,match,happy,stranger,stranger,ve.tif,SAT,4,17,47,565,1,v,263
6.2.2,win,10/21/2020,20:50:03,18173,1,Female,21,6,Right,unmatch,line,stranger,self,ve.tif,SAT,4,18,48,799,1,b,264
6.2.2,win,10/21/2020,20:50:03,18173,1,Female,21,6,Right,match,neutral,stranger,stranger,ve.tif,SAT,4,19,47,536,1,v,265
6.2.2,win,10/21/2020,20:50:03,18173,1,Female,21,6,Right,match,neutral,stranger,stranger,ve.tif,SAT,4,20,47,648,1,v,266
6.2.2,win,10/21/2020,20:50:03,18173,1,Female,21,6,Right,match,sad,stranger,stranger,ve.tif,SAT,4,21,47,641,1,v,267
6.2.2,win,10/21/2020,20:50:03,18173,1,Female,21,6,Right,unmatch,sad,stranger,self,ve.tif,SAT,4,22,48,749,1,b,268
6.2.2,win,10/21/2020,20:50:03,18173,1,Female,21,6,Right,unmatch,neutral,stranger,self,ve.tif,SAT,4,23,48,731,1,b,269
6.2.2,win,10/21/2020,20:50:03,18173,1,Female,21,6,Right,unmatch,neutral,self,stranger,he.tif,SAT,4,24,48,855,1,b,270
6.2.2,win,10/21/2020,20:50:03,18173,1,Female,21,6,Right,match,happy,stranger,stranger,ve.tif,SAT,4,25,47,739,1,v,271
6.2.2,win,10/21/2020,20:50:03,18173,1,Female,21,6,Right,match,line,self,self,he.tif,SAT,4,26,47,608,1,v,272
6.2.2,win,10/21/2020,20:50:03,18173,1,Female,21,6,Right,unmatch,happy,stranger,self,ve.tif,SAT,4,27,48,703,1,b,273
6.2.2,win,10/21/2020,20:50:03,18173,1,Female,21,6,Right,match,happy,self,self,he.tif,SAT,4,28,47,630,1,v,274
6.2.2,win,10/21/2020,20:50:03,18173,1,Female,21,6,Right,match,line,stranger,stranger,ve.tif,SAT,4,29,47,975,1,v,275
6.2.2,win,10/21/2020,20:50:03,18173,1,Female,21,6,Right,unmatch,neutral,self,stranger,he.tif,SAT,4,30,48,1010,1,b,276
6.2.2,win,10/21/2020,20:50:03,18173,1,Female,21,6,Right,match,sad,self,self,he.tif,SAT,4,31,47,638,1,v,277
6.2.2,win,10/21/2020,20:50:03,18173,1,Female,21,6,Right,match,line,self,self,he.tif,SAT,4,32,47,642,1,v,278
6.2.2,win,10/21/2020,20:50:03,18173,1,Female,21,6,Right,unmatch,line,stranger,self,ve.tif,SAT,4,33,48,628,1,b,279
6.2.2,win,10/21/2020,20:50:03,18173,1,Female,21,6,Right,unmatch,happy,self,stranger,he.tif,SAT,4,34,48,1083,1,b,280
6.2.2,win,10/21/2020,20:50:03,18173,1,Female,21,6,Right,unmatch,happy,self,stranger,he.tif,SAT,4,35,48,691,1,b,281
6.2.2,win,10/21/2020,20:50:03,18173,1,Female,21,6,Right,match,happy,stranger,stranger,ve.tif,SAT,4,36,47,831,1,v,282
6.2.2,win,10/21/2020,20:50:03,18173,1,Female,21,6,Right,match,sad,stranger,stranger,ve.tif,SAT,4,37,47,592,1,v,283
6.2.2,win,10/21/2020,20:50:03,18173,1,Female,21,6,Right,unmatch,happy,stranger,self,ve.tif,SAT,4,38,48,546,1,b,284
6.2.2,win,10/21/2020,20:50:03,18173,1,Female,21,6,Right,match,line,self,self,he.tif,SAT,4,39,47,576,1,v,285
6.2.2,win,10/21/2020,20:50:03,18173,1,Female,21,6,Right,unmatch,sad,stranger,self,ve.tif,SAT,4,40,48,748,1,b,286
6.2.2,win,10/21/2020,20:50:03,18173,1,Female,21,6,Right,unmatch,happy,self,stranger,he.tif,SAT,4,41,48,765,1,b,287
6.2.2,win,10/21/2020,20:50:03,18173,1,Female,21,6,Right,unmatch,sad,stranger,self,ve.tif,SAT,4,42,48,984,1,b,288
6.2.2,win,10/21/2020,20:50:03,18173,1,Female,21,6,Right,unmatch,neutral,self,stranger,he.tif,SAT,4,43,48,765,1,b,289
6.2.2,win,10/21/2020,20:50:03,18173,1,Female,21,6,Right,match,happy,self,self,he.tif,SAT,4,44,47,617,1,v,290
6.2.2,win,10/21/2020,20:50:03,18173,1,Female,21,6,Right,unmatch,happy,stranger,self,ve.tif,SAT,4,45,48,609,1,b,291
6.2.2,win,10/21/2020,20:50:03,18173,1,Female,21,6,Right,match,line,stranger,stranger,ve.tif,SAT,4,46,47,585,1,v,292
6.2.2,win,10/21/2020,20:50:03,18173,1,Female,21,6,Right,unmatch,happy,stranger,self,ve.tif,SAT,4,47,48,586,1,b,293
6.2.2,win,10/21/2020,20:50:03,18173,1,Female,21,6,Right,match,neutral,self,self,he.tif,SAT,4,48,47,606,1,v,294
6.2.2,win,10/21/2020,20:50:03,18173,1,Female,21,6,Right,match,sad,self,self,he.tif,SAT,4,49,47,712,1,v,295
6.2.2,win,10/21/2020,20:50:03,18173,1,Female,21,6,Right,unmatch,line,self,stranger,he.tif,SAT,4,50,48,776,1,b,296
6.2.2,win,10/21/2020,20:50:03,18173,1,Female,21,6,Right,unmatch,line,stranger,self,ve.tif,SAT,4,51,48,724,1,b,297
6.2.2,win,10/21/2020,20:50:03,18173,1,Female,21,6,Right,match,line,stranger,stranger,ve.tif,SAT,4,52,47,633,1,v,298
6.2.2,win,10/21/2020,20:50:03,18173,1,Female,21,6,Right,unmatch,line,self,stranger,he.tif,SAT,4,53,48,818,1,b,299
6.2.2,win,10/21/2020,20:50:03,18173,1,Female,21,6,Right,match,neutral,self,self,he.tif,SAT,4,54,47,683,1,v,300
6.2.2,win,10/21/2020,20:50:03,18173,1,Female,21,6,Right,unmatch,sad,self,stranger,he.tif,SAT,4,55,48,698,1,b,301
6.2.2,win,10/21/2020,20:50:03,18173,1,Female,21,6,Right,unmatch,neutral,self,stranger,he.tif,SAT,4,56,48,681,1,b,302
6.2.2,win,10/21/2020,20:50:03,18173,1,Female,21,6,Right,match,sad,stranger,stranger,ve.tif,SAT,4,57,47,550,1,v,303
6.2.2,win,10/21/2020,20:50:03,18173,1,Female,21,6,Right,match,neutral,self,self,he.tif,SAT,4,58,47,763,1,v,304
6.2.2,win,10/21/2020,20:50:03,18173,1,Female,21,6,Right,match,line,stranger,stranger,ve.tif,SAT,4,59,47,671,1,v,305
6.2.2,win,10/21/2020,20:50:03,18173,1,Female,21,6,Right,unmatch,line,self,stranger,he.tif,SAT,4,60,48,531,1,b,306
6.2.2,win,10/21/2020,20:50:03,18173,1,Female,21,6,Right,unmatch,line,stranger,self,ve.tif,SAT,4,61,48,641,1,b,307
6.2.2,win,10/21/2020,20:50:03,18173,1,Female,21,6,Right,match,sad,stranger,stranger,ve.tif,SAT,4,62,47,698,1,v,308
6.2.2,win,10/21/2020,20:50:03,18173,1,Female,21,6,Right,match,neutral,self,self,he.tif,SAT,4,63,47,734,1,v,309
6.2.2,win,10/21/2020,20:50:03,18173,1,Female,21,6,Right,match,happy,self,self,he.tif,SAT,4,64,47,715,1,v,310
6.2.2,win,10/21/2020,20:50:03,18173,1,Female,21,6,Right,unmatch,neutral,stranger,self,ve.tif,SAT,4,65,48,671,1,b,311
6.2.2,win,10/21/2020,20:50:03,18173,1,Female,21,6,Right,unmatch,neutral,stranger,self,ve.tif,SAT,4,66,48,590,1,b,312
6.2.2,win,10/21/2020,20:50:03,18173,1,Female,21,6,Right,unmatch,neutral,stranger,self,ve.tif,SAT,4,67,48,593,1,b,313
6.2.2,win,10/21/2020,20:50:03,18173,1,Female,21,6,Right,match,sad,self,self,he.tif,SAT,4,68,47,602,1,v,314
6.2.2,win,10/21/2020,20:50:03,18173,1,Female,21,6,Right,unmatch,line,stranger,self,ve.tif,SAT,4,69,48,588,1,b,315
6.2.2,win,10/21/2020,20:50:03,18173,1,Female,21,6,Right,unmatch,neutral,stranger,self,ve.tif,SAT,4,70,48,862,1,b,316
6.2.2,win,10/21/2020,20:50:03,18173,1,Female,21,6,Right,unmatch,sad,self,stranger,he.tif,SAT,4,71,48,882,1,b,317
6.2.2,win,10/21/2020,20:50:03,18173,1,Female,21,6,Right,match,neutral,self,self,he.tif,SAT,4,72,47,591,1,v,318
6.2.2,win,10/21/2020,20:50:03,18173,1,Female,21,6,Right,unmatch,line,self,stranger,he.tif,SAT,4,73,48,701,1,b,319
6.2.2,win,10/21/2020,20:50:03,18173,1,Female,21,6,Right,match,neutral,stranger,stranger,ve.tif,SAT,4,74,47,716,1,v,320
6.2.2,win,10/21/2020,20:50:03,18173,1,Female,21,6,Right,unmatch,sad,self,stranger,he.tif,SAT,4,75,48,566,1,b,321
6.2.2,win,10/21/2020,20:50:03,18173,1,Female,21,6,Right,unmatch,happy,self,stranger,he.tif,SAT,4,76,48,668,1,b,322
6.2.2,win,10/21/2020,20:50:03,18173,1,Female,21,6,Right,match,happy,stranger,stranger,ve.tif,SAT,4,77,47,646,1,v,323
6.2.2,win,10/21/2020,20:50:03,18173,1,Female,21,6,Right,unmatch,sad,stranger,self,ve.tif,SAT,4,78,48,731,1,b,324
6.2.2,win,10/21/2020,20:50:03,18173,1,Female,21,6,Right,match,sad,self,self,he.tif,SAT,4,79,47,454,1,v,325
6.2.2,win,10/21/2020,20:50:03,18173,1,Female,21,6,Right,match,happy,stranger,stranger,ve.tif,SAT,4,80,47,617,1,v,326
6.2.2,win,10/21/2020,20:50:03,18173,1,Female,21,6,Right,match,happy,stranger,stranger,ve.tif,BDI,4,80,1,86483,1,v,327
6.2.2,win,10/21/2020,20:50:03,18173,1,Female,21,6,Right,match,happy,stranger,stranger,ve.tif,BDI,4,80,1,86483,1,v,328
6.2.2,win,10/21/2020,20:50:03,18173,1,Female,21,6,Right,match,happy,stranger,stranger,ve.tif,BDI,4,80,1,86483,1,v,329
6.2.2,win,10/21/2020,20:50:03,18173,1,Female,21,6,Right,match,happy,stranger,stranger,ve.tif,BDI,4,80,1,86483,1,v,330
6.2.2,win,10/21/2020,20:50:03,18173,1,Female,21,6,Right,match,happy,stranger,stranger,ve.tif,BDI,4,80,0,86483,1,v,331
6.2.2,win,10/21/2020,20:50:03,18173,1,Female,21,6,Right,match,happy,stranger,stranger,ve.tif,BDI,4,80,0,86483,1,v,332
6.2.2,win,10/21/2020,20:50:03,18173,1,Female,21,6,Right,match,happy,stranger,stranger,ve.tif,BDI,4,80,1,86483,1,v,333
6.2.2,win,10/21/2020,20:50:03,18173,1,Female,21,6,Right,match,happy,stranger,stranger,ve.tif,BDI,4,80,2,86483,1,v,334
6.2.2,win,10/21/2020,20:50:03,18173,1,Female,21,6,Right,match,happy,stranger,stranger,ve.tif,BDI,4,80,0,86483,1,v,335
6.2.2,win,10/21/2020,20:50:03,18173,1,Female,21,6,Right,match,happy,stranger,stranger,ve.tif,BDI,4,80,2,86483,1,v,336
6.2.2,win,10/21/2020,20:50:03,18173,1,Female,21,6,Right,match,happy,stranger,stranger,ve.tif,BDI,4,80,2,86483,1,v,337
6.2.2,win,10/21/2020,20:50:03,18173,1,Female,21,6,Right,match,happy,stranger,stranger,ve.tif,BDI,4,80,1,86483,1,v,338
6.2.2,win,10/21/2020,20:50:03,18173,1,Female,21,6,Right,match,happy,stranger,stranger,ve.tif,BDI,4,80,0,86483,1,v,339
6.2.2,win,10/21/2020,20:50:03,18173,1,Female,21,6,Right,match,happy,stranger,stranger,ve.tif,BDI,4,80,2,86483,1,v,340
6.2.2,win,10/21/2020,20:50:03,18173,1,Female,21,6,Right,match,happy,stranger,stranger,ve.tif,BDI,4,80,2,86483,1,v,341
6.2.2,win,10/21/2020,20:50:03,18173,1,Female,21,6,Right,match,happy,stranger,stranger,ve.tif,BDI,4,80,1,86483,1,v,342
6.2.2,win,10/21/2020,20:50:03,18173,1,Female,21,6,Right,match,happy,stranger,stranger,ve.tif,BDI,4,80,3,86483,1,v,343
6.2.2,win,10/21/2020,20:50:03,18173,1,Female,21,6,Right,match,happy,stranger,stranger,ve.tif,BDI,4,80,1,86483,1,v,344
6.2.2,win,10/21/2020,20:50:03,18173,1,Female,21,6,Right,match,happy,stranger,stranger,ve.tif,BDI,4,80,2,86483,1,v,345
6.2.2,win,10/21/2020,20:50:03,18173,1,Female,21,6,Right,match,happy,stranger,stranger,ve.tif,BDI,4,80,2,86483,1,v,346
6.2.2,win,10/21/2020,20:50:03,18173,1,Female,21,6,Right,match,happy,stranger,stranger,ve.tif,Donation,4,80,400,33593,1,v,347
6.2.2,win,10/21/2020,20:50:03,18173,1,Female,21,6,Right,match,happy,stranger,stranger,ve.tif,BFI,4,80,5,96520,1,v,348
6.2.2,win,10/21/2020,20:50:03,18173,1,Female,21,6,Right,match,happy,stranger,stranger,ve.tif,BFI,4,80,4,96520,1,v,349
6.2.2,win,10/21/2020,20:50:03,18173,1,Female,21,6,Right,match,happy,stranger,stranger,ve.tif,BFI,4,80,5,96520,1,v,350
6.2.2,win,10/21/2020,20:50:03,18173,1,Female,21,6,Right,match,happy,stranger,stranger,ve.tif,BFI,4,80,3,96520,1,v,351
6.2.2,win,10/21/2020,20:50:03,18173,1,Female,21,6,Right,match,happy,stranger,stranger,ve.tif,BFI,4,80,3,96520,1,v,352
6.2.2,win,10/21/2020,20:50:03,18173,1,Female,21,6,Right,match,happy,stranger,stranger,ve.tif,BFI,4,80,4,96520,1,v,353
6.2.2,win,10/21/2020,20:50:03,18173,1,Female,21,6,Right,match,happy,stranger,stranger,ve.tif,BFI,4,80,4,96520,1,v,354
6.2.2,win,10/21/2020,20:50:03,18173,1,Female,21,6,Right,match,happy,stranger,stranger,ve.tif,BFI,4,80,1,96520,1,v,355
6.2.2,win,10/21/2020,20:50:03,18173,1,Female,21,6,Right,match,happy,stranger,stranger,ve.tif,BFI,4,80,2,96520,1,v,356
6.2.2,win,10/21/2020,20:50:03,18173,1,Female,21,6,Right,match,happy,stranger,stranger,ve.tif,BFI,4,80,4,96520,1,v,357
6.2.2,win,10/21/2020,20:50:03,18173,1,Female,21,6,Right,match,happy,stranger,stranger,ve.tif,BFI,4,80,2,96520,1,v,358
6.2.2,win,10/21/2020,20:50:03,18173,1,Female,21,6,Right,match,happy,stranger,stranger,ve.tif,BFI,4,80,2,96520,1,v,359
6.2.2,win,10/21/2020,20:50:03,18173,1,Female,21,6,Right,match,happy,stranger,stranger,ve.tif,BFI,4,80,5,96520,1,v,360
6.2.2,win,10/21/2020,20:50:03,18173,1,Female,21,6,Right,match,happy,stranger,stranger,ve.tif,BFI,4,80,4,96520,1,v,361
6.2.2,win,10/21/2020,20:50:03,18173,1,Female,21,6,Right,match,happy,stranger,stranger,ve.tif,BFI,4,80,4,96520,1,v,362
6.2.2,win,10/21/2020,20:50:03,18173,1,Female,21,6,Right,match,happy,stranger,stranger,ve.tif,BFI,4,80,4,96520,1,v,363
6.2.2,win,10/21/2020,20:50:03,18173,1,Female,21,6,Right,match,happy,stranger,stranger,ve.tif,BFI,4,80,5,96520,1,v,364
6.2.2,win,10/21/2020,20:50:03,18173,1,Female,21,6,Right,match,happy,stranger,stranger,ve.tif,BFI,4,80,1,96520,1,v,365
6.2.2,win,10/21/2020,20:50:03,18173,1,Female,21,6,Right,match,happy,stranger,stranger,ve.tif,BFI,4,80,3,96520,1,v,366
6.2.2,win,10/21/2020,20:50:03,18173,1,Female,21,6,Right,match,happy,stranger,stranger,ve.tif,BFI,4,80,4,96520,1,v,367
6.2.2,win,10/21/2020,20:50:03,18173,1,Female,21,6,Right,match,happy,stranger,stranger,ve.tif,BFI,4,80,1,96520,1,v,368
6.2.2,win,10/21/2020,20:50:03,18173,1,Female,21,6,Right,match,happy,stranger,stranger,ve.tif,BFI,4,80,2,96520,1,v,369
6.2.2,win,10/21/2020,20:50:03,18173,1,Female,21,6,Right,match,happy,stranger,stranger,ve.tif,BFI,4,80,1,96520,1,v,370
6.2.2,win,10/21/2020,20:50:03,18173,1,Female,21,6,Right,match,happy,stranger,stranger,ve.tif,BFI,4,80,3,96520,1,v,371
6.2.2,win,10/21/2020,20:50:03,18173,1,Female,21,6,Right,match,happy,stranger,stranger,ve.tif,BFI,4,80,3,96520,1,v,372
6.2.2,win,10/21/2020,20:50:03,18173,1,Female,21,6,Right,match,happy,stranger,stranger,ve.tif,BFI,4,80,4,96520,1,v,373
6.2.2,win,10/21/2020,20:50:03,18173,1,Female,21,6,Right,match,happy,stranger,stranger,ve.tif,BFI,4,80,4,96520,1,v,374
6.2.2,win,10/21/2020,20:50:03,18173,1,Female,21,6,Right,match,happy,stranger,stranger,ve.tif,BFI,4,80,5,96520,1,v,375
6.2.2,win,10/21/2020,20:50:03,18173,1,Female,21,6,Right,match,happy,stranger,stranger,ve.tif,BFI,4,80,4,96520,1,v,376
6.2.2,win,10/21/2020,20:50:03,18173,1,Female,21,6,Right,match,happy,stranger,stranger,ve.tif,BFI,4,80,2,96520,1,v,377
6.2.2,win,10/21/2020,20:50:03,18173,1,Female,21,6,Right,match,happy,stranger,stranger,ve.tif,BFI,4,80,2,96520,1,v,378
6.2.2,win,10/21/2020,20:50:03,18173,1,Female,21,6,Right,match,happy,stranger,stranger,ve.tif,BFI,4,80,3,96520,1,v,379
6.2.2,win,10/21/2020,20:50:03,18173,1,Female,21,6,Right,match,happy,stranger,stranger,ve.tif,BFI,4,80,5,96520,1,v,380
6.2.2,win,10/21/2020,20:50:03,18173,1,Female,21,6,Right,match,happy,stranger,stranger,ve.tif,BFI,4,80,5,96520,1,v,381
6.2.2,win,10/21/2020,20:50:03,18173,1,Female,21,6,Right,match,happy,stranger,stranger,ve.tif,BFI,4,80,5,96520,1,v,382
6.2.2,win,10/21/2020,20:50:03,18173,1,Female,21,6,Right,match,happy,stranger,stranger,ve.tif,BFI,4,80,4,96520,1,v,383
6.2.2,win,10/21/2020,20:50:03,18173,1,Female,21,6,Right,match,happy,stranger,stranger,ve.tif,BFI,4,80,3,96520,1,v,384
6.2.2,win,10/21/2020,20:50:03,18173,1,Female,21,6,Right,match,happy,stranger,stranger,ve.tif,BFI,4,80,4,96520,1,v,385
6.2.2,win,10/21/2020,20:50:03,18173,1,Female,21,6,Right,match,happy,stranger,stranger,ve.tif,BFI,4,80,4,96520,1,v,386
6.2.2,win,10/21/2020,20:50:03,18173,1,Female,21,6,Right,match,happy,stranger,stranger,ve.tif,BFI,4,80,2,96520,1,v,387
6.2.2,win,10/21/2020,20:50:03,18173,1,Female,21,6,Right,match,happy,stranger,stranger,ve.tif,BFI,4,80,1,96520,1,v,388
6.2.2,win,10/21/2020,20:50:03,18173,1,Female,21,6,Right,match,happy,stranger,stranger,ve.tif,BFI,4,80,4,96520,1,v,389
6.2.2,win,10/21/2020,20:50:03,18173,1,Female,21,6,Right,match,happy,stranger,stranger,ve.tif,BFI,4,80,4,96520,1,v,390
6.2.2,win,10/21/2020,20:50:03,18173,1,Female,21,6,Right,match,happy,stranger,stranger,ve.tif,BFI,4,80,-,96520,1,v,391
6.2.2,win,10/21/2020,20:50:03,18173,1,Female,21,6,Right,match,happy,stranger,stranger,ve.tif,PWB,4,80,3,66265,1,v,392
6.2.2,win,10/21/2020,20:50:03,18173,1,Female,21,6,Right,match,happy,stranger,stranger,ve.tif,PWB,4,80,5,66265,1,v,393
6.2.2,win,10/21/2020,20:50:03,18173,1,Female,21,6,Right,match,happy,stranger,stranger,ve.tif,PWB,4,80,1,66265,1,v,394
6.2.2,win,10/21/2020,20:50:03,18173,1,Female,21,6,Right,match,happy,stranger,stranger,ve.tif,PWB,4,80,1,66265,1,v,395
6.2.2,win,10/21/2020,20:50:03,18173,1,Female,21,6,Right,match,happy,stranger,stranger,ve.tif,PWB,4,80,3,66265,1,v,396
6.2.2,win,10/21/2020,20:50:03,18173,1,Female,21,6,Right,match,happy,stranger,stranger,ve.tif,PWB,4,80,3,66265,1,v,397
6.2.2,win,10/21/2020,20:50:03,18173,1,Female,21,6,Right,match,happy,stranger,stranger,ve.tif,PWB,4,80,7,66265,1,v,398
6.2.2,win,10/21/2020,20:50:03,18173,1,Female,21,6,Right,match,happy,stranger,stranger,ve.tif,PWB,4,80,4,66265,1,v,399
6.2.2,win,10/21/2020,20:50:03,18173,1,Female,21,6,Right,match,happy,stranger,stranger,ve.tif,PWB,4,80,1,66265,1,v,400
6.2.2,win,10/21/2020,20:50:03,18173,1,Female,21,6,Right,match,happy,stranger,stranger,ve.tif,PWB,4,80,7,66265,1,v,401
6.2.2,win,10/21/2020,20:50:03,18173,1,Female,21,6,Right,match,happy,stranger,stranger,ve.tif,PWB,4,80,2,66265,1,v,402
6.2.2,win,10/21/2020,20:50:03,18173,1,Female,21,6,Right,match,happy,stranger,stranger,ve.tif,PWB,4,80,1,66265,1,v,403
6.2.2,win,10/21/2020,20:50:03,18173,1,Female,21,6,Right,match,happy,stranger,stranger,ve.tif,PWB,4,80,1,66265,1,v,404
6.2.2,win,10/21/2020,20:50:03,18173,1,Female,21,6,Right,match,happy,stranger,stranger,ve.tif,PWB,4,80,6,66265,1,v,405
6.2.2,win,10/21/2020,20:50:03,18173,1,Female,21,6,Right,match,happy,stranger,stranger,ve.tif,PWB,4,80,6,66265,1,v,406
6.2.2,win,10/21/2020,20:50:03,18173,1,Female,21,6,Right,match,happy,stranger,stranger,ve.tif,PWB,4,80,1,66265,1,v,407
6.2.2,win,10/21/2020,20:50:03,18173,1,Female,21,6,Right,match,happy,stranger,stranger,ve.tif,PWB,4,80,1,66265,1,v,408
6.2.2,win,10/21/2020,20:50:03,18173,1,Female,21,6,Right,match,happy,stranger,stranger,ve.tif,COVID,4,80,1,29431,1,v,409
6.2.2,win,10/21/2020,20:50:03,18173,1,Female,21,6,Right,match,happy,stranger,stranger,ve.tif,COVID,4,80,1,29431,1,v,410
6.2.2,win,10/21/2020,20:50:03,18173,1,Female,21,6,Right,match,happy,stranger,stranger,ve.tif,COVID,4,80,0,29431,1,v,411
6.2.2,win,10/21/2020,20:50:03,18173,1,Female,21,6,Right,match,happy,stranger,stranger,ve.tif,COVID,4,80,1,29431,1,v,412
6.2.2,win,10/21/2020,20:50:03,18173,1,Female,21,6,Right,match,happy,stranger,stranger,ve.tif,COVID,4,80,-,29431,1,v,413
6.2.2,win,10/21/2020,20:50:03,18173,1,Female,21,6,Right,match,happy,stranger,stranger,ve.tif,COVID,4,80,1,29431,1,v,414
6.2.2,win,10/21/2020,20:50:03,18173,1,Female,21,6,Right,match,happy,stranger,stranger,ve.tif,COVID,4,80,-,29431,1,v,415
6.2.2,win,10/21/2020,20:50:03,18173,1,Female,21,6,Right,match,happy,stranger,stranger,ve.tif,COVID,4,80,0,29431,1,v,416
6.2.2,win,10/21/2020,20:50:03,18173,1,Female,21,6,Right,match,happy,stranger,stranger,ve.tif,COVID,4,80,17,29431,1,v,417
6.2.2,win,10/21/2020,20:50:03,18173,1,Female,21,6,Right,match,happy,stranger,stranger,ve.tif,SWL,4,80,2,30333,1,v,418
6.2.2,win,10/21/2020,20:50:03,18173,1,Female,21,6,Right,match,happy,stranger,stranger,ve.tif,SWL,4,80,2,30333,1,v,419
6.2.2,win,10/21/2020,20:50:03,18173,1,Female,21,6,Right,match,happy,stranger,stranger,ve.tif,SWL,4,80,4,30333,1,v,420
6.2.2,win,10/21/2020,20:50:03,18173,1,Female,21,6,Right,match,happy,stranger,stranger,ve.tif,SWL,4,80,5,30333,1,v,421
6.2.2,win,10/21/2020,20:50:03,18173,1,Female,21,6,Right,match,happy,stranger,stranger,ve.tif,SWL,4,80,1,30333,1,v,422
6.2.2,win,10/21/2020,20:50:03,18173,1,Female,21,6,Right,match,happy,stranger,stranger,ve.tif,GAD,4,80,1,24212,1,v,423
6.2.2,win,10/21/2020,20:50:03,18173,1,Female,21,6,Right,match,happy,stranger,stranger,ve.tif,GAD,4,80,1,24212,1,v,424
6.2.2,win,10/21/2020,20:50:03,18173,1,Female,21,6,Right,match,happy,stranger,stranger,ve.tif,GAD,4,80,2,24212,1,v,425
6.2.2,win,10/21/2020,20:50:03,18173,1,Female,21,6,Right,match,happy,stranger,stranger,ve.tif,GAD,4,80,3,24212,1,v,426
6.2.2,win,10/21/2020,20:50:03,18173,1,Female,21,6,Right,match,happy,stranger,stranger,ve.tif,GAD,4,80,3,24212,1,v,427
6.2.2,win,10/21/2020,20:50:03,18173,1,Female,21,6,Right,match,happy,stranger,stranger,ve.tif,GAD,4,80,1,24212,1,v,428
6.2.2,win,10/21/2020,20:50:03,18173,1,Female,21,6,Right,match,happy,stranger,stranger,ve.tif,GAD,4,80,0,24212,1,v,429
6.2.2,win,10/21/2020,20:50:03,18173,1,Female,21,6,Right,match,happy,stranger,stranger,ve.tif,GAD,4,80,1,24212,1,v,430
6.2.2,win,10/23/2020,12:39:12,18147,1,Female,20,6,Right,-,-,-,-,-,Sub-Info,0,0,20,7606,1,-,1
6.2.2,win,10/23/2020,12:39:12,18147,1,Female,20,6,Right,-,-,-,-,-,Sub-Info,0,0,Female,7606,1,-,2
6.2.2,win,10/23/2020,12:39:12,18147,1,Female,20,6,Right,-,-,-,-,-,Sub-Info,0,0,6,7606,1,-,3
6.2.2,win,10/23/2020,12:39:12,18147,1,Female,20,6,Right,-,-,-,-,-,Sub-Info,0,0,Right,7606,1,-,4
6.2.2,win,10/23/2020,12:39:12,18147,1,Female,20,6,Right,-,-,-,-,-,Sub-Info,0,0,-,2285,1,-,5
6.2.2,win,10/23/2020,12:39:12,18147,1,Female,20,6,Right,-,-,-,-,-,Sub-Info,0,0,Susan,10813,1,-,6
6.2.2,win,10/23/2020,12:39:12,18147,1,Female,20,6,Right,match,line,stranger,stranger,he.tif,SAT,1,1,48,828,0,v,7
6.2.2,win,10/23/2020,12:39:12,18147,1,Female,20,6,Right,unmatch,sad,self,stranger,ve.tif,SAT,1,2,48,941,1,b,8
6.2.2,win,10/23/2020,12:39:12,18147,1,Female,20,6,Right,unmatch,happy,self,stranger,ve.tif,SAT,1,3,48,1269,1,b,9
6.2.2,win,10/23/2020,12:39:12,18147,1,Female,20,6,Right,match,happy,stranger,stranger,he.tif,SAT,1,4,48,756,0,v,10
6.2.2,win,10/23/2020,12:39:12,18147,1,Female,20,6,Right,match,neutral,self,self,ve.tif,SAT,1,5,47,754,1,v,11
6.2.2,win,10/23/2020,12:39:12,18147,1,Female,20,6,Right,unmatch,line,self,stranger,ve.tif,SAT,1,6,48,692,1,b,12
6.2.2,win,10/23/2020,12:39:12,18147,1,Female,20,6,Right,match,sad,stranger,stranger,he.tif,SAT,1,7,47,764,1,v,13
6.2.2,win,10/23/2020,12:39:12,18147,1,Female,20,6,Right,unmatch,sad,stranger,self,he.tif,SAT,1,8,48,840,1,b,14
6.2.2,win,10/23/2020,12:39:12,18147,1,Female,20,6,Right,match,line,self,self,ve.tif,SAT,1,9,47,550,1,v,15
6.2.2,win,10/23/2020,12:39:12,18147,1,Female,20,6,Right,unmatch,happy,stranger,self,he.tif,SAT,1,10,48,854,1,b,16
6.2.2,win,10/23/2020,12:39:12,18147,1,Female,20,6,Right,unmatch,sad,stranger,self,he.tif,SAT,1,11,48,1016,1,b,17
6.2.2,win,10/23/2020,12:39:12,18147,1,Female,20,6,Right,match,neutral,self,self,ve.tif,SAT,1,12,47,607,1,v,18
6.2.2,win,10/23/2020,12:39:12,18147,1,Female,20,6,Right,unmatch,neutral,stranger,self,he.tif,SAT,1,13,48,934,1,b,19
6.2.2,win,10/23/2020,12:39:12,18147,1,Female,20,6,Right,unmatch,sad,self,stranger,ve.tif,SAT,1,14,48,962,1,b,20
6.2.2,win,10/23/2020,12:39:12,18147,1,Female,20,6,Right,match,happy,stranger,stranger,he.tif,SAT,1,15,47,865,1,v,21
6.2.2,win,10/23/2020,12:39:12,18147,1,Female,20,6,Right,unmatch,neutral,stranger,self,he.tif,SAT,1,16,48,1452,1,b,22
6.2.2,win,10/23/2020,12:39:12,18147,1,Female,20,6,Right,match,happy,self,self,ve.tif,SAT,1,17,47,594,1,v,23
6.2.2,win,10/23/2020,12:39:12,18147,1,Female,20,6,Right,unmatch,line,self,stranger,ve.tif,SAT,1,18,48,649,1,b,24
6.2.2,win,10/23/2020,12:39:12,18147,1,Female,20,6,Right,unmatch,happy,stranger,self,he.tif,SAT,1,19,48,959,1,b,25
6.2.2,win,10/23/2020,12:39:12,18147,1,Female,20,6,Right,match,sad,stranger,stranger,he.tif,SAT,1,20,47,1005,1,v,26
6.2.2,win,10/23/2020,12:39:12,18147,1,Female,20,6,Right,unmatch,neutral,self,stranger,ve.tif,SAT,1,21,48,490,1,b,27
6.2.2,win,10/23/2020,12:39:12,18147,1,Female,20,6,Right,match,line,self,self,ve.tif,SAT,1,22,47,475,1,v,28
6.2.2,win,10/23/2020,12:39:12,18147,1,Female,20,6,Right,match,sad,stranger,stranger,he.tif,SAT,1,23,47,1006,1,v,29
6.2.2,win,10/23/2020,12:39:12,18147,1,Female,20,6,Right,unmatch,neutral,stranger,self,he.tif,SAT,1,24,48,1215,1,b,30
