Shape,Label,Condition,ShapeLoc,.thisRepN,.thisTrialN,.thisN,.thisIndex,resp,rt,corr,nCorr,trialinblock,BlankFrames,Block,Pair Number,P2Age,P1Age
Stranger,Team,Mismatch,Bottom,0,0,0,76,num_3,1.066893595,1,6,1,82,1,1,21,24
Person2,StrangerTeam,Mismatch,Top,0,1,1,29,z,1.016898391,0,6,2,78,1,1,21,24
StrangerTeam,StrangerTeam,Match,Top,0,2,2,19,z,0.900274106,1,7,3,83,1,1,21,24
Stranger,Stranger,Match,Bottom,0,3,3,75,num_3,0.666939075,0,7,4,83,1,1,21,24
Stranger,Stranger,Match,Bottom,0,4,4,72,None,None,3,7,5,82,1,1,21,24
StrangerTeam,Person1,Mismatch,Bottom,0,5,5,55,z,0.617284579,0,7,6,81,1,1,21,24
Stranger,Person2,Mismatch,Bottom,0,6,6,79,num_3,0.766909347,1,8,7,85,1,1,21,24
Person2,Person2,Match,Top,0,7,7,26,num_3,0.919599694,0,8,8,83,1,1,21,24
Person1,StrangerTeam,Mismatch,Top,0,8,8,13,z,0.733763186,0,8,9,82,1,1,21,24
Team,Team,Match,Bottom,0,9,9,34,num_3,0.900271737,0,8,10,82,1,1,21,24
Person1,Stranger,Mismatch,Top,0,10,10,14,None,None,3,8,11,85,1,1,21,24
Person1,Person1,Match,Bottom,0,11,11,41,z,0.766876184,1,9,12,88,1,1,21,24
Person2,Person2,Match,Bottom,0,12,12,57,None,None,3,9,13,81,1,1,21,24
Team,Team,Match,Top,0,13,13,0,z,0.850250083,1,10,14,87,1,1,21,24
Team,Person2,Mismatch,Top,0,14,14,7,num_3,0.70021236,1,11,15,81,1,1,21,24
Person2,Person1,Mismatch,Top,0,15,15,28,num_3,0.883554951,1,12,16,87,1,1,21,24
Stranger,StrangerTeam,Mismatch,Bottom,0,16,16,77,num_3,0.68360059,1,13,17,88,1,1,21,24
Person2,StrangerTeam,Mismatch,Bottom,0,17,17,62,num_3,0.567110534,1,14,18,82,1,1,21,24
Team,Team,Match,Top,0,18,18,3,z,0.816905734,1,15,19,82,1,1,21,24
Stranger,Person1,Mismatch,Bottom,0,19,19,70,num_3,0.683731661,1,16,20,82,1,1,21,24
StrangerTeam,StrangerTeam,Match,Top,0,20,20,17,num_3,0.766955933,0,16,21,78,1,1,21,24
Person1,Person1,Match,Bottom,0,21,21,42,z,0.566651388,1,17,22,89,1,1,21,24
StrangerTeam,StrangerTeam,Match,Bottom,0,22,22,48,num_3,0.683763245,0,17,23,88,1,1,21,24
StrangerTeam,StrangerTeam,Match,Bottom,0,23,23,50,z,0.624425229,1,18,24,87,1,1,21,24
Team,Team,Match,Bottom,0,24,24,33,z,0.633697768,1,19,25,88,1,1,21,24
Person1,Person1,Match,Top,0,25,25,8,z,0.683589535,1,20,26,79,1,1,21,24
Person2,Person2,Match,Top,0,26,26,27,num_3,0.583615315,0,20,27,79,1,1,21,24
Team,Stranger,Mismatch,Top,0,27,27,4,num_3,0.800312914,1,21,28,83,1,1,21,24
StrangerTeam,StrangerTeam,Match,Top,0,28,28,16,z,0.90028595,1,22,29,84,1,1,21,24
Team,Team,Match,Bottom,0,29,29,32,z,0.817118134,1,23,30,80,1,1,21,24
Person2,Person2,Match,Bottom,0,30,30,56,z,1.133597688,1,24,31,81,1,1,21,24
Team,Team,Match,Bottom,0,31,31,35,z,0.733696465,1,25,32,85,1,1,21,24
Team,Person1,Mismatch,Bottom,0,32,32,37,num_3,0.683814568,1,26,33,89,1,1,21,24
Person1,Person2,Mismatch,Bottom,0,33,33,47,num_3,0.800229613,1,27,34,86,1,1,21,24
Person1,Person1,Match,Bottom,0,34,34,40,z,0.666922493,1,28,35,86,1,1,21,24
Person2,Stranger,Mismatch,Top,0,35,35,30,num_3,0.650384155,1,29,36,79,1,1,21,24
Person2,Person2,Match,Top,0,36,36,25,z,0.917086037,1,30,37,78,1,1,21,24
Person1,StrangerTeam,Mismatch,Bottom,0,37,37,46,z,0.533635904,0,30,38,85,1,1,21,24
Stranger,Stranger,Match,Bottom,0,38,38,64,z,0.650246372,1,31,39,89,1,1,21,24
Stranger,Stranger,Match,Bottom,0,39,39,66,z,0.583610183,1,32,40,79,1,1,21,24
Team,Person2,Mismatch,Bottom,0,40,40,39,num_3,0.616886232,1,33,41,78,1,1,21,24
StrangerTeam,Stranger,Mismatch,Bottom,0,41,41,53,num_3,0.783701933,1,34,42,85,1,1,21,24
StrangerTeam,Person2,Mismatch,Bottom,0,42,42,54,num_3,0.483562137,1,35,43,82,1,1,21,24
Stranger,Stranger,Match,Bottom,0,43,43,65,num_3,0.483716896,0,35,44,89,1,1,21,24
StrangerTeam,Stranger,Mismatch,Top,0,44,44,21,z,0.633594727,0,35,45,87,1,1,21,24
Team,StrangerTeam,Mismatch,Bottom,0,45,45,38,num_3,0.517005973,1,36,46,80,1,1,21,24
Stranger,Person1,Mismatch,Bottom,0,46,46,78,num_3,0.683790486,1,37,47,87,1,1,21,24
Person2,Person2,Match,Top,0,47,47,24,num_3,0.550302551,0,37,48,84,1,1,21,24
Team,Person1,Mismatch,Top,0,48,48,5,num_3,0.66712068,1,38,49,83,1,1,21,24
Person2,Stranger,Mismatch,Bottom,0,49,49,61,num_3,0.650265322,1,39,50,79,1,1,21,24
Stranger,Team,Mismatch,Bottom,0,50,50,68,num_3,0.766909742,1,40,51,83,1,1,21,24
Person2,Person2,Match,Bottom,0,51,51,59,z,0.633783833,1,41,52,80,1,1,21,24
StrangerTeam,StrangerTeam,Match,Bottom,0,52,52,51,z,0.850257189,1,42,53,86,1,1,21,24
Person1,Stranger,Mismatch,Bottom,0,53,53,45,num_3,0.650219526,1,43,54,88,1,1,21,24
Person1,Person1,Match,Top,0,54,54,11,z,0.600240509,1,44,55,83,1,1,21,24
Team,Stranger,Mismatch,Bottom,0,55,55,36,num_3,0.550288338,1,45,56,84,1,1,21,24
Person2,Person1,Mismatch,Bottom,0,56,56,60,num_3,0.83356488,1,46,57,83,1,1,21,24
Person1,Person1,Match,Bottom,0,57,57,43,z,0.500258788,1,47,58,87,1,1,21,24
StrangerTeam,StrangerTeam,Match,Bottom,0,58,58,49,num_3,0.650251109,0,47,59,82,1,1,21,24
StrangerTeam,Person2,Mismatch,Top,0,59,59,22,z,0.916921803,0,47,60,85,1,1,21,24
Person1,Team,Mismatch,Top,0,60,60,12,num_3,0.733569736,1,48,61,84,1,1,21,24
Person1,Person2,Mismatch,Top,0,61,61,15,num_3,0.867340344,1,49,62,79,1,1,21,24
Person1,Person1,Match,Top,0,62,62,9,z,0.76685526,1,50,63,80,1,1,21,24
Team,StrangerTeam,Mismatch,Top,0,63,63,6,num_3,0.583556491,1,51,64,80,1,1,21,24
Person2,Team,Mismatch,Top,0,64,64,31,num_3,1.067062961,1,52,65,82,1,1,21,24
StrangerTeam,Person1,Mismatch,Top,0,65,65,23,num_3,0.783576783,1,53,66,88,1,1,21,24
Stranger,Stranger,Match,Bottom,0,66,66,73,num_3,0.549893149,0,53,67,86,1,1,21,24
Person2,Team,Mismatch,Bottom,0,67,67,63,num_3,0.774079211,1,54,68,81,1,1,21,24
Stranger,Stranger,Match,Bottom,0,68,68,67,z,0.950232198,1,55,69,88,1,1,21,24
StrangerTeam,Team,Mismatch,Top,0,69,69,20,num_3,0.716944148,1,56,70,78,1,1,21,24
Team,Team,Match,Top,0,70,70,2,num_3,0.60039132,0,56,71,79,1,1,21,24
Stranger,Stranger,Match,Bottom,0,71,71,74,num_3,0.700207622,0,56,72,82,1,1,21,24
Person1,Team,Mismatch,Bottom,0,72,72,44,num_3,0.733716995,1,57,73,86,1,1,21,24
StrangerTeam,Team,Mismatch,Bottom,0,73,73,52,num_3,0.733577632,1,58,74,86,1,1,21,24
Person2,Person2,Match,Bottom,0,74,74,58,num_3,0.550254781,0,58,75,86,1,1,21,24
Stranger,Person2,Mismatch,Bottom,0,75,75,71,num_3,0.750241121,1,59,76,81,1,1,21,24
Person1,Person1,Match,Top,0,76,76,10,z,0.617117186,1,60,77,86,1,1,21,24
Team,Team,Match,Top,0,77,77,1,z,0.752543957,1,61,78,79,1,1,21,24
Stranger,StrangerTeam,Mismatch,Bottom,0,78,78,69,num_3,0.96690911,1,62,79,82,1,1,21,24
StrangerTeam,StrangerTeam,Match,Top,0,79,79,18,z,0.833624494,1,63,80,85,1,1,21,24
StrangerTeam,Person1,Mismatch,Top,0,0,0,23,num_3,1.133545575,1,64,1,81,2,1,21,24
Team,Team,Match,Bottom,0,1,1,32,z,0.767135564,1,65,2,81,2,1,21,24
Team,Stranger,Mismatch,Top,0,2,2,4,num_3,1.116934594,1,66,3,87,2,1,21,24
Person1,Person1,Match,Bottom,0,3,3,43,z,0.533750394,1,67,4,88,2,1,21,24
Team,Team,Match,Bottom,0,4,4,34,num_3,0.700392386,0,67,5,88,2,1,21,24
Person2,Person2,Match,Bottom,0,5,5,57,z,0.766945668,1,68,6,82,2,1,21,24
Person1,Stranger,Mismatch,Top,0,6,6,14,num_3,0.76718215,1,69,7,82,2,1,21,24
Person2,StrangerTeam,Mismatch,Top,0,7,7,29,z,0.966868051,0,69,8,83,2,1,21,24
StrangerTeam,Person1,Mismatch,Bottom,0,8,8,55,num_3,0.933632272,1,70,9,83,2,1,21,24
Stranger,Person2,Mismatch,Bottom,0,9,9,71,num_3,0.800250142,1,71,10,82,2,1,21,24
Person2,Person1,Mismatch,Top,0,10,10,28,num_3,0.766860787,1,72,11,87,2,1,21,24
Person1,Stranger,Mismatch,Bottom,0,11,11,45,num_3,0.583571888,1,73,12,81,2,1,21,24
StrangerTeam,StrangerTeam,Match,Top,0,12,12,17,z,0.73355355,1,74,13,84,2,1,21,24
Stranger,Stranger,Match,Bottom,0,13,13,66,num_3,0.566958143,0,74,14,82,2,1,21,24
StrangerTeam,StrangerTeam,Match,Bottom,0,14,14,48,z,0.700275132,1,75,15,85,2,1,21,24
Stranger,Stranger,Match,Bottom,0,15,15,73,z,0.98358997,1,76,16,87,2,1,21,24
Person2,Person2,Match,Top,0,16,16,24,z,0.666943812,1,77,17,82,2,1,21,24
StrangerTeam,StrangerTeam,Match,Bottom,0,17,17,50,z,0.650253873,1,78,18,84,2,1,21,24
Team,Stranger,Mismatch,Bottom,0,18,18,36,num_3,0.433865003,1,79,19,89,2,1,21,24
Team,Team,Match,Bottom,0,19,19,33,z,0.616955716,1,80,20,86,2,1,21,24
Team,Team,Match,Top,0,20,20,0,z,0.633600254,1,81,21,87,2,1,21,24
Person1,StrangerTeam,Mismatch,Bottom,0,21,21,46,num_3,0.800341339,1,82,22,84,2,1,21,24
Person1,Person1,Match,Bottom,0,22,22,40,z,0.516998867,1,83,23,85,2,1,21,24
Team,Team,Match,Top,0,23,23,2,z,0.833600017,1,84,24,82,2,1,21,24
StrangerTeam,StrangerTeam,Match,Top,0,24,24,16,z,0.766916848,1,85,25,81,2,1,21,24
Team,StrangerTeam,Mismatch,Top,0,25,25,6,num_3,0.533601952,1,86,26,79,2,1,21,24
Stranger,Stranger,Match,Bottom,0,26,26,65,z,0.63350195,1,87,27,89,2,1,21,24
Team,Person2,Mismatch,Bottom,0,27,27,39,num_3,0.617146007,1,88,28,85,2,1,21,24
Person2,Person1,Mismatch,Bottom,0,28,28,60,num_3,0.833724772,1,89,29,80,2,1,21,24
Stranger,Stranger,Match,Bottom,0,29,29,64,z,0.716896773,1,90,30,86,2,1,21,24
Stranger,Team,Mismatch,Bottom,0,30,30,68,num_3,0.850241397,1,91,31,86,2,1,21,24
Stranger,Stranger,Match,Bottom,0,31,31,74,num_3,0.583607814,0,91,32,88,2,1,21,24
Person1,Person1,Match,Top,0,32,32,8,z,0.566908399,1,92,33,85,2,1,21,24
Stranger,Person1,Mismatch,Bottom,0,33,33,70,num_3,0.583756652,1,93,34,79,2,1,21,24
Stranger,Person1,Mismatch,Bottom,0,34,34,78,num_3,0.683598221,1,94,35,80,2,1,21,24
Person2,Person2,Match,Bottom,0,35,35,58,z,0.667002242,1,95,36,87,2,1,21,24
StrangerTeam,Team,Mismatch,Top,0,36,36,20,z,0.918557831,0,95,37,89,2,1,21,24
StrangerTeam,StrangerTeam,Match,Bottom,0,37,37,51,None,None,3,95,38,86,2,1,21,24
Person2,StrangerTeam,Mismatch,Bottom,0,38,38,62,z,0.750237568,0,95,39,87,2,1,21,24
Team,Person1,Mismatch,Bottom,0,39,39,37,num_3,0.583815081,1,96,40,80,2,1,21,24
Team,Person2,Mismatch,Top,0,40,40,7,num_3,0.733604083,1,97,41,80,2,1,21,24
Person1,Person1,Match,Top,0,41,41,10,z,0.60027604,1,98,42,79,2,1,21,24
Stranger,Team,Mismatch,Bottom,0,42,42,76,num_3,0.617050071,1,99,43,88,2,1,21,24
StrangerTeam,StrangerTeam,Match,Top,0,43,43,18,z,0.66708278,1,100,44,86,2,1,21,24
StrangerTeam,Stranger,Mismatch,Bottom,0,44,44,53,num_3,0.61689847,1,101,45,79,2,1,21,24
Person2,Person2,Match,Top,0,45,45,26,num_3,0.766972909,0,101,46,87,2,1,21,24
Person2,Person2,Match,Top,0,46,46,25,z,0.583744018,1,102,47,80,2,1,21,24
Person2,Person2,Match,Bottom,0,47,47,59,z,0.716901905,1,103,48,80,2,1,21,24
Person1,Person2,Mismatch,Bottom,0,48,48,47,z,0.616913473,0,103,49,80,2,1,21,24
Person2,Person2,Match,Top,0,49,49,27,num_3,0.616882284,0,103,50,78,2,1,21,24
Person1,StrangerTeam,Mismatch,Top,0,50,50,13,num_3,0.700297636,1,104,51,85,2,1,21,24
Team,Team,Match,Top,0,51,51,3,num_3,1.067024271,0,104,52,79,2,1,21,24
StrangerTeam,Person2,Mismatch,Top,0,52,52,22,num_3,0.900357013,1,105,53,88,2,1,21,24
Person2,Team,Mismatch,Bottom,0,53,53,63,num_3,0.583614131,1,106,54,78,2,1,21,24
Person2,Stranger,Mismatch,Bottom,0,54,54,61,num_3,0.600287489,1,107,55,85,2,1,21,24
Person1,Team,Mismatch,Top,0,55,55,12,num_3,0.767058184,1,108,56,83,2,1,21,24
Person2,Person2,Match,Bottom,0,56,56,56,z,0.866910413,1,109,57,78,2,1,21,24
StrangerTeam,Team,Mismatch,Bottom,0,57,57,52,num_3,0.950259834,1,110,58,81,2,1,21,24
Stranger,Stranger,Match,Bottom,0,58,58,67,z,0.700220651,1,111,59,84,2,1,21,24
Person1,Person1,Match,Bottom,0,59,59,41,z,0.550194772,1,112,60,88,2,1,21,24
Stranger,Stranger,Match,Bottom,0,60,60,72,z,0.633679608,1,113,61,78,2,1,21,24
Person2,Team,Mismatch,Top,0,61,61,31,num_3,1.000238851,1,114,62,80,2,1,21,24
Stranger,StrangerTeam,Mismatch,Bottom,0,62,62,77,num_3,0.833820707,1,115,63,88,2,1,21,24
Stranger,Stranger,Match,Bottom,0,63,63,75,z,0.600361711,1,116,64,81,2,1,21,24
Stranger,Person2,Mismatch,Bottom,0,64,64,79,num_3,0.700219466,1,117,65,84,2,1,21,24
Person1,Team,Mismatch,Bottom,0,65,65,44,num_3,1.050245898,1,118,66,89,2,1,21,24
Person1,Person1,Match,Top,0,66,66,11,z,0.666965131,1,119,67,80,2,1,21,24
Team,Person1,Mismatch,Top,0,67,67,5,num_3,0.550269783,1,120,68,84,2,1,21,24
Team,Team,Match,Bottom,0,68,68,35,num_3,0.61692729,0,120,69,82,2,1,21,24
StrangerTeam,Person2,Mismatch,Bottom,0,69,69,54,num_3,1.083547608,1,121,70,82,2,1,21,24
StrangerTeam,StrangerTeam,Match,Top,0,70,70,19,z,0.733722127,1,122,71,84,2,1,21,24
Person2,Stranger,Mismatch,Top,0,71,71,30,num_3,1.35026015,1,123,72,78,2,1,21,24
Person1,Person2,Mismatch,Top,0,72,72,15,num_3,1.066905044,1,124,73,89,2,1,21,24
Stranger,StrangerTeam,Mismatch,Bottom,0,73,73,69,num_3,0.783538883,1,125,74,83,2,1,21,24
Person1,Person1,Match,Bottom,0,74,74,42,z,0.467036036,1,126,75,80,2,1,21,24
Team,Team,Match,Top,0,75,75,1,z,0.566941957,1,127,76,82,2,1,21,24
Team,StrangerTeam,Mismatch,Bottom,0,76,76,38,num_3,0.567085267,1,128,77,88,2,1,21,24
Person1,Person1,Match,Top,0,77,77,9,z,0.516942411,1,129,78,87,2,1,21,24
StrangerTeam,StrangerTeam,Match,Bottom,0,78,78,49,num_3,0.583541094,0,129,79,82,2,1,21,24
StrangerTeam,Stranger,Mismatch,Top,0,79,79,21,num_3,0.68372416,1,130,80,86,2,1,21,24
Stranger,Person1,Mismatch,Bottom,0,0,0,78,num_3,0.616932818,1,131,1,83,3,1,21,24
Person2,Person2,Match,Top,0,1,1,27,z,0.733632114,1,132,2,84,3,1,21,24
StrangerTeam,Person2,Mismatch,Bottom,0,2,2,54,num_3,0.650223473,1,133,3,80,3,1,21,24
Team,Team,Match,Bottom,0,3,3,32,z,0.666900385,1,134,4,88,3,1,21,24
Person2,StrangerTeam,Mismatch,Bottom,0,4,4,62,num_3,0.66699632,1,135,5,83,3,1,21,24
Stranger,Stranger,Match,Bottom,0,5,5,73,num_3,0.583581758,0,135,6,89,3,1,21,24
Person2,Person2,Match,Top,0,6,6,26,z,0.517611193,1,136,7,81,3,1,21,24
Person1,Person1,Match,Bottom,0,7,7,43,z,0.650222684,1,137,8,84,3,1,21,24
Person1,StrangerTeam,Mismatch,Top,0,8,8,13,num_3,0.718360276,1,138,9,89,3,1,21,24
Person2,Stranger,Mismatch,Top,0,9,9,30,num_3,0.867011875,1,139,10,86,3,1,21,24
Person1,Person1,Match,Bottom,0,10,10,41,z,0.533590502,1,140,11,78,3,1,21,24
Team,Person1,Mismatch,Bottom,0,11,11,37,num_3,0.766865919,1,141,12,86,3,1,21,24
Person1,Person1,Match,Top,0,12,12,10,z,0.550237804,1,142,13,82,3,1,21,24
Stranger,Stranger,Match,Bottom,0,13,13,67,z,0.583601498,1,143,14,78,3,1,21,24
StrangerTeam,StrangerTeam,Match,Bottom,0,14,14,50,z,0.550261097,1,144,15,87,3,1,21,24
Person2,Person2,Match,Bottom,0,15,15,57,z,0.566891818,1,145,16,87,3,1,21,24
Team,Team,Match,Top,0,16,16,1,z,0.60035263,1,146,17,87,3,1,21,24
Person2,Person2,Match,Top,0,17,17,24,z,0.667059487,1,147,18,88,3,1,21,24
Person2,Team,Mismatch,Bottom,0,18,18,63,num_3,0.766927507,1,148,19,79,3,1,21,24
StrangerTeam,Team,Mismatch,Bottom,0,19,19,52,num_3,0.666911044,1,149,20,83,3,1,21,24
Stranger,Stranger,Match,Bottom,0,20,20,75,z,0.483823885,1,150,21,89,3,1,21,24
Person1,Person1,Match,Bottom,0,21,21,40,z,0.500382753,1,151,22,80,3,1,21,24
Stranger,Stranger,Match,Bottom,0,22,22,64,num_3,0.66708357,0,151,23,89,3,1,21,24
Team,Team,Match,Top,0,23,23,3,z,0.50036933,1,152,24,84,3,1,21,24
Team,Stranger,Mismatch,Top,0,24,24,4,num_3,0.633619204,1,153,25,78,3,1,21,24
StrangerTeam,StrangerTeam,Match,Top,0,25,25,18,z,0.567005124,1,154,26,79,3,1,21,24
Team,Team,Match,Bottom,0,26,26,35,num_3,0.517045847,0,154,27,81,3,1,21,24
Person1,Team,Mismatch,Top,0,27,27,12,num_3,1.316934357,1,155,28,78,3,1,21,24
Stranger,Person1,Mismatch,Bottom,0,28,28,70,z,0.516930567,0,155,29,89,3,1,21,24
Team,Stranger,Mismatch,Bottom,0,29,29,36,z,0.715044002,0,155,30,85,3,1,21,24
Person2,Stranger,Mismatch,Bottom,0,30,30,61,num_3,0.700286187,1,156,31,85,3,1,21,24
Team,Team,Match,Bottom,0,31,31,33,num_3,0.700412521,0,156,32,88,3,1,21,24
Team,Team,Match,Top,0,32,32,0,z,0.55021846,1,157,33,84,3,1,21,24
StrangerTeam,Person2,Mismatch,Top,0,33,33,22,z,0.533657618,0,157,34,88,3,1,21,24
StrangerTeam,StrangerTeam,Match,Bottom,0,34,34,49,num_3,0.567093953,0,157,35,85,3,1,21,24
Person1,StrangerTeam,Mismatch,Bottom,0,35,35,46,num_3,0.766932245,1,158,36,78,3,1,21,24
Team,StrangerTeam,Mismatch,Bottom,0,36,36,38,num_3,0.750497737,1,159,37,83,3,1,21,24
Team,Person2,Mismatch,Bottom,0,37,37,39,num_3,0.600259854,1,160,38,83,3,1,21,24
StrangerTeam,StrangerTeam,Match,Bottom,0,38,38,51,z,0.883735372,1,161,39,82,3,1,21,24
StrangerTeam,Team,Mismatch,Top,0,39,39,20,num_3,0.700326851,1,162,40,84,3,1,21,24
Person1,Stranger,Mismatch,Top,0,40,40,14,num_3,0.684255159,1,163,41,78,3,1,21,24
StrangerTeam,Person1,Mismatch,Bottom,0,41,41,55,num_3,0.583588469,1,164,42,79,3,1,21,24
Team,Person1,Mismatch,Top,0,42,42,5,num_3,0.616979798,1,165,43,88,3,1,21,24
Stranger,Person2,Mismatch,Bottom,0,43,43,71,num_3,0.567151593,1,166,44,86,3,1,21,24
Team,StrangerTeam,Mismatch,Top,0,44,44,6,num_3,0.93357858,1,167,45,86,3,1,21,24
Team,Team,Match,Top,0,45,45,2,z,0.566956959,1,168,46,78,3,1,21,24
StrangerTeam,Stranger,Mismatch,Top,0,46,46,21,num_3,0.683548871,1,169,47,86,3,1,21,24
Person1,Person1,Match,Top,0,47,47,8,z,0.666956051,1,170,48,87,3,1,21,24
StrangerTeam,StrangerTeam,Match,Top,0,48,48,16,z,0.683544924,1,171,49,88,3,1,21,24
Person1,Team,Mismatch,Bottom,0,49,49,44,num_3,0.616907551,1,172,50,88,3,1,21,24
Person2,Person1,Mismatch,Bottom,0,50,50,60,num_3,0.866934101,1,173,51,86,3,1,21,24
Person2,StrangerTeam,Mismatch,Top,0,51,51,29,num_3,0.850254031,1,174,52,89,3,1,21,24
Stranger,StrangerTeam,Mismatch,Bottom,0,52,52,69,num_3,0.650226632,1,175,53,84,3,1,21,24
Stranger,Team,Mismatch,Bottom,0,53,53,76,z,0.816994563,0,175,54,88,3,1,21,24
StrangerTeam,StrangerTeam,Match,Bottom,0,54,54,48,None,None,3,175,55,85,3,1,21,24
Person1,Person1,Match,Bottom,0,55,55,42,z,0.516921092,1,176,56,89,3,1,21,24
Stranger,Person2,Mismatch,Bottom,0,56,56,79,num_3,0.600362895,1,177,57,89,3,1,21,24
Person1,Stranger,Mismatch,Bottom,0,57,57,45,num_3,0.750335477,1,178,58,82,3,1,21,24
Team,Person2,Mismatch,Top,0,58,58,7,num_3,0.633561564,1,179,59,84,3,1,21,24
Person1,Person2,Mismatch,Bottom,0,59,59,47,z,0.483634779,0,179,60,86,3,1,21,24
Person1,Person2,Mismatch,Top,0,60,60,15,num_3,1.133707835,1,180,61,84,3,1,21,24
StrangerTeam,StrangerTeam,Match,Top,0,61,61,19,z,1.416894759,1,181,62,79,3,1,21,24
Person2,Person2,Match,Bottom,0,62,62,56,num_3,0.617055599,0,181,63,81,3,1,21,24
Stranger,Stranger,Match,Bottom,0,63,63,74,z,0.817029305,1,182,64,88,3,1,21,24
Stranger,Stranger,Match,Bottom,0,64,64,65,z,0.500268658,1,183,65,87,3,1,21,24
Stranger,StrangerTeam,Mismatch,Bottom,0,65,65,77,num_3,0.533753158,1,184,66,85,3,1,21,24
Stranger,Team,Mismatch,Bottom,0,66,66,68,num_3,1.266905201,1,185,67,87,3,1,21,24
Stranger,Stranger,Match,Bottom,0,67,67,72,None,None,3,185,68,83,3,1,21,24
Person2,Person2,Match,Bottom,0,68,68,59,z,0.583554517,1,186,69,79,3,1,21,24
Person1,Person1,Match,Top,0,69,69,11,z,0.583533988,1,187,70,84,3,1,21,24
Team,Team,Match,Bottom,0,70,70,34,z,0.566933666,1,188,71,82,3,1,21,24
StrangerTeam,Stranger,Mismatch,Bottom,0,71,71,53,num_3,0.617127846,1,189,72,78,3,1,21,24
Person2,Person2,Match,Bottom,0,72,72,58,z,0.816936528,1,190,73,83,3,1,21,24
Person2,Person1,Mismatch,Top,0,73,73,28,z,0.533716047,0,190,74,82,3,1,21,24
StrangerTeam,Person1,Mismatch,Top,0,74,74,23,num_3,0.63359749,1,191,75,85,3,1,21,24
StrangerTeam,StrangerTeam,Match,Top,0,75,75,17,None,None,3,191,76,89,3,1,21,24
Person1,Person1,Match,Top,0,76,76,9,z,0.450362283,1,192,77,81,3,1,21,24
Person2,Person2,Match,Top,0,77,77,25,z,0.600258669,1,193,78,88,3,1,21,24
Person2,Team,Mismatch,Top,0,78,78,31,num_3,0.55036098,1,194,79,79,3,1,21,24
Stranger,Stranger,Match,Bottom,0,79,79,66,z,0.716918881,1,195,80,82,3,1,21,24
Person2,Person2,Match,Top,0,0,0,25,z,0.550298603,1,196,1,88,4,1,21,24
Team,Team,Match,Bottom,0,1,1,35,z,0.56703118,1,197,2,82,4,1,21,24
Person1,Person1,Match,Top,0,2,2,8,z,0.467578879,1,198,3,80,4,1,21,24
StrangerTeam,StrangerTeam,Match,Bottom,0,3,3,48,z,0.533601952,1,199,4,87,4,1,21,24
Person2,Person2,Match,Bottom,0,4,4,56,z,0.483657677,1,200,5,80,4,1,21,24
Stranger,Stranger,Match,Bottom,0,5,5,74,z,0.50045658,1,201,6,80,4,1,21,24
Stranger,Team,Mismatch,Bottom,0,6,6,76,num_3,0.550282022,1,202,7,88,4,1,21,24
Person1,Person2,Mismatch,Top,0,7,7,15,num_3,0.900597443,1,203,8,84,4,1,21,24
Team,Person2,Mismatch,Bottom,0,8,8,39,num_3,0.516915565,1,204,9,78,4,1,21,24
Team,Team,Match,Top,0,9,9,0,z,0.633642892,1,205,10,82,4,1,21,24
Person2,Person2,Match,Bottom,0,10,10,59,z,0.767095295,1,206,11,84,4,1,21,24
StrangerTeam,Team,Mismatch,Top,0,11,11,20,num_3,0.700449632,1,207,12,80,4,1,21,24
StrangerTeam,Team,Mismatch,Bottom,0,12,12,52,num_3,0.533569578,1,208,13,87,4,1,21,24
Team,Team,Match,Top,0,13,13,1,num_3,0.53374921,0,208,14,78,4,1,21,24
Person1,StrangerTeam,Mismatch,Top,0,14,14,13,num_3,0.800275804,1,209,15,88,4,1,21,24
StrangerTeam,StrangerTeam,Match,Top,0,15,15,17,z,1.10036862,1,210,16,78,4,1,21,24
Stranger,StrangerTeam,Mismatch,Bottom,0,16,16,69,num_3,0.65024953,1,211,17,89,4,1,21,24
Person2,StrangerTeam,Mismatch,Top,0,17,17,29,num_3,0.583832452,1,212,18,80,4,1,21,24
Team,Stranger,Mismatch,Top,0,18,18,4,num_3,0.7502427,1,213,19,78,4,1,21,24
Stranger,Person2,Mismatch,Bottom,0,19,19,71,num_3,0.683582429,1,214,20,89,4,1,21,24
StrangerTeam,StrangerTeam,Match,Bottom,0,20,20,50,z,0.650456007,1,215,21,79,4,1,21,24
Person2,Person2,Match,Bottom,0,21,21,58,z,0.650418502,1,216,22,89,4,1,21,24
Person2,Person1,Mismatch,Bottom,0,22,22,60,z,0.48373861,0,216,23,89,4,1,21,24
Person1,Person1,Match,Bottom,0,23,23,43,z,0.516942411,1,217,24,89,4,1,21,24
Team,StrangerTeam,Mismatch,Bottom,0,24,24,38,num_3,0.566944326,1,218,25,87,4,1,21,24
Person2,Team,Mismatch,Bottom,0,25,25,63,num_3,0.683696919,1,219,26,87,4,1,21,24
StrangerTeam,Person1,Mismatch,Top,0,26,26,23,num_3,0.666930389,1,220,27,87,4,1,21,24
Person1,Person1,Match,Top,0,27,27,11,z,0.500267473,1,221,28,88,4,1,21,24
Person1,Person1,Match,Top,0,28,28,9,z,0.600270118,1,222,29,81,4,1,21,24
Stranger,Person1,Mismatch,Bottom,0,29,29,78,num_3,0.583605445,1,223,30,79,4,1,21,24
Person2,Stranger,Mismatch,Bottom,0,30,30,61,num_3,0.650386524,1,224,31,84,4,1,21,24
Person1,Person1,Match,Top,0,31,31,10,z,0.450269507,1,225,32,89,4,1,21,24
StrangerTeam,StrangerTeam,Match,Top,0,32,32,18,num_3,0.633588805,0,225,33,85,4,1,21,24
Team,StrangerTeam,Mismatch,Top,0,33,33,6,num_3,0.583737307,1,226,34,84,4,1,21,24
StrangerTeam,StrangerTeam,Match,Bottom,0,34,34,51,z,0.633573803,1,227,35,88,4,1,21,24
StrangerTeam,StrangerTeam,Match,Top,0,35,35,16,z,0.583636634,1,228,36,82,4,1,21,24
Person2,Person1,Mismatch,Top,0,36,36,28,z,0.500279317,0,228,37,79,4,1,21,24
Person2,Person2,Match,Bottom,0,37,37,57,None,None,3,228,38,83,4,1,21,24
StrangerTeam,Stranger,Mismatch,Top,0,38,38,21,num_3,0.683579271,1,229,39,88,4,1,21,24
StrangerTeam,Person1,Mismatch,Bottom,0,39,39,55,num_3,1.164756058,1,230,40,83,4,1,21,24
Stranger,Stranger,Match,Bottom,0,40,40,66,num_3,0.567299641,0,230,41,83,4,1,21,24
Person1,Team,Mismatch,Top,0,41,41,12,num_3,1.066903859,1,231,42,81,4,1,21,24
Team,Person1,Mismatch,Top,0,42,42,5,z,0.433594174,0,231,43,88,4,1,21,24
StrangerTeam,StrangerTeam,Match,Top,0,43,43,19,num_3,0.633801994,0,231,44,87,4,1,21,24
Stranger,Stranger,Match,Bottom,0,44,44,64,z,0.567077766,1,232,45,81,4,1,21,24
Stranger,Person2,Mismatch,Bottom,0,45,45,79,num_3,0.483570032,1,233,46,86,4,1,21,24
Person2,Person2,Match,Top,0,46,46,24,num_3,0.650386129,0,233,47,82,4,1,21,24
Stranger,Stranger,Match,Bottom,0,47,47,75,z,0.50028366,1,234,48,84,4,1,21,24
Team,Team,Match,Bottom,0,48,48,34,z,0.800189738,1,235,49,81,4,1,21,24
Stranger,Stranger,Match,Bottom,0,49,49,67,z,0.600270118,1,236,50,87,4,1,21,24
Team,Person1,Mismatch,Bottom,0,50,50,37,num_3,0.733594214,1,237,51,79,4,1,21,24
Team,Person2,Mismatch,Top,0,51,51,7,num_3,0.633611308,1,238,52,79,4,1,21,24
Team,Team,Match,Top,0,52,52,3,z,0.966936351,1,239,53,87,4,1,21,24
Stranger,StrangerTeam,Mismatch,Bottom,0,53,53,77,num_3,1.483667942,1,240,54,86,4,1,21,24
Team,Team,Match,Bottom,0,54,54,33,z,0.71693033,1,241,55,85,4,1,21,24
StrangerTeam,StrangerTeam,Match,Bottom,0,55,55,49,z,0.60039211,1,242,56,79,4,1,21,24
Person1,Stranger,Mismatch,Top,0,56,56,14,num_3,0.783600471,1,243,57,84,4,1,21,24
Person2,Person2,Match,Top,0,57,57,27,z,0.633586041,1,244,58,89,4,1,21,24
Stranger,Person1,Mismatch,Bottom,0,58,58,70,num_3,0.883699841,1,245,59,84,4,1,21,24
Person2,Person2,Match,Top,0,59,59,26,z,0.733581185,1,246,60,89,4,1,21,24
Stranger,Team,Mismatch,Bottom,0,60,60,68,None,None,3,246,61,87,4,1,21,24
Person1,Person1,Match,Bottom,0,61,61,41,z,0.500344458,1,247,62,86,4,1,21,24
Stranger,Stranger,Match,Bottom,0,62,62,65,num_3,0.60026775,0,247,63,78,4,1,21,24
Team,Team,Match,Bottom,0,63,63,32,z,0.700274343,1,248,64,79,4,1,21,24
StrangerTeam,Stranger,Mismatch,Bottom,0,64,64,53,num_3,0.683603353,1,249,65,78,4,1,21,24
Person1,Stranger,Mismatch,Bottom,0,65,65,45,num_3,0.718562411,1,250,66,82,4,1,21,24
Person2,Stranger,Mismatch,Top,0,66,66,30,num_3,0.733597767,1,251,67,78,4,1,21,24
Person1,Team,Mismatch,Bottom,0,67,67,44,num_3,0.666892489,1,252,68,79,4,1,21,24
Person2,Team,Mismatch,Top,0,68,68,31,num_3,0.633751855,1,253,69,84,4,1,21,24
Person1,Person1,Match,Bottom,0,69,69,42,z,1.433560222,1,254,70,86,4,1,21,24
Team,Team,Match,Top,0,70,70,2,z,0.800254879,1,255,71,80,4,1,21,24
Stranger,Stranger,Match,Bottom,0,71,71,72,z,0.550238989,1,256,72,79,4,1,21,24
Stranger,Stranger,Match,Bottom,0,72,72,73,z,0.433757619,1,257,73,84,4,1,21,24
Team,Stranger,Mismatch,Bottom,0,73,73,36,num_3,0.650247556,1,258,74,79,4,1,21,24
StrangerTeam,Person2,Mismatch,Bottom,0,74,74,54,num_3,0.617058757,1,259,75,83,4,1,21,24
Person1,Person1,Match,Bottom,0,75,75,40,z,0.5669159,1,260,76,89,4,1,21,24
StrangerTeam,Person2,Mismatch,Top,0,76,76,22,num_3,0.766972119,1,261,77,84,4,1,21,24
Person1,StrangerTeam,Mismatch,Bottom,0,77,77,46,num_3,0.65026848,1,262,78,86,4,1,21,24
Person2,StrangerTeam,Mismatch,Bottom,0,78,78,62,num_3,0.550261097,1,263,79,84,4,1,21,24
Person1,Person2,Mismatch,Bottom,0,79,79,47,num_3,0.950252728,1,264,80,87,4,1,21,24
StrangerTeam,Person2,Mismatch,Top,0,0,0,22,num_3,0.833592121,1,265,1,85,5,1,21,24
Person2,Team,Mismatch,Bottom,0,1,1,63,num_3,0.700285002,1,266,2,78,5,1,21,24
Person1,StrangerTeam,Mismatch,Top,0,2,2,13,num_3,0.750269546,1,267,3,79,5,1,21,24
Stranger,Team,Mismatch,Bottom,0,3,3,68,num_3,0.80025409,1,268,4,81,5,1,21,24
Person2,Person1,Mismatch,Bottom,0,4,4,60,num_3,1.166902162,1,269,5,82,5,1,21,24
Person1,Team,Mismatch,Top,0,5,5,12,num_3,0.816938897,1,270,6,80,5,1,21,24
Person2,Person2,Match,Bottom,0,6,6,56,num_3,0.717037714,0,270,7,83,5,1,21,24
Team,Team,Match,Bottom,0,7,7,32,z,0.618753215,1,271,8,80,5,1,21,24
Team,Team,Match,Bottom,0,8,8,34,z,0.650268875,1,272,9,84,5,1,21,24
Team,Team,Match,Top,0,9,9,1,z,1.016931949,1,273,10,79,5,1,21,24
Team,Team,Match,Top,0,10,10,2,z,0.483609117,1,274,11,86,5,1,21,24
Person2,Person1,Mismatch,Top,0,11,11,28,num_3,0.650237686,1,275,12,84,5,1,21,24
Stranger,Stranger,Match,Bottom,0,12,12,73,z,0.533609058,1,276,13,83,5,1,21,24
Person1,Person1,Match,Top,0,13,13,9,z,0.516979916,1,277,14,88,5,1,21,24
Team,Person1,Mismatch,Top,0,14,14,5,num_3,0.633748697,1,278,15,89,5,1,21,24
Stranger,Person2,Mismatch,Bottom,0,15,15,79,num_3,0.650230975,1,279,16,88,5,1,21,24
Team,Stranger,Mismatch,Top,0,16,16,4,num_3,0.716993892,1,280,17,78,5,1,21,24
Person1,Person1,Match,Top,0,17,17,10,z,0.583599129,1,281,18,83,5,1,21,24
StrangerTeam,StrangerTeam,Match,Bottom,0,18,18,48,z,0.733792006,1,282,19,78,5,1,21,24
Stranger,Stranger,Match,Bottom,0,19,19,74,z,0.58355807,1,283,20,83,5,1,21,24
StrangerTeam,Person2,Mismatch,Bottom,0,20,20,54,num_3,0.683598221,1,284,21,84,5,1,21,24
Person1,Person1,Match,Top,0,21,21,11,z,0.550270178,1,285,22,78,5,1,21,24
StrangerTeam,Stranger,Mismatch,Bottom,0,22,22,53,num_3,0.716903879,1,286,23,82,5,1,21,24
StrangerTeam,Person1,Mismatch,Top,0,23,23,23,num_3,0.566939588,1,287,24,83,5,1,21,24
StrangerTeam,StrangerTeam,Match,Top,0,24,24,19,num_3,0.567100664,0,287,25,85,5,1,21,24
StrangerTeam,StrangerTeam,Match,Top,0,25,25,18,z,0.766924349,1,288,26,85,5,1,21,24
Person2,Person2,Match,Top,0,26,26,26,z,1.40023206,1,289,27,84,5,1,21,24
StrangerTeam,Team,Mismatch,Top,0,27,27,20,num_3,0.716948096,1,290,28,85,5,1,21,24
Stranger,Stranger,Match,Bottom,0,28,28,72,z,0.516969652,1,291,29,89,5,1,21,24
Stranger,Stranger,Match,Bottom,0,29,29,75,z,0.400416824,1,292,30,83,5,1,21,24
Team,Team,Match,Top,0,30,30,3,z,0.550341241,1,293,31,79,5,1,21,24
Person2,StrangerTeam,Mismatch,Top,0,31,31,29,z,0.650409027,0,293,32,88,5,1,21,24
Person2,Team,Mismatch,Top,0,32,32,31,z,0.667029483,0,293,33,81,5,1,21,24
Person1,Person1,Match,Top,0,33,33,8,z,0.483623724,1,294,34,78,5,1,21,24
Team,StrangerTeam,Mismatch,Bottom,0,34,34,38,num_3,0.783602445,1,295,35,88,5,1,21,24
Person2,Person2,Match,Bottom,0,35,35,57,z,0.633599859,1,296,36,86,5,1,21,24
Team,Team,Match,Top,0,36,36,0,z,0.63374317,1,297,37,89,5,1,21,24
Person1,Person1,Match,Bottom,0,37,37,41,z,0.466925099,1,298,38,78,5,1,21,24
Person1,Stranger,Mismatch,Top,0,38,38,14,num_3,0.600458041,1,299,39,78,5,1,21,24
StrangerTeam,Team,Mismatch,Bottom,0,39,39,52,num_3,0.766929876,1,300,40,82,5,1,21,24
Team,Person1,Mismatch,Bottom,0,40,40,37,num_3,0.833582251,1,301,41,83,5,1,21,24
Team,Team,Match,Bottom,0,41,41,35,z,0.850292326,1,302,42,87,5,1,21,24
Person1,StrangerTeam,Mismatch,Bottom,0,42,42,46,num_3,0.800155391,1,303,43,87,5,1,21,24
Person2,Person2,Match,Top,0,43,43,25,z,0.817128399,1,304,44,85,5,1,21,24
Person1,Stranger,Mismatch,Bottom,0,44,44,45,num_3,0.550439544,1,305,45,83,5,1,21,24
Stranger,Person1,Mismatch,Bottom,0,45,45,78,num_3,0.966952143,1,306,46,83,5,1,21,24
Person1,Person2,Mismatch,Top,0,46,46,15,num_3,0.716900326,1,307,47,81,5,1,21,24
Person2,Person2,Match,Top,0,47,47,24,z,0.833609887,1,308,48,89,5,1,21,24
Person1,Person1,Match,Bottom,0,48,48,40,num_3,0.533361522,0,308,49,89,5,1,21,24
Person2,Stranger,Mismatch,Bottom,0,49,49,61,num_3,0.566986964,1,309,50,89,5,1,21,24
Stranger,Person1,Mismatch,Bottom,0,50,50,70,num_3,0.766926718,1,310,51,86,5,1,21,24
Person1,Team,Mismatch,Bottom,0,51,51,44,num_3,0.500265104,1,311,52,84,5,1,21,24
Person2,Person2,Match,Bottom,0,52,52,59,z,0.733566183,1,312,53,80,5,1,21,24
Person1,Person2,Mismatch,Bottom,0,53,53,47,num_3,0.516937279,1,313,54,89,5,1,21,24
Stranger,Stranger,Match,Bottom,0,54,54,66,z,0.616951768,1,314,55,87,5,1,21,24
Person2,Person2,Match,Bottom,0,55,55,58,z,0.783587048,1,315,56,83,5,1,21,24
Team,Person2,Mismatch,Bottom,0,56,56,39,num_3,0.600263012,1,316,57,80,5,1,21,24
StrangerTeam,StrangerTeam,Match,Bottom,0,57,57,49,num_3,0.648765892,0,316,58,86,5,1,21,24
Person2,StrangerTeam,Mismatch,Bottom,0,58,58,62,num_3,0.51694478,1,317,59,89,5,1,21,24
Team,Stranger,Mismatch,Bottom,0,59,59,36,num_3,0.933725443,1,318,60,87,5,1,21,24
Team,Team,Match,Bottom,0,60,60,33,z,0.450360309,1,319,61,87,5,1,21,24
StrangerTeam,StrangerTeam,Match,Bottom,0,61,61,50,z,0.683723765,1,320,62,85,5,1,21,24
Person2,Stranger,Mismatch,Top,0,62,62,30,num_3,0.566929718,1,321,63,87,5,1,21,24
StrangerTeam,StrangerTeam,Match,Top,0,63,63,16,z,0.61693795,1,322,64,78,5,1,21,24
Stranger,Stranger,Match,Bottom,0,64,64,65,z,0.583599524,1,323,65,86,5,1,21,24
Stranger,StrangerTeam,Mismatch,Bottom,0,65,65,77,num_3,0.733590661,1,324,66,81,5,1,21,24
Stranger,Team,Mismatch,Bottom,0,66,66,76,num_3,1.00025938,1,325,67,86,5,1,21,24
Team,StrangerTeam,Mismatch,Top,0,67,67,6,num_3,0.866946734,1,326,68,81,5,1,21,24
Stranger,StrangerTeam,Mismatch,Bottom,0,68,68,69,num_3,0.617029542,1,327,69,82,5,1,21,24
Stranger,Stranger,Match,Bottom,0,69,69,67,z,0.633602623,1,328,70,81,5,1,21,24
StrangerTeam,StrangerTeam,Match,Bottom,0,70,70,51,num_3,0.65038376,0,328,71,88,5,1,21,24
Stranger,Stranger,Match,Bottom,0,71,71,64,z,0.500276159,1,329,72,81,5,1,21,24
StrangerTeam,StrangerTeam,Match,Top,0,72,72,17,z,0.650355335,1,330,73,80,5,1,21,24
Person1,Person1,Match,Bottom,0,73,73,43,z,0.450264769,1,331,74,81,5,1,21,24
StrangerTeam,Person1,Mismatch,Bottom,0,74,74,55,num_3,0.750361928,1,332,75,86,5,1,21,24
Person2,Person2,Match,Top,0,75,75,27,z,0.733593819,1,333,76,87,5,1,21,24
Stranger,Person2,Mismatch,Bottom,0,76,76,71,num_3,0.600436722,1,334,77,84,5,1,21,24
StrangerTeam,Stranger,Mismatch,Top,0,77,77,21,num_3,0.816912051,1,335,78,88,5,1,21,24
Person1,Person1,Match,Bottom,0,78,78,42,z,0.550271757,1,336,79,86,5,1,21,24
Team,Person2,Mismatch,Top,0,79,79,7,num_3,0.65030796,1,337,80,88,5,1,21,24
StrangerTeam,Stranger,Mismatch,Bottom,0,0,0,53,num_3,0.616932028,1,338,1,80,6,1,21,24
StrangerTeam,StrangerTeam,Match,Top,0,1,1,19,z,0.667049223,1,339,2,86,6,1,21,24
Person1,Person1,Match,Top,0,2,2,11,z,0.516928593,1,340,3,88,6,1,21,24
Person1,Person1,Match,Bottom,0,3,3,43,z,0.516891088,1,341,4,78,6,1,21,24
Team,Team,Match,Bottom,0,4,4,34,z,0.633549325,1,342,5,88,6,1,21,24
Stranger,Person1,Mismatch,Bottom,0,5,5,78,num_3,0.517111383,1,343,6,81,6,1,21,24
Person1,Person1,Match,Top,0,6,6,9,z,0.433776964,1,344,7,78,6,1,21,24
Stranger,Person2,Mismatch,Bottom,0,7,7,79,num_3,0.517200607,1,345,8,79,6,1,21,24
Person2,Person2,Match,Top,0,8,8,25,z,0.716941384,1,346,9,86,6,1,21,24
Stranger,Stranger,Match,Bottom,0,9,9,66,z,0.550270178,1,347,10,81,6,1,21,24
Stranger,Stranger,Match,Bottom,0,10,10,75,z,0.467013533,1,348,11,83,6,1,21,24
Person2,StrangerTeam,Mismatch,Top,0,11,11,29,num_3,0.550306894,1,349,12,85,6,1,21,24
Stranger,Stranger,Match,Bottom,0,12,12,74,z,0.550274126,1,350,13,84,6,1,21,24
Person1,Team,Mismatch,Bottom,0,13,13,44,num_3,0.633610913,1,351,14,87,6,1,21,24
Stranger,Stranger,Match,Bottom,0,14,14,67,z,0.466968527,1,352,15,82,6,1,21,24
Person1,Person1,Match,Top,0,15,15,8,z,0.533706967,1,353,16,88,6,1,21,24
Team,Stranger,Mismatch,Bottom,0,16,16,36,num_3,0.533726312,1,354,17,86,6,1,21,24
Team,Stranger,Mismatch,Top,0,17,17,4,num_3,0.917195395,1,355,18,78,6,1,21,24
Person1,Person1,Match,Bottom,0,18,18,41,z,0.516907274,1,356,19,80,6,1,21,24
Person1,Person2,Mismatch,Bottom,0,19,19,47,num_3,0.800239482,1,357,20,79,6,1,21,24
StrangerTeam,Team,Mismatch,Top,0,20,20,20,num_3,0.833562906,1,358,21,79,6,1,21,24
Team,StrangerTeam,Mismatch,Top,0,21,21,6,num_3,0.916943516,1,359,22,85,6,1,21,24
Team,Team,Match,Top,0,22,22,3,num_3,0.600247615,0,359,23,84,6,1,21,24
Person1,Person1,Match,Bottom,0,23,23,42,z,0.516954255,1,360,24,88,6,1,21,24
Person2,StrangerTeam,Mismatch,Bottom,0,24,24,62,num_3,0.650255847,1,361,25,79,6,1,21,24
Stranger,StrangerTeam,Mismatch,Bottom,0,25,25,69,num_3,0.616979403,1,362,26,84,6,1,21,24
Team,Team,Match,Bottom,0,26,26,33,z,0.516891088,1,363,27,79,6,1,21,24
Person2,Person1,Mismatch,Top,0,27,27,28,z,0.550297418,0,363,28,86,6,1,21,24
Stranger,Team,Mismatch,Bottom,0,28,28,68,num_3,0.800250537,1,364,29,79,6,1,21,24
Person1,Person1,Match,Bottom,0,29,29,40,z,0.466960236,1,365,30,87,6,1,21,24
StrangerTeam,Person2,Mismatch,Top,0,30,30,22,num_3,0.616922553,1,366,31,87,6,1,21,24
Person2,Stranger,Mismatch,Top,0,31,31,30,num_3,0.6502594,1,367,32,81,6,1,21,24
Person1,Stranger,Mismatch,Top,0,32,32,14,num_3,0.61694624,1,368,33,84,6,1,21,24
StrangerTeam,StrangerTeam,Match,Bottom,0,33,33,51,z,0.650268085,1,369,34,88,6,1,21,24
Person2,Team,Mismatch,Bottom,0,34,34,63,num_3,0.600264197,1,370,35,86,6,1,21,24
StrangerTeam,StrangerTeam,Match,Bottom,0,35,35,50,z,0.633578935,1,371,36,83,6,1,21,24
Team,Person2,Mismatch,Bottom,0,36,36,39,num_3,0.617107712,1,372,37,87,6,1,21,24
StrangerTeam,StrangerTeam,Match,Top,0,37,37,17,z,0.633557221,1,373,38,84,6,1,21,24
Team,Team,Match,Top,0,38,38,1,z,0.566942747,1,374,39,87,6,1,21,24
StrangerTeam,Team,Mismatch,Bottom,0,39,39,52,num_3,0.666988029,1,375,40,83,6,1,21,24
Person2,Person2,Match,Bottom,0,40,40,56,z,0.850256794,1,376,41,89,6,1,21,24
Team,Team,Match,Bottom,0,41,41,32,z,0.766876184,1,377,42,86,6,1,21,24
Stranger,Stranger,Match,Bottom,0,42,42,73,z,0.55026544,1,378,43,87,6,1,21,24
StrangerTeam,Person2,Mismatch,Bottom,0,43,43,54,z,0.567041445,0,378,44,82,6,1,21,24
Person2,Person2,Match,Bottom,0,44,44,59,num_3,0.366942194,0,378,45,84,6,1,21,24
Person1,StrangerTeam,Mismatch,Bottom,0,45,45,46,num_3,0.816885995,1,379,46,85,6,1,21,24
Person2,Person2,Match,Top,0,46,46,24,z,0.550235436,1,380,47,89,6,1,21,24
StrangerTeam,Person1,Mismatch,Top,0,47,47,23,num_3,0.633633022,1,381,48,78,6,1,21,24
StrangerTeam,StrangerTeam,Match,Bottom,0,48,48,48,z,0.616971112,1,382,49,83,6,1,21,24
Stranger,Person1,Mismatch,Bottom,0,49,49,70,num_3,0.666916572,1,383,50,83,6,1,21,24
Person2,Person1,Mismatch,Bottom,0,50,50,60,num_3,0.650253873,1,384,51,83,6,1,21,24
Person2,Person2,Match,Top,0,51,51,27,z,0.600306834,1,385,52,85,6,1,21,24
Person2,Stranger,Mismatch,Bottom,0,52,52,61,num_3,0.583601892,1,386,53,88,6,1,21,24
Person2,Person2,Match,Top,0,53,53,26,z,0.833584225,1,387,54,87,6,1,21,24
StrangerTeam,Person1,Mismatch,Bottom,0,54,54,55,num_3,0.516936094,1,388,55,85,6,1,21,24
Team,Team,Match,Top,0,55,55,2,z,0.566954195,1,389,56,78,6,1,21,24
Stranger,StrangerTeam,Mismatch,Bottom,0,56,56,77,num_3,0.533564051,1,390,57,86,6,1,21,24
StrangerTeam,StrangerTeam,Match,Top,0,57,57,18,z,0.717004946,1,391,58,80,6,1,21,24
StrangerTeam,Stranger,Mismatch,Top,0,58,58,21,num_3,0.400271934,1,392,59,81,6,1,21,24
Person2,Person2,Match,Bottom,0,59,59,58,z,0.550238989,1,393,60,83,6,1,21,24
Person1,Team,Mismatch,Top,0,60,60,12,num_3,0.716947306,1,394,61,85,6,1,21,24
Team,StrangerTeam,Mismatch,Bottom,0,61,61,38,num_3,0.750240331,1,395,62,85,6,1,21,24
Team,Team,Match,Bottom,0,62,62,35,z,0.616945056,1,396,63,82,6,1,21,24
Stranger,Stranger,Match,Bottom,0,63,63,65,z,0.566921822,1,397,64,84,6,1,21,24
Person2,Team,Mismatch,Top,0,64,64,31,num_3,0.683591904,1,398,65,85,6,1,21,24
Stranger,Stranger,Match,Bottom,0,65,65,64,z,0.616934791,1,399,66,79,6,1,21,24
StrangerTeam,StrangerTeam,Match,Bottom,0,66,66,49,z,0.683595062,1,400,67,84,6,1,21,24
Stranger,Stranger,Match,Bottom,0,67,67,72,z,0.583636634,1,401,68,83,6,1,21,24
Stranger,Team,Mismatch,Bottom,0,68,68,76,num_3,0.668603924,1,402,69,82,6,1,21,24
Stranger,Person2,Mismatch,Bottom,0,69,69,71,num_3,0.650265322,1,403,70,84,6,1,21,24
Person1,StrangerTeam,Mismatch,Top,0,70,70,13,num_3,1.000209636,1,404,71,82,6,1,21,24
Team,Person2,Mismatch,Top,0,71,71,7,num_3,0.633598675,1,405,72,88,6,1,21,24
Person1,Person2,Mismatch,Top,0,72,72,15,z,0.750266782,0,405,73,85,6,1,21,24
Team,Team,Match,Top,0,73,73,0,z,0.633584857,1,406,74,78,6,1,21,24
StrangerTeam,StrangerTeam,Match,Top,0,74,74,16,z,0.600268145,1,407,75,78,6,1,21,24
Person2,Person2,Match,Bottom,0,75,75,57,num_3,0.600222348,0,407,76,81,6,1,21,24
Person1,Stranger,Mismatch,Bottom,0,76,76,45,num_3,0.683590325,1,408,77,85,6,1,21,24
Team,Person1,Mismatch,Top,0,77,77,5,num_3,0.650365205,1,409,78,89,6,1,21,24
Person1,Person1,Match,Top,0,78,78,10,z,0.883517841,1,410,79,89,6,1,21,24
Team,Person1,Mismatch,Bottom,0,79,79,37,num_3,0.550312026,1,411,80,79,6,1,21,24
Stranger,Person2,Mismatch,Bottom,0,0,0,71,num_3,0.516925435,1,412,1,84,7,1,21,24
Team,StrangerTeam,Mismatch,Bottom,0,1,1,38,num_3,0.850261137,1,413,2,86,7,1,21,24
Stranger,Stranger,Match,Bottom,0,2,2,72,z,0.600291437,1,414,3,78,7,1,21,24
Person2,Person2,Match,Top,0,3,3,26,z,0.500231152,1,415,4,83,7,1,21,24
Person1,Person1,Match,Top,0,4,4,8,z,0.450360309,1,416,5,86,7,1,21,24
Person1,Team,Mismatch,Bottom,0,5,5,44,num_3,0.583581758,1,417,6,89,7,1,21,24
Person2,Team,Mismatch,Top,0,6,6,31,num_3,0.550278863,1,418,7,84,7,1,21,24
Person1,Person2,Mismatch,Top,0,7,7,15,num_3,0.700500955,1,419,8,89,7,1,21,24
StrangerTeam,Person1,Mismatch,Top,0,8,8,23,num_3,0.617153902,1,420,9,78,7,1,21,24
Stranger,Person1,Mismatch,Bottom,0,9,9,78,num_3,0.616898075,1,421,10,87,7,1,21,24
Person2,Person1,Mismatch,Bottom,0,10,10,60,num_3,0.70046187,1,422,11,86,7,1,21,24
StrangerTeam,StrangerTeam,Match,Top,0,11,11,18,z,0.650255057,1,423,12,87,7,1,21,24
Person2,StrangerTeam,Mismatch,Top,0,12,12,29,num_3,0.55026544,1,424,13,79,7,1,21,24
Stranger,Team,Mismatch,Bottom,0,13,13,76,num_3,0.917112094,1,425,14,80,7,1,21,24
Stranger,Stranger,Match,Bottom,0,14,14,65,z,0.566889844,1,426,15,89,7,1,21,24
Team,Person2,Mismatch,Top,0,15,15,7,num_3,0.583620448,1,427,16,82,7,1,21,24
Stranger,Person2,Mismatch,Bottom,0,16,16,79,num_3,0.600253537,1,428,17,87,7,1,21,24
Stranger,Team,Mismatch,Bottom,0,17,17,68,num_3,1.066905438,1,429,18,80,7,1,21,24
StrangerTeam,Person2,Mismatch,Top,0,18,18,22,num_3,0.850233501,1,430,19,89,7,1,21,24
Stranger,Stranger,Match,Bottom,0,19,19,75,z,0.667097782,1,431,20,89,7,1,21,24
Person1,Person1,Match,Top,0,20,20,11,z,0.583601497,1,432,21,86,7,1,21,24
Person2,Team,Mismatch,Bottom,0,21,21,63,num_3,0.717076404,1,433,22,83,7,1,21,24
Team,Team,Match,Top,0,22,22,0,num_3,0.583587285,0,433,23,83,7,1,21,24
Person1,Person1,Match,Bottom,0,23,23,42,z,0.500422233,1,434,24,78,7,1,21,24
Stranger,StrangerTeam,Mismatch,Bottom,0,24,24,69,num_3,0.600233797,1,435,25,79,7,1,21,24
Person1,Person1,Match,Bottom,0,25,25,40,z,0.500419864,1,436,26,88,7,1,21,24
Team,Team,Match,Bottom,0,26,26,32,z,0.750289286,1,437,27,88,7,1,21,24
Person2,Person2,Match,Top,0,27,27,24,z,0.70024118,1,438,28,80,7,1,21,24
Team,StrangerTeam,Mismatch,Top,0,28,28,6,num_3,0.633569065,1,439,29,84,7,1,21,24
Person1,Stranger,Mismatch,Bottom,0,29,29,45,num_3,0.765014728,1,440,30,87,7,1,21,24
StrangerTeam,StrangerTeam,Match,Top,0,30,30,16,z,0.633644866,1,441,31,87,7,1,21,24
Team,Team,Match,Top,0,31,31,1,z,0.600264986,1,442,32,78,7,1,21,24
StrangerTeam,Person2,Mismatch,Bottom,0,32,32,54,num_3,0.716943358,1,443,33,79,7,1,21,24
Stranger,Stranger,Match,Bottom,0,33,33,64,z,0.583614921,1,444,34,84,7,1,21,24
Stranger,StrangerTeam,Mismatch,Bottom,0,34,34,77,num_3,0.666905123,1,445,35,87,7,1,21,24
Person2,Person1,Mismatch,Top,0,35,35,28,z,0.51696294,0,445,36,88,7,1,21,24
Team,Team,Match,Top,0,36,36,3,z,0.750477208,1,446,37,78,7,1,21,24
Stranger,Stranger,Match,Bottom,0,37,37,67,z,0.566930113,1,447,38,79,7,1,21,24
Team,Team,Match,Bottom,0,38,38,34,z,0.717046005,1,448,39,84,7,1,21,24
Person2,Person2,Match,Bottom,0,39,39,57,z,0.666927231,1,449,40,87,7,1,21,24
Team,Team,Match,Top,0,40,40,2,num_3,0.55026623,0,449,41,87,7,1,21,24
Person1,Person1,Match,Bottom,0,41,41,41,z,0.566938799,1,450,42,78,7,1,21,24
Person1,Person1,Match,Top,0,42,42,9,z,0.383600945,1,451,43,88,7,1,21,24
Person2,StrangerTeam,Mismatch,Bottom,0,43,43,62,num_3,0.733634877,1,452,44,86,7,1,21,24
Person1,Person2,Mismatch,Bottom,0,44,44,47,num_3,0.71688335,1,453,45,84,7,1,21,24
Person2,Stranger,Mismatch,Bottom,0,45,45,61,num_3,0.650246372,1,454,46,83,7,1,21,24
Person1,Stranger,Mismatch,Top,0,46,46,14,num_3,0.600292622,1,455,47,87,7,1,21,24
Stranger,Person1,Mismatch,Bottom,0,47,47,70,num_3,0.583630712,1,456,48,79,7,1,21,24
StrangerTeam,StrangerTeam,Match,Bottom,0,48,48,51,z,0.516891482,1,457,49,82,7,1,21,24
Team,Person1,Mismatch,Bottom,0,49,49,37,num_3,0.633563933,1,458,50,83,7,1,21,24
Team,Team,Match,Bottom,0,50,50,33,z,0.566984595,1,459,51,80,7,1,21,24
Person1,StrangerTeam,Mismatch,Bottom,0,51,51,46,num_3,0.683564268,1,460,52,81,7,1,21,24
StrangerTeam,StrangerTeam,Match,Top,0,52,52,17,z,0.650375469,1,461,53,86,7,1,21,24
Person1,Person1,Match,Top,0,53,53,10,z,0.633601044,1,462,54,80,7,1,21,24
StrangerTeam,Stranger,Mismatch,Bottom,0,54,54,53,num_3,0.550285575,1,463,55,81,7,1,21,24
StrangerTeam,Team,Mismatch,Top,0,55,55,20,num_3,0.583643741,1,464,56,85,7,1,21,24
Team,Stranger,Mismatch,Bottom,0,56,56,36,num_3,0.483615039,1,465,57,88,7,1,21,24
StrangerTeam,StrangerTeam,Match,Top,0,57,57,19,z,0.733570526,1,466,58,88,7,1,21,24
Stranger,Stranger,Match,Bottom,0,58,58,73,z,0.683603748,1,467,59,83,7,1,21,24
StrangerTeam,Person1,Mismatch,Bottom,0,59,59,55,num_3,0.598485647,1,468,60,88,7,1,21,24
Team,Person1,Mismatch,Top,0,60,60,5,num_3,0.583650847,1,469,61,78,7,1,21,24
StrangerTeam,StrangerTeam,Match,Bottom,0,61,61,49,z,0.600251958,1,470,62,78,7,1,21,24
Person1,Person1,Match,Bottom,0,62,62,43,z,0.633514978,1,471,63,85,7,1,21,24
Person2,Person2,Match,Top,0,63,63,27,num_3,0.583705329,0,471,64,83,7,1,21,24
Person2,Person2,Match,Bottom,0,64,64,58,z,0.816927843,1,472,65,84,7,1,21,24
Team,Team,Match,Bottom,0,65,65,35,z,0.650260584,1,473,66,84,7,1,21,24
Person2,Person2,Match,Top,0,66,66,25,z,0.717169971,1,474,67,82,7,1,21,24
Person2,Person2,Match,Bottom,0,67,67,59,z,1.050247477,1,475,68,85,7,1,21,24
Team,Person2,Mismatch,Bottom,0,68,68,39,num_3,0.550254781,1,476,69,85,7,1,21,24
Stranger,Stranger,Match,Bottom,0,69,69,74,z,0.516916749,1,477,70,86,7,1,21,24
StrangerTeam,StrangerTeam,Match,Bottom,0,70,70,50,z,0.616943082,1,478,71,86,7,1,21,24
Person1,StrangerTeam,Mismatch,Top,0,71,71,13,num_3,0.783627317,1,479,72,87,7,1,21,24
Team,Stranger,Mismatch,Top,0,72,72,4,num_3,0.583560439,1,480,73,81,7,1,21,24
StrangerTeam,Stranger,Mismatch,Top,0,73,73,21,num_3,0.583603472,1,481,74,79,7,1,21,24
StrangerTeam,Team,Mismatch,Bottom,0,74,74,52,num_3,0.850268243,1,482,75,78,7,1,21,24
Person2,Person2,Match,Bottom,0,75,75,56,z,0.633574198,1,483,76,78,7,1,21,24
StrangerTeam,StrangerTeam,Match,Bottom,0,76,76,48,z,0.73361119,1,484,77,87,7,1,21,24
Person1,Team,Mismatch,Top,0,77,77,12,num_3,0.716874664,1,485,78,87,7,1,21,24
Person2,Stranger,Mismatch,Top,0,78,78,30,num_3,0.716906643,1,486,79,81,7,1,21,24
Stranger,Stranger,Match,Bottom,0,79,79,66,z,0.633560774,1,487,80,82,7,1,21,24
Person1,Person1,Match,Bottom,0,0,0,41,z,0.615018459,1,488,1,80,8,1,21,24
StrangerTeam,StrangerTeam,Match,Bottom,0,1,1,49,z,0.666929995,1,489,2,85,8,1,21,24
Person2,Person2,Match,Top,0,2,2,27,z,0.66700619,1,490,3,88,8,1,21,24
Person2,Person2,Match,Top,0,3,3,24,z,0.583555701,1,491,4,88,8,1,21,24
Person1,Person1,Match,Bottom,0,4,4,43,z,0.567073029,1,492,5,86,8,1,21,24
Person1,StrangerTeam,Mismatch,Top,0,5,5,13,num_3,0.550255965,1,493,6,79,8,1,21,24
Stranger,Stranger,Match,Bottom,0,6,6,73,z,0.56701381,1,494,7,85,8,1,21,24
Person1,Person2,Mismatch,Top,0,7,7,15,num_3,0.81720341,1,495,8,89,8,1,21,24
Stranger,Stranger,Match,Bottom,0,8,8,67,z,0.600274066,1,496,9,86,8,1,21,24
Team,Stranger,Mismatch,Top,0,9,9,4,num_3,0.483602406,1,497,10,82,8,1,21,24
Person1,Person2,Mismatch,Bottom,0,10,10,47,num_3,0.683578876,1,498,11,87,8,1,21,24
Stranger,Team,Mismatch,Bottom,0,11,11,76,num_3,0.633753829,1,499,12,81,8,1,21,24
Team,Team,Match,Top,0,12,12,3,z,0.700313033,1,500,13,84,8,1,21,24
Stranger,Stranger,Match,Bottom,0,13,13,74,z,0.56690682,1,501,14,86,8,1,21,24
Person1,Stranger,Mismatch,Top,0,14,14,14,num_3,0.58353833,1,502,15,82,8,1,21,24
Person1,Person1,Match,Bottom,0,15,15,42,z,0.550254386,1,503,16,79,8,1,21,24
Person1,StrangerTeam,Mismatch,Bottom,0,16,16,46,num_3,0.59674026,1,504,17,82,8,1,21,24
Person1,Stranger,Mismatch,Bottom,0,17,17,45,num_3,0.550279258,1,505,18,78,8,1,21,24
Stranger,StrangerTeam,Mismatch,Bottom,0,18,18,69,num_3,0.68360059,1,506,19,81,8,1,21,24
Stranger,Person1,Mismatch,Bottom,0,19,19,78,num_3,0.583602682,1,507,20,88,8,1,21,24
Person1,Person1,Match,Top,0,20,20,11,z,0.800243036,1,508,21,89,8,1,21,24
StrangerTeam,Person2,Mismatch,Top,0,21,21,22,num_3,1.000255432,1,509,22,79,8,1,21,24
Stranger,Person2,Mismatch,Bottom,0,22,22,79,num_3,0.583610183,1,510,23,89,8,1,21,24
Stranger,Person1,Mismatch,Bottom,0,23,23,70,num_3,0.716901905,1,511,24,78,8,1,21,24
Stranger,Team,Mismatch,Bottom,0,24,24,68,num_3,0.70026092,1,512,25,86,8,1,21,24
Stranger,Stranger,Match,Bottom,0,25,25,64,z,0.61711916,1,513,26,87,8,1,21,24
Team,Team,Match,Bottom,0,26,26,33,z,0.616952557,1,514,27,87,8,1,21,24
Team,Team,Match,Top,0,27,27,0,z,1.466891542,1,515,28,81,8,1,21,24
Person2,Person2,Match,Bottom,0,28,28,57,z,0.583600708,1,516,29,78,8,1,21,24
Stranger,Stranger,Match,Bottom,0,29,29,75,z,0.631891978,1,517,30,87,8,1,21,24
Team,Team,Match,Bottom,0,30,30,32,z,0.650244003,1,518,31,81,8,1,21,24
Person2,Stranger,Mismatch,Bottom,0,31,31,61,num_3,0.616965191,1,519,32,81,8,1,21,24
Person1,Team,Mismatch,Bottom,0,32,32,44,num_3,0.633546167,1,520,33,83,8,1,21,24
StrangerTeam,Team,Mismatch,Bottom,0,33,33,52,num_3,0.566921033,1,521,34,82,8,1,21,24
Stranger,Person2,Mismatch,Bottom,0,34,34,71,num_3,0.600269724,1,522,35,86,8,1,21,24
Stranger,StrangerTeam,Mismatch,Bottom,0,35,35,77,num_3,0.633556037,1,523,36,84,8,1,21,24
StrangerTeam,StrangerTeam,Match,Top,0,36,36,18,z,0.683578876,1,524,37,81,8,1,21,24
Team,Person2,Mismatch,Bottom,0,37,37,39,num_3,0.616937555,1,525,38,81,8,1,21,24
Team,Team,Match,Bottom,0,38,38,34,num_3,0.850218499,0,525,39,88,8,1,21,24
Person2,Person2,Match,Bottom,0,39,39,56,z,0.566916295,1,526,40,84,8,1,21,24
Person2,Person1,Mismatch,Bottom,0,40,40,60,num_3,0.616933212,1,527,41,89,8,1,21,24
Person2,Person2,Match,Top,0,41,41,25,z,0.750216249,1,528,42,84,8,1,21,24
Person2,Person2,Match,Bottom,0,42,42,59,z,0.566917085,1,529,43,78,8,1,21,24
Person1,Team,Mismatch,Top,0,43,43,12,num_3,0.733621454,1,530,44,81,8,1,21,24
StrangerTeam,StrangerTeam,Match,Top,0,44,44,17,z,0.566862603,1,531,45,88,8,1,21,24
StrangerTeam,StrangerTeam,Match,Bottom,0,45,45,50,z,0.533574316,1,532,46,78,8,1,21,24
Team,StrangerTeam,Mismatch,Top,0,46,46,6,num_3,0.583619263,1,533,47,81,8,1,21,24
Team,Team,Match,Bottom,0,47,47,35,z,0.616908735,1,534,48,89,8,1,21,24
Person2,Person2,Match,Bottom,0,48,48,58,z,0.65024874,1,535,49,80,8,1,21,24
StrangerTeam,Stranger,Mismatch,Top,0,49,49,21,num_3,0.650222289,1,536,50,82,8,1,21,24
Person2,StrangerTeam,Mismatch,Top,0,50,50,29,num_3,0.650278745,1,537,51,86,8,1,21,24
Person1,Person1,Match,Top,0,51,51,10,z,0.56693643,1,538,52,83,8,1,21,24
StrangerTeam,Stranger,Mismatch,Bottom,0,52,52,53,num_3,0.5336059,1,539,53,89,8,1,21,24
Person1,Person1,Match,Top,0,53,53,8,z,0.533724733,1,540,54,78,8,1,21,24
StrangerTeam,Person1,Mismatch,Bottom,0,54,54,55,num_3,0.700240785,1,541,55,88,8,1,21,24
StrangerTeam,Person1,Mismatch,Top,0,55,55,23,num_3,0.583622422,1,542,56,82,8,1,21,24
StrangerTeam,StrangerTeam,Match,Top,0,56,56,19,z,0.700209202,1,543,57,82,8,1,21,24
Team,Person2,Mismatch,Top,0,57,57,7,num_3,0.566852733,1,544,58,82,8,1,21,24
Person2,Person1,Mismatch,Top,0,58,58,28,num_3,0.783560992,1,545,59,83,8,1,21,24
Stranger,Stranger,Match,Bottom,0,59,59,66,z,0.5151761,1,546,60,79,8,1,21,24
StrangerTeam,Team,Mismatch,Top,0,60,60,20,num_3,0.666980923,1,547,61,86,8,1,21,24
Person1,Person1,Match,Bottom,0,61,61,40,z,0.516891877,1,548,62,82,8,1,21,24
Team,Team,Match,Top,0,62,62,2,num_3,0.516930567,0,548,63,84,8,1,21,24
Team,Team,Match,Top,0,63,63,1,z,0.833573171,1,549,64,82,8,1,21,24
Stranger,Stranger,Match,Bottom,0,64,64,72,z,0.766940536,1,550,65,81,8,1,21,24
Team,Person1,Mismatch,Bottom,0,65,65,37,num_3,0.733597767,1,551,66,82,8,1,21,24
Person2,Team,Mismatch,Bottom,0,66,66,63,num_3,0.767210575,1,552,67,85,8,1,21,24
Team,Stranger,Mismatch,Bottom,0,67,67,36,z,0.5003792,0,552,68,82,8,1,21,24
Person1,Person1,Match,Top,0,68,68,9,z,0.533572342,1,553,69,89,8,1,21,24
Person2,Stranger,Mismatch,Top,0,69,69,30,num_3,0.500233521,1,554,70,86,8,1,21,24
Person2,Team,Mismatch,Top,0,70,70,31,num_3,0.783577968,1,555,71,82,8,1,21,24
Person2,StrangerTeam,Mismatch,Bottom,0,71,71,62,num_3,0.800305808,1,556,72,82,8,1,21,24
Stranger,Stranger,Match,Bottom,0,72,72,65,z,0.533579448,1,557,73,84,8,1,21,24
Team,StrangerTeam,Mismatch,Bottom,0,73,73,38,num_3,0.800222111,1,558,74,84,8,1,21,24
Person2,Person2,Match,Top,0,74,74,26,z,0.766973304,1,559,75,89,8,1,21,24
StrangerTeam,StrangerTeam,Match,Bottom,0,75,75,48,num_3,0.650313487,0,559,76,84,8,1,21,24
Team,Person1,Mismatch,Top,0,76,76,5,num_3,0.833573171,1,560,77,82,8,1,21,24
StrangerTeam,StrangerTeam,Match,Bottom,0,77,77,51,z,0.533588529,1,561,78,78,8,1,21,24
StrangerTeam,StrangerTeam,Match,Top,0,78,78,16,z,0.516940832,1,562,79,89,8,1,21,24
StrangerTeam,Person2,Mismatch,Bottom,0,79,79,54,num_3,0.650251504,1,563,80,84,8,1,21,24
Person2,StrangerTeam,Mismatch,Bottom,0,0,0,62,None,None,3,6,1,116,1,10,36,26
Stranger,Stranger,Match,Bottom,0,1,1,72,z,0.933540627,1,7,2,98,1,10,36,26
Person1,Stranger,Mismatch,Top,0,2,2,14,None,None,3,7,3,94,1,10,36,26
Team,Team,Match,Bottom,0,3,3,35,z,0.950198996,1,8,4,93,1,10,36,26
Team,Team,Match,Bottom,0,4,4,33,z,0.950175703,1,9,5,111,1,10,36,26
Team,Stranger,Mismatch,Bottom,0,5,5,36,None,None,3,9,6,103,1,10,36,26
StrangerTeam,StrangerTeam,Match,Bottom,0,6,6,51,None,None,3,9,7,110,1,10,36,26
Person2,Person1,Mismatch,Bottom,0,7,7,60,None,None,3,9,8,111,1,10,36,26
StrangerTeam,StrangerTeam,Match,Bottom,0,8,8,48,None,None,3,9,9,95,1,10,36,26
StrangerTeam,Team,Mismatch,Bottom,0,9,9,52,None,None,3,9,10,114,1,10,36,26
Person2,Person2,Match,Top,0,10,10,24,z,1.116880599,1,10,11,105,1,10,36,26
Person1,Team,Mismatch,Top,0,11,11,12,None,None,3,10,12,91,1,10,36,26
StrangerTeam,Person1,Mismatch,Top,0,12,12,23,None,None,3,10,13,94,1,10,36,26
Team,Team,Match,Top,0,13,13,0,z,0.866883067,1,11,14,103,1,10,36,26
Person2,Team,Mismatch,Bottom,0,14,14,63,None,None,3,11,15,102,1,10,36,26
StrangerTeam,Person2,Mismatch,Bottom,0,15,15,54,None,None,3,11,16,111,1,10,36,26
StrangerTeam,StrangerTeam,Match,Top,0,16,16,16,None,None,3,11,17,100,1,10,36,26
Team,Person2,Mismatch,Top,0,17,17,7,None,None,3,11,18,107,1,10,36,26
Stranger,StrangerTeam,Mismatch,Bottom,0,18,18,69,None,None,3,11,19,104,1,10,36,26
Stranger,Person1,Mismatch,Bottom,0,19,19,70,num_3,0.216794889,1,12,20,94,1,10,36,26
Person2,Person2,Match,Bottom,0,20,20,59,z,0.900191515,1,13,21,98,1,10,36,26
StrangerTeam,StrangerTeam,Match,Top,0,21,21,18,None,None,3,13,22,113,1,10,36,26
Person1,Person1,Match,Top,0,22,22,8,z,0.750213683,1,14,23,93,1,10,36,26
Person1,Person1,Match,Bottom,0,23,23,42,None,None,3,14,24,100,1,10,36,26
Stranger,Person2,Mismatch,Bottom,0,24,24,71,None,None,3,14,25,97,1,10,36,26
Team,Team,Match,Top,0,25,25,3,z,0.700197911,1,15,26,92,1,10,36,26
Person2,Stranger,Mismatch,Bottom,0,26,26,61,None,None,3,15,27,112,1,10,36,26
Team,StrangerTeam,Mismatch,Top,0,27,27,6,num_3,1.683507958,1,16,28,90,1,10,36,26
Team,Team,Match,Bottom,0,28,28,34,None,None,3,16,29,107,1,10,36,26
StrangerTeam,StrangerTeam,Match,Top,0,29,29,17,None,None,3,16,30,97,1,10,36,26
Stranger,Team,Mismatch,Bottom,0,30,30,76,None,None,3,16,31,93,1,10,36,26
Person2,Person2,Match,Top,0,31,31,27,z,1.066867986,1,17,32,109,1,10,36,26
Person1,Person2,Mismatch,Top,0,32,32,15,num_3,1.383499785,1,18,33,107,1,10,36,26
Person1,Person1,Match,Top,0,33,33,9,None,None,3,18,34,108,1,10,36,26
Stranger,Person1,Mismatch,Bottom,0,34,34,78,num_3,1.633525743,1,19,35,102,1,10,36,26
Stranger,StrangerTeam,Mismatch,Bottom,0,35,35,77,z,1.666641926,0,19,36,101,1,10,36,26
Person1,Person1,Match,Bottom,0,36,36,41,z,0.716859833,1,20,37,97,1,10,36,26
Stranger,Stranger,Match,Bottom,0,37,37,67,None,None,3,20,38,97,1,10,36,26
Stranger,Person2,Mismatch,Bottom,0,38,38,79,None,None,3,20,39,106,1,10,36,26
Person1,StrangerTeam,Mismatch,Top,0,39,39,13,z,0.716890232,0,20,40,115,1,10,36,26
Team,Stranger,Mismatch,Top,0,40,40,4,num_3,1.450153792,1,21,41,118,1,10,36,26
Stranger,Stranger,Match,Bottom,0,41,41,74,z,1.116844278,1,22,42,112,1,10,36,26
Person2,Person1,Mismatch,Top,0,42,42,28,num_3,1.850454863,1,23,43,107,1,10,36,26
Person1,StrangerTeam,Mismatch,Bottom,0,43,43,46,z,1.050188297,0,23,44,92,1,10,36,26
Team,Person1,Mismatch,Top,0,44,44,5,num_3,1.500159695,1,24,45,106,1,10,36,26
Stranger,Stranger,Match,Bottom,0,45,45,66,None,None,3,24,46,116,1,10,36,26
Person2,Stranger,Mismatch,Top,0,46,46,30,None,None,3,24,47,98,1,10,36,26
Stranger,Stranger,Match,Bottom,0,47,47,65,z,1.516846884,1,25,48,107,1,10,36,26
Person1,Person1,Match,Top,0,48,48,11,z,0.666861827,1,26,49,117,1,10,36,26
StrangerTeam,Person1,Mismatch,Bottom,0,49,49,55,num_3,1.06684035,1,27,50,107,1,10,36,26
Stranger,Stranger,Match,Bottom,0,50,50,73,z,1.083685063,1,28,51,95,1,10,36,26
Person1,Stranger,Mismatch,Bottom,0,51,51,45,num_3,1.166873079,1,29,52,119,1,10,36,26
Person2,Team,Mismatch,Top,0,52,52,31,num_3,1.383508076,1,30,53,116,1,10,36,26
Person2,Person2,Match,Top,0,53,53,25,z,1.60015018,1,31,54,117,1,10,36,26
Person1,Person2,Mismatch,Bottom,0,54,54,47,num_3,1.383499391,1,32,55,110,1,10,36,26
Team,Team,Match,Top,0,55,55,2,num_3,1.516974008,0,32,56,97,1,10,36,26
Person1,Person1,Match,Bottom,0,56,56,43,z,0.666869328,1,33,57,97,1,10,36,26
Person2,Person2,Match,Top,0,57,57,26,z,0.766855866,1,34,58,109,1,10,36,26
Person2,Person2,Match,Bottom,0,58,58,56,z,0.733534389,1,35,59,97,1,10,36,26
Person2,Person2,Match,Bottom,0,59,59,58,z,0.614973543,1,36,60,106,1,10,36,26
StrangerTeam,StrangerTeam,Match,Bottom,0,60,60,49,num_3,1.866804898,0,36,61,119,1,10,36,26
StrangerTeam,Stranger,Mismatch,Bottom,0,61,61,53,None,None,3,36,62,109,1,10,36,26
Team,Team,Match,Top,0,62,62,1,z,0.800216821,1,37,63,112,1,10,36,26
Person1,Person1,Match,Top,0,63,63,10,z,0.600205451,1,38,64,92,1,10,36,26
StrangerTeam,StrangerTeam,Match,Bottom,0,64,64,50,num_3,1.983708,0,38,65,117,1,10,36,26
StrangerTeam,StrangerTeam,Match,Top,0,65,65,19,None,None,3,38,66,110,1,10,36,26
Person1,Team,Mismatch,Bottom,0,66,66,44,z,0.733544654,0,38,67,90,1,10,36,26
Person2,StrangerTeam,Mismatch,Top,0,67,67,29,None,None,3,38,68,118,1,10,36,26
Team,Person2,Mismatch,Bottom,0,68,68,39,None,None,3,38,69,93,1,10,36,26
Stranger,Stranger,Match,Bottom,0,69,69,75,None,None,3,38,70,101,1,10,36,26
Stranger,Team,Mismatch,Bottom,0,70,70,68,num_3,1.700158826,1,39,71,97,1,10,36,26
Person2,Person2,Match,Bottom,0,71,71,57,z,0.833540272,1,40,72,94,1,10,36,26
StrangerTeam,Stranger,Mismatch,Top,0,72,72,21,None,None,3,40,73,116,1,10,36,26
Person1,Person1,Match,Bottom,0,73,73,40,z,0.850202984,1,41,74,112,1,10,36,26
StrangerTeam,Person2,Mismatch,Top,0,74,74,22,num_3,1.300171617,1,42,75,106,1,10,36,26
Team,Team,Match,Bottom,0,75,75,32,z,0.9335351,1,43,76,95,1,10,36,26
StrangerTeam,Team,Mismatch,Top,0,76,76,20,num_3,1.666812478,1,44,77,90,1,10,36,26
Team,Person1,Mismatch,Bottom,0,77,77,37,z,1.350152647,0,44,78,99,1,10,36,26
Team,StrangerTeam,Mismatch,Bottom,0,78,78,38,None,None,3,44,79,117,1,10,36,26
Stranger,Stranger,Match,Bottom,0,79,79,64,z,1.033549668,1,45,80,108,1,10,36,26
StrangerTeam,StrangerTeam,Match,Bottom,0,0,0,50,None,None,3,45,1,99,2,10,36,26
Stranger,Stranger,Match,Bottom,0,1,1,75,z,0.900197832,1,46,2,96,2,10,36,26
Stranger,StrangerTeam,Mismatch,Bottom,0,2,2,77,None,None,3,46,3,109,2,10,36,26
Person2,Person1,Mismatch,Bottom,0,3,3,60,num_3,1.366848917,1,47,4,100,2,10,36,26
Person2,Team,Mismatch,Bottom,0,4,4,63,num_3,1.000428747,1,48,5,109,2,10,36,26
Person2,Person2,Match,Bottom,0,5,5,56,z,1.433518716,1,49,6,106,2,10,36,26
Team,Team,Match,Bottom,0,6,6,34,z,0.900189146,1,50,7,102,2,10,36,26
StrangerTeam,Team,Mismatch,Bottom,0,7,7,52,num_3,0.833509478,1,51,8,96,2,10,36,26
Person2,Person2,Match,Top,0,8,8,26,num_3,0.966995544,0,51,9,91,2,10,36,26
Team,Team,Match,Top,0,9,9,3,z,0.733518597,1,52,10,101,2,10,36,26
Team,Person2,Mismatch,Bottom,0,10,10,39,None,None,3,52,11,114,2,10,36,26
StrangerTeam,Stranger,Mismatch,Bottom,0,11,11,53,num_3,1.2668608,1,53,12,109,2,10,36,26
Person2,Person2,Match,Bottom,0,12,12,58,z,0.68353204,1,54,13,111,2,10,36,26
Person1,Person1,Match,Bottom,0,13,13,42,z,0.633519821,1,55,14,116,2,10,36,26
StrangerTeam,StrangerTeam,Match,Bottom,0,14,14,48,None,None,3,55,15,97,2,10,36,26
StrangerTeam,Person1,Mismatch,Top,0,15,15,23,None,None,3,55,16,92,2,10,36,26
Stranger,Stranger,Match,Bottom,0,16,16,72,z,0.700229099,1,56,17,93,2,10,36,26
Person1,StrangerTeam,Mismatch,Bottom,0,17,17,46,num_3,1.516648697,1,57,18,96,2,10,36,26
Person1,StrangerTeam,Mismatch,Top,0,18,18,13,None,None,3,57,19,98,2,10,36,26
Team,Team,Match,Bottom,0,19,19,32,z,1.233510899,1,58,20,90,2,10,36,26
Team,Team,Match,Top,0,20,20,0,z,0.650199115,1,59,21,106,2,10,36,26
Person1,Team,Mismatch,Top,0,21,21,12,num_3,0.866868065,1,60,22,118,2,10,36,26
StrangerTeam,StrangerTeam,Match,Top,0,22,22,18,num_3,1.816811629,0,60,23,115,2,10,36,26
Person1,Person1,Match,Top,0,23,23,9,z,0.583528921,1,61,24,108,2,10,36,26
Stranger,Person1,Mismatch,Bottom,0,24,24,70,num_3,1.516831487,1,62,25,101,2,10,36,26
Team,Person2,Mismatch,Top,0,25,25,7,num_3,1.316831566,1,63,26,109,2,10,36,26
StrangerTeam,StrangerTeam,Match,Bottom,0,26,26,49,z,1.016856951,1,64,27,110,2,10,36,26
Team,Stranger,Mismatch,Bottom,0,27,27,36,num_3,1.683486639,1,65,28,107,2,10,36,26
StrangerTeam,StrangerTeam,Match,Top,0,28,28,19,z,1.11684033,1,66,29,109,2,10,36,26
Stranger,Person2,Mismatch,Bottom,0,29,29,71,num_3,1.216835948,1,67,30,110,2,10,36,26
Stranger,Stranger,Match,Bottom,0,30,30,67,z,1.616815656,1,68,31,96,2,10,36,26
Team,Team,Match,Top,0,31,31,2,z,1.083601366,1,69,32,99,2,10,36,26
Person2,Person2,Match,Bottom,0,32,32,59,z,0.81686611,1,70,33,116,2,10,36,26
Person1,Person1,Match,Bottom,0,33,33,40,z,0.516870572,1,71,34,114,2,10,36,26
Team,StrangerTeam,Mismatch,Top,0,34,34,6,num_3,1.350182652,1,72,35,98,2,10,36,26
Stranger,Team,Mismatch,Bottom,0,35,35,76,num_3,1.350181073,1,73,36,103,2,10,36,26
Person2,StrangerTeam,Mismatch,Bottom,0,36,36,62,num_3,1.033533481,1,74,37,102,2,10,36,26
Stranger,StrangerTeam,Mismatch,Bottom,0,37,37,69,num_3,1.583479572,1,75,38,99,2,10,36,26
StrangerTeam,Person2,Mismatch,Bottom,0,38,38,54,num_3,1.46682598,1,76,39,117,2,10,36,26
Person2,Stranger,Mismatch,Bottom,0,39,39,61,num_3,1.183506181,1,77,40,104,2,10,36,26
Person2,StrangerTeam,Mismatch,Top,0,40,40,29,num_3,1.200227323,1,78,41,108,2,10,36,26
Person2,Person2,Match,Bottom,0,41,41,57,z,0.816844792,1,79,42,99,2,10,36,26
Team,Person1,Mismatch,Bottom,0,42,42,37,num_3,1.033519663,1,80,43,105,2,10,36,26
Stranger,Team,Mismatch,Bottom,0,43,43,68,num_3,1.383518736,1,81,44,105,2,10,36,26
Person2,Person2,Match,Top,0,44,44,25,z,0.950190706,1,82,45,91,2,10,36,26
StrangerTeam,Person2,Mismatch,Top,0,45,45,22,num_3,0.850184034,1,83,46,98,2,10,36,26
Person1,Person2,Mismatch,Top,0,46,46,15,num_3,1.000191476,1,84,47,103,2,10,36,26
Stranger,Stranger,Match,Bottom,0,47,47,66,z,0.916938713,1,85,48,98,2,10,36,26
Person1,Person1,Match,Top,0,48,48,8,z,0.600201109,1,86,49,107,2,10,36,26
Person2,Person1,Mismatch,Top,0,49,49,28,num_3,0.867292469,1,87,50,102,2,10,36,26
Person1,Person1,Match,Bottom,0,50,50,43,z,0.916892522,1,88,51,102,2,10,36,26
StrangerTeam,Team,Mismatch,Top,0,51,51,20,z,1.085180546,0,88,52,114,2,10,36,26
Person1,Stranger,Mismatch,Top,0,52,52,14,num_3,1.266848957,1,89,53,103,2,10,36,26
Person1,Team,Mismatch,Bottom,0,53,53,44,num_3,1.483495798,1,90,54,98,2,10,36,26
Team,Stranger,Mismatch,Top,0,54,54,4,num_3,1.266850141,1,91,55,114,2,10,36,26
Stranger,Person1,Mismatch,Bottom,0,55,55,78,num_3,1.216843054,1,92,56,114,2,10,36,26
Team,Team,Match,Top,0,56,56,1,z,1.200157049,1,93,57,90,2,10,36,26
Person1,Person1,Match,Top,0,57,57,11,z,0.650181349,1,94,58,114,2,10,36,26
Person1,Person1,Match,Top,0,58,58,10,z,0.600194792,1,95,59,117,2,10,36,26
Person2,Stranger,Mismatch,Top,0,59,59,30,z,1.01684945,0,95,60,94,2,10,36,26
Stranger,Stranger,Match,Bottom,0,60,60,74,z,1.083520433,1,96,61,115,2,10,36,26
Person1,Stranger,Mismatch,Bottom,0,61,61,45,num_3,1.116847831,1,97,62,104,2,10,36,26
Team,StrangerTeam,Mismatch,Bottom,0,62,62,38,None,None,3,97,63,96,2,10,36,26
StrangerTeam,Stranger,Mismatch,Top,0,63,63,21,num_3,1.316841436,1,98,64,102,2,10,36,26
Team,Team,Match,Bottom,0,64,64,35,None,None,3,98,65,113,2,10,36,26
StrangerTeam,StrangerTeam,Match,Top,0,65,65,17,None,None,3,98,66,101,2,10,36,26
StrangerTeam,Person1,Mismatch,Bottom,0,66,66,55,num_3,1.066895227,1,99,67,100,2,10,36,26
Person1,Person1,Match,Bottom,0,67,67,41,z,0.666870907,1,100,68,104,2,10,36,26
Person2,Team,Mismatch,Top,0,68,68,31,num_3,1.233505372,1,101,69,102,2,10,36,26
Person2,Person2,Match,Top,0,69,69,24,z,0.95018281,1,102,70,102,2,10,36,26
Team,Person1,Mismatch,Top,0,70,70,5,num_3,1.133510544,1,103,71,98,2,10,36,26
Person1,Person2,Mismatch,Bottom,0,71,71,47,num_3,1.466827164,1,104,72,96,2,10,36,26
Person2,Person2,Match,Top,0,72,72,27,z,1.083752967,1,105,73,114,2,10,36,26
Stranger,Person2,Mismatch,Bottom,0,73,73,79,num_3,0.768573223,1,106,74,91,2,10,36,26
StrangerTeam,StrangerTeam,Match,Bottom,0,74,74,51,None,None,3,106,75,94,2,10,36,26
Team,Team,Match,Bottom,0,75,75,33,z,0.73357071,1,107,76,118,2,10,36,26
Stranger,Stranger,Match,Bottom,0,76,76,65,z,1.200179948,1,108,77,94,2,10,36,26
Stranger,Stranger,Match,Bottom,0,77,77,64,z,0.750202628,1,109,78,94,2,10,36,26
Stranger,Stranger,Match,Bottom,0,78,78,73,z,0.550224421,1,110,79,109,2,10,36,26
StrangerTeam,StrangerTeam,Match,Top,0,79,79,16,z,1.366840232,1,111,80,104,2,10,36,26
Person1,Team,Mismatch,Bottom,0,0,0,44,num_3,1.45014866,1,112,1,118,3,10,36,26
Team,Stranger,Mismatch,Bottom,0,1,1,36,num_3,1.033521243,1,113,2,105,3,10,36,26
Team,Team,Match,Bottom,0,2,2,32,z,1.749432384,1,114,3,97,3,10,36,26
Person1,Person1,Match,Top,0,3,3,8,z,0.600201503,1,115,4,108,3,10,36,26
StrangerTeam,Team,Mismatch,Bottom,0,4,4,52,num_3,1.450150634,1,116,5,93,3,10,36,26
Stranger,Stranger,Match,Bottom,0,5,5,73,z,0.814978596,1,117,6,119,3,10,36,26
Person1,Stranger,Mismatch,Bottom,0,6,6,45,num_3,1.200170078,1,118,7,96,3,10,36,26
Person1,StrangerTeam,Mismatch,Top,0,7,7,13,num_3,1.73347596,1,119,8,110,3,10,36,26
Stranger,Stranger,Match,Bottom,0,8,8,65,z,0.866864512,1,120,9,97,3,10,36,26
Team,Team,Match,Bottom,0,9,9,34,z,1.083509774,1,121,10,100,3,10,36,26
Stranger,Person1,Mismatch,Bottom,0,10,10,78,num_3,0.833530797,1,122,11,103,3,10,36,26
Person1,Person1,Match,Top,0,11,11,11,z,0.650200694,1,123,12,110,3,10,36,26
Team,StrangerTeam,Mismatch,Bottom,0,12,12,38,num_3,1.016856951,1,124,13,108,3,10,36,26
Team,Person1,Mismatch,Bottom,0,13,13,37,num_3,1.166828467,1,125,14,94,3,10,36,26
Person1,Team,Mismatch,Top,0,14,14,12,num_3,1.316847358,1,126,15,98,3,10,36,26
StrangerTeam,StrangerTeam,Match,Top,0,15,15,16,z,1.216845028,1,127,16,106,3,10,36,26
Person2,Person2,Match,Bottom,0,16,16,58,z,0.750192759,1,128,17,95,3,10,36,26
Stranger,Person2,Mismatch,Bottom,0,17,17,79,num_3,0.800180895,1,129,18,100,3,10,36,26
Team,Team,Match,Top,0,18,18,1,z,0.800268145,1,130,19,92,3,10,36,26
Stranger,Stranger,Match,Bottom,0,19,19,74,z,1.183529079,1,131,20,106,3,10,36,26
Team,Person1,Mismatch,Top,0,20,20,5,num_3,0.966854207,1,132,21,106,3,10,36,26
Team,Team,Match,Top,0,21,21,0,z,1.133503042,1,133,22,108,3,10,36,26
Stranger,StrangerTeam,Mismatch,Bottom,0,22,22,69,num_3,1.083513327,1,134,23,93,3,10,36,26
Person1,Person1,Match,Bottom,0,23,23,41,z,0.700201464,1,135,24,110,3,10,36,26
Person2,Person1,Mismatch,Bottom,0,24,24,60,num_3,1.400233561,1,136,25,106,3,10,36,26
Person2,StrangerTeam,Mismatch,Bottom,0,25,25,62,None,None,3,136,26,94,3,10,36,26
Person2,Team,Mismatch,Bottom,0,26,26,63,num_3,1.416842581,1,137,27,92,3,10,36,26
Person1,Person1,Match,Top,0,27,27,9,z,0.583556557,1,138,28,110,3,10,36,26
Person1,Person2,Mismatch,Bottom,0,28,28,47,num_3,0.933527994,1,139,29,92,3,10,36,26
Stranger,StrangerTeam,Mismatch,Bottom,0,29,29,77,num_3,1.28351009,1,140,30,108,3,10,36,26
StrangerTeam,StrangerTeam,Match,Bottom,0,30,30,48,z,0.766883106,1,141,31,93,3,10,36,26
Stranger,Person1,Mismatch,Bottom,0,31,31,70,num_3,1.166857682,1,142,32,107,3,10,36,26
Stranger,Team,Mismatch,Bottom,0,32,32,76,num_3,1.016849845,1,143,33,113,3,10,36,26
Team,Person2,Mismatch,Top,0,33,33,7,num_3,1.033532297,1,144,34,90,3,10,36,26
Person1,Stranger,Mismatch,Top,0,34,34,14,None,None,3,144,35,108,3,10,36,26
StrangerTeam,StrangerTeam,Match,Bottom,0,35,35,51,z,1.101841679,1,145,36,119,3,10,36,26
StrangerTeam,StrangerTeam,Match,Top,0,36,36,17,z,1.050187508,1,146,37,103,3,10,36,26
Person2,Stranger,Mismatch,Top,0,37,37,30,num_3,0.783527658,1,147,38,96,3,10,36,26
Stranger,Stranger,Match,Bottom,0,38,38,64,None,None,3,147,39,102,3,10,36,26
StrangerTeam,Person1,Mismatch,Top,0,39,39,23,num_3,0.783550161,1,148,40,96,3,10,36,26
Stranger,Team,Mismatch,Bottom,0,40,40,68,num_3,1.166848207,1,149,41,103,3,10,36,26
Person2,Person2,Match,Bottom,0,41,41,57,z,0.733525704,1,150,42,118,3,10,36,26
Person1,StrangerTeam,Mismatch,Bottom,0,42,42,46,num_3,1.050194614,1,151,43,110,3,10,36,26
Person2,Person2,Match,Top,0,43,43,26,z,1.433502924,1,152,44,115,3,10,36,26
Person2,Person2,Match,Top,0,44,44,27,num_3,1.050202905,0,152,45,90,3,10,36,26
Person2,Person2,Match,Top,0,45,45,25,z,0.633528902,1,153,46,94,3,10,36,26
Person1,Person2,Mismatch,Top,0,46,46,15,num_3,0.866864906,1,154,47,92,3,10,36,26
Stranger,Person2,Mismatch,Bottom,0,47,47,71,num_3,0.916880678,1,155,48,92,3,10,36,26
Team,Team,Match,Bottom,0,48,48,33,z,1.00019187,1,156,49,98,3,10,36,26
Stranger,Stranger,Match,Bottom,0,49,49,72,z,1.016913012,1,157,50,109,3,10,36,26
StrangerTeam,Team,Mismatch,Top,0,50,50,20,num_3,1.500164432,1,158,51,94,3,10,36,26
Person1,Person1,Match,Bottom,0,51,51,40,z,0.683550596,1,159,52,91,3,10,36,26
StrangerTeam,StrangerTeam,Match,Top,0,52,52,18,z,1.681583333,1,160,53,109,3,10,36,26
Person2,StrangerTeam,Mismatch,Top,0,53,53,29,num_3,0.950208866,1,161,54,101,3,10,36,26
Person2,Person1,Mismatch,Top,0,54,54,28,num_3,1.150187863,1,162,55,117,3,10,36,26
Person2,Person2,Match,Bottom,0,55,55,59,z,1.300169249,1,163,56,90,3,10,36,26
StrangerTeam,Stranger,Mismatch,Top,0,56,56,21,num_3,1.383503339,1,164,57,110,3,10,36,26
Person1,Person1,Match,Top,0,57,57,10,z,0.733777978,1,165,58,100,3,10,36,26
Team,Person2,Mismatch,Bottom,0,58,58,39,num_3,0.850188771,1,166,59,105,3,10,36,26
Person2,Stranger,Mismatch,Bottom,0,59,59,61,num_3,1.150183915,1,167,60,118,3,10,36,26
StrangerTeam,Person2,Mismatch,Top,0,60,60,22,num_3,0.950183599,1,168,61,117,3,10,36,26
Team,Stranger,Mismatch,Top,0,61,61,4,num_3,0.983518893,1,169,62,118,3,10,36,26
StrangerTeam,StrangerTeam,Match,Bottom,0,62,62,49,z,1.116848226,1,170,63,99,3,10,36,26
Stranger,Stranger,Match,Bottom,0,63,63,67,z,1.016844713,1,171,64,103,3,10,36,26
StrangerTeam,StrangerTeam,Match,Bottom,0,64,64,50,z,1.733488198,1,172,65,94,3,10,36,26
Stranger,Stranger,Match,Bottom,0,65,65,75,z,0.933530362,1,173,66,114,3,10,36,26
StrangerTeam,Person2,Mismatch,Bottom,0,66,66,54,num_3,1.033486895,1,174,67,106,3,10,36,26
Stranger,Stranger,Match,Bottom,0,67,67,66,num_3,1.116833224,0,174,68,106,3,10,36,26
StrangerTeam,Person1,Mismatch,Bottom,0,68,68,55,num_3,1.733483461,1,175,69,105,3,10,36,26
Team,Team,Match,Bottom,0,69,69,35,z,1.450156161,1,176,70,119,3,10,36,26
StrangerTeam,Stranger,Mismatch,Bottom,0,70,70,53,num_3,1.216847397,1,177,71,107,3,10,36,26
Person1,Person1,Match,Bottom,0,71,71,43,z,0.650231883,1,178,72,119,3,10,36,26
Person2,Person2,Match,Bottom,0,72,72,56,z,0.600249668,1,179,73,96,3,10,36,26
Team,StrangerTeam,Mismatch,Top,0,73,73,6,None,None,3,179,74,94,3,10,36,26
Person1,Person1,Match,Bottom,0,74,74,42,z,0.583535238,1,180,75,96,3,10,36,26
Person2,Person2,Match,Top,0,75,75,24,z,0.581637459,1,181,76,107,3,10,36,26
Team,Team,Match,Top,0,76,76,3,z,0.733540311,1,182,77,117,3,10,36,26
Person2,Team,Mismatch,Top,0,77,77,31,num_3,0.800191949,1,183,78,106,3,10,36,26
StrangerTeam,StrangerTeam,Match,Top,0,78,78,19,z,1.500251287,1,184,79,114,3,10,36,26
Team,Team,Match,Top,0,79,79,2,z,0.783520946,1,185,80,119,3,10,36,26
Person1,Person1,Match,Top,0,0,0,8,z,0.633526533,1,186,1,107,4,10,36,26
Stranger,Stranger,Match,Bottom,0,1,1,65,z,0.733536363,1,187,2,90,4,10,36,26
Person2,Person2,Match,Bottom,0,2,2,59,z,0.633532455,1,188,3,110,4,10,36,26
Person1,Person1,Match,Bottom,0,3,3,40,z,0.63353127,1,189,4,91,4,10,36,26
Stranger,Stranger,Match,Bottom,0,4,4,73,z,0.766859419,1,190,5,108,4,10,36,26
StrangerTeam,StrangerTeam,Match,Bottom,0,5,5,50,z,1.400173157,1,191,6,90,4,10,36,26
StrangerTeam,StrangerTeam,Match,Top,0,6,6,18,z,0.816867295,1,192,7,103,4,10,36,26
Stranger,Stranger,Match,Bottom,0,7,7,64,z,0.883508274,1,193,8,106,4,10,36,26
StrangerTeam,Stranger,Mismatch,Bottom,0,8,8,53,num_3,1.016851424,1,194,9,94,4,10,36,26
Stranger,StrangerTeam,Mismatch,Bottom,0,9,9,69,z,0.933517729,0,194,10,101,4,10,36,26
Person2,Person2,Match,Bottom,0,10,10,56,z,0.650205826,1,195,11,118,4,10,36,26
Person1,Person1,Match,Top,0,11,11,11,z,0.666867354,1,196,12,102,4,10,36,26
Team,Team,Match,Bottom,0,12,12,32,z,0.800196687,1,197,13,99,4,10,36,26
Team,Person2,Mismatch,Bottom,0,13,13,39,num_3,0.783795724,1,198,14,113,4,10,36,26
Team,Team,Match,Bottom,0,14,14,33,z,0.850193114,1,199,15,118,4,10,36,26
Person1,Person1,Match,Top,0,15,15,10,z,0.566883975,1,200,16,113,4,10,36,26
Stranger,Person2,Mismatch,Bottom,0,16,16,71,num_3,0.783548187,1,201,17,113,4,10,36,26
Person1,Team,Mismatch,Bottom,0,17,17,44,num_3,1.383527816,1,202,18,104,4,10,36,26
StrangerTeam,Team,Mismatch,Bottom,0,18,18,52,None,None,3,202,19,104,4,10,36,26
Team,Team,Match,Top,0,19,19,0,z,1.000196608,1,203,20,109,4,10,36,26
Person1,Person1,Match,Bottom,0,20,20,41,z,0.566870552,1,204,21,97,4,10,36,26
Person1,Person2,Mismatch,Bottom,0,21,21,47,num_3,0.800174973,1,205,22,101,4,10,36,26
StrangerTeam,Person1,Mismatch,Top,0,22,22,23,z,0.816893351,0,205,23,118,4,10,36,26
StrangerTeam,Person2,Mismatch,Top,0,23,23,22,num_3,1.366827993,1,206,24,103,4,10,36,26
StrangerTeam,Stranger,Mismatch,Top,0,24,24,21,num_3,1.300198463,1,207,25,108,4,10,36,26
StrangerTeam,StrangerTeam,Match,Top,0,25,25,16,z,1.2835093,1,208,26,94,4,10,36,26
StrangerTeam,StrangerTeam,Match,Bottom,0,26,26,51,z,0.733547812,1,209,27,95,4,10,36,26
Person1,Person1,Match,Bottom,0,27,27,42,z,0.566877263,1,210,28,90,4,10,36,26
Person1,Team,Mismatch,Top,0,28,28,12,num_3,1.100198542,1,211,29,111,4,10,36,26
StrangerTeam,StrangerTeam,Match,Top,0,29,29,17,z,0.950201365,1,212,30,98,4,10,36,26
Person2,Person1,Mismatch,Bottom,0,30,30,60,num_3,1.366849707,1,213,31,106,4,10,36,26
StrangerTeam,Person1,Mismatch,Bottom,0,31,31,55,num_3,1.200174026,1,214,32,91,4,10,36,26
Team,StrangerTeam,Mismatch,Top,0,32,32,6,z,1.533485908,0,214,33,110,4,10,36,26
Stranger,Person1,Mismatch,Bottom,0,33,33,78,num_3,1.416825999,1,215,34,102,4,10,36,26
StrangerTeam,Team,Mismatch,Top,0,34,34,20,num_3,1.983471123,1,216,35,113,4,10,36,26
StrangerTeam,StrangerTeam,Match,Top,0,35,35,19,z,0.966852233,1,217,36,94,4,10,36,26
Person1,Person2,Mismatch,Top,0,36,36,15,num_3,1.000429142,1,218,37,112,4,10,36,26
Person2,Person2,Match,Top,0,37,37,26,z,1.166851365,1,219,38,104,4,10,36,26
Person1,Stranger,Mismatch,Bottom,0,38,38,45,num_3,1.250170453,1,220,39,91,4,10,36,26
Team,Team,Match,Top,0,39,39,3,z,1.100171696,1,221,40,106,4,10,36,26
Stranger,Stranger,Match,Bottom,0,40,40,75,z,0.866839245,1,222,41,110,4,10,36,26
Stranger,Person1,Mismatch,Bottom,0,41,41,70,num_3,0.900252313,1,223,42,90,4,10,36,26
Team,Team,Match,Bottom,0,42,42,35,z,1.400180658,1,224,43,98,4,10,36,26
Person2,Team,Mismatch,Top,0,43,43,31,num_3,0.966875132,1,225,44,98,4,10,36,26
Person1,Person1,Match,Bottom,0,44,44,43,z,0.683572704,1,226,45,117,4,10,36,26
Person1,Stranger,Mismatch,Top,0,45,45,14,num_3,0.983513366,1,227,46,107,4,10,36,26
Person2,Person2,Match,Top,0,46,46,27,z,1.200166919,1,228,47,101,4,10,36,26
Team,Stranger,Mismatch,Bottom,0,47,47,36,num_3,1.016904721,1,229,48,111,4,10,36,26
Person2,Person2,Match,Top,0,48,48,25,z,0.966857761,1,230,49,111,4,10,36,26
Person2,Person2,Match,Bottom,0,49,49,57,z,0.666872881,1,231,50,114,4,10,36,26
Person1,StrangerTeam,Mismatch,Top,0,50,50,13,num_3,1.066856142,1,232,51,116,4,10,36,26
Person2,Stranger,Mismatch,Bottom,0,51,51,61,num_3,1.233579198,1,233,52,114,4,10,36,26
Person2,Person2,Match,Bottom,0,52,52,58,z,0.733567552,1,234,53,101,4,10,36,26
Stranger,Stranger,Match,Bottom,0,53,53,74,z,1.633511531,1,235,54,92,4,10,36,26
Team,StrangerTeam,Mismatch,Bottom,0,54,54,38,num_3,1.183541713,1,236,55,119,4,10,36,26
Stranger,Stranger,Match,Bottom,0,55,55,67,z,0.866867275,1,237,56,90,4,10,36,26
Person2,Person1,Mismatch,Top,0,56,56,28,num_3,0.900198227,1,238,57,93,4,10,36,26
Stranger,StrangerTeam,Mismatch,Bottom,0,57,57,77,num_3,1.2835093,1,239,58,102,4,10,36,26
Team,Person1,Mismatch,Bottom,0,58,58,37,num_3,1.216844239,1,240,59,97,4,10,36,26
Stranger,Stranger,Match,Bottom,0,59,59,66,z,1.033517295,1,241,60,96,4,10,36,26
StrangerTeam,Person2,Mismatch,Bottom,0,60,60,54,num_3,0.850429596,1,242,61,112,4,10,36,26
Person2,Stranger,Mismatch,Top,0,61,61,30,num_3,1.068503621,1,243,62,102,4,10,36,26
Person2,StrangerTeam,Mismatch,Top,0,62,62,29,num_3,0.966859735,1,244,63,103,4,10,36,26
Team,Stranger,Mismatch,Top,0,63,63,4,num_3,0.900196253,1,245,64,91,4,10,36,26
Team,Team,Match,Bottom,0,64,64,34,z,1.083508589,1,246,65,116,4,10,36,26
Person2,StrangerTeam,Mismatch,Bottom,0,65,65,62,num_3,0.866863327,1,247,66,110,4,10,36,26
Team,Team,Match,Top,0,66,66,2,z,1.3168517,1,248,67,92,4,10,36,26
StrangerTeam,StrangerTeam,Match,Bottom,0,67,67,48,z,1.516832671,1,249,68,96,4,10,36,26
Person1,Person1,Match,Top,0,68,68,9,z,0.600255985,1,250,69,98,4,10,36,26
Team,Person1,Mismatch,Top,0,69,69,5,num_3,0.983531132,1,251,70,93,4,10,36,26
Team,Team,Match,Top,0,70,70,1,z,1.316879336,1,252,71,118,4,10,36,26
Stranger,Person2,Mismatch,Bottom,0,71,71,79,num_3,0.93352602,1,253,72,111,4,10,36,26
Person2,Team,Mismatch,Bottom,0,72,72,63,num_3,1.066852194,1,254,73,95,4,10,36,26
Stranger,Team,Mismatch,Bottom,0,73,73,76,num_3,1.10019341,1,255,74,113,4,10,36,26
Stranger,Stranger,Match,Bottom,0,74,74,72,z,1.066852194,1,256,75,115,4,10,36,26
Person1,StrangerTeam,Mismatch,Bottom,0,75,75,46,num_3,1.183528684,1,257,76,104,4,10,36,26
StrangerTeam,StrangerTeam,Match,Bottom,0,76,76,49,z,1.450176296,1,258,77,96,4,10,36,26
Person2,Person2,Match,Top,0,77,77,24,z,0.833541851,1,259,78,119,4,10,36,26
Stranger,Team,Mismatch,Bottom,0,78,78,68,num_3,1.064952836,1,260,79,114,4,10,36,26
Team,Person2,Mismatch,Top,0,79,79,7,num_3,0.866861353,1,261,80,112,4,10,36,26
Stranger,Stranger,Match,Bottom,0,0,0,67,z,0.76685705,1,262,1,92,5,10,36,26
Person1,Stranger,Mismatch,Bottom,0,1,1,45,num_3,0.833526454,1,263,2,98,5,10,36,26
Team,Team,Match,Bottom,0,2,2,33,z,0.800189186,1,264,3,98,5,10,36,26
Team,StrangerTeam,Mismatch,Top,0,3,3,6,num_3,0.900202964,1,265,4,99,5,10,36,26
Person1,Person1,Match,Top,0,4,4,8,z,0.650231093,1,266,5,108,5,10,36,26
Team,Team,Match,Top,0,5,5,0,z,1.266846193,1,267,6,100,5,10,36,26
Person1,Team,Mismatch,Bottom,0,6,6,44,num_3,0.71686615,1,268,7,94,5,10,36,26
StrangerTeam,StrangerTeam,Match,Bottom,0,7,7,48,z,1.250189403,1,269,8,107,5,10,36,26
Stranger,Person2,Mismatch,Bottom,0,8,8,79,num_3,0.916860544,1,270,9,112,5,10,36,26
Team,Team,Match,Top,0,9,9,3,z,0.816831369,1,271,10,108,5,10,36,26
StrangerTeam,StrangerTeam,Match,Top,0,10,10,16,z,1.400169604,1,272,11,101,5,10,36,26
Person1,Person1,Match,Bottom,0,11,11,42,z,0.600209794,1,273,12,99,5,10,36,26
Team,Person1,Mismatch,Bottom,0,12,12,37,num_3,0.750212498,1,274,13,108,5,10,36,26
Stranger,Person2,Mismatch,Bottom,0,13,13,71,num_3,1.016843923,1,275,14,114,5,10,36,26
Person1,StrangerTeam,Mismatch,Top,0,14,14,13,num_3,1.06691694,1,276,15,105,5,10,36,26
Person2,Person2,Match,Bottom,0,15,15,56,z,0.966871184,1,277,16,98,5,10,36,26
StrangerTeam,Person1,Mismatch,Bottom,0,16,16,55,num_3,0.650223197,1,278,17,106,5,10,36,26
Team,Team,Match,Bottom,0,17,17,35,z,0.616880797,1,279,18,99,5,10,36,26
Stranger,Stranger,Match,Bottom,0,18,18,75,z,0.983520867,1,280,19,93,5,10,36,26
Person1,Person1,Match,Top,0,19,19,9,z,0.598310831,1,281,20,111,5,10,36,26
Person1,Team,Mismatch,Top,0,20,20,12,num_3,0.900198621,1,282,21,117,5,10,36,26
Person2,Person2,Match,Top,0,21,21,25,z,0.916861333,1,283,22,106,5,10,36,26
Stranger,Stranger,Match,Bottom,0,22,22,66,z,1.016854977,1,284,23,105,5,10,36,26
Person1,Person1,Match,Bottom,0,23,23,43,z,0.566880422,1,285,24,98,5,10,36,26
Person2,Person2,Match,Bottom,0,24,24,57,z,0.66687446,1,286,25,101,5,10,36,26
StrangerTeam,StrangerTeam,Match,Bottom,0,25,25,51,num_3,0.983782222,0,286,26,116,5,10,36,26
Team,Person2,Mismatch,Bottom,0,26,26,39,num_3,1.316871045,1,287,27,119,5,10,36,26
Team,Team,Match,Top,0,27,27,1,z,1.383541634,1,288,28,97,5,10,36,26
Person2,Person2,Match,Top,0,28,28,24,z,0.650206616,1,289,29,90,5,10,36,26
Team,StrangerTeam,Mismatch,Bottom,0,29,29,38,num_3,1.350181467,1,290,30,93,5,10,36,26
StrangerTeam,StrangerTeam,Match,Top,0,30,30,19,z,1.633508372,1,291,31,101,5,10,36,26
StrangerTeam,Team,Mismatch,Bottom,0,31,31,52,num_3,1.40018658,1,292,32,114,5,10,36,26
Person2,Person1,Mismatch,Top,0,32,32,28,num_3,0.900212439,1,293,33,92,5,10,36,26
StrangerTeam,StrangerTeam,Match,Top,0,33,33,18,z,1.283512458,1,294,34,106,5,10,36,26
Stranger,Team,Mismatch,Bottom,0,34,34,76,num_3,0.800206557,1,295,35,93,5,10,36,26
StrangerTeam,StrangerTeam,Match,Top,0,35,35,17,z,1.083570572,1,296,36,115,5,10,36,26
Person2,StrangerTeam,Mismatch,Bottom,0,36,36,62,num_3,0.816926514,1,297,37,118,5,10,36,26
Stranger,Stranger,Match,Bottom,0,37,37,64,z,1.133530283,1,298,38,98,5,10,36,26
Person1,Person1,Match,Bottom,0,38,38,40,z,0.816875191,1,299,39,94,5,10,36,26
Team,Person1,Mismatch,Top,0,39,39,5,num_3,0.866933995,1,300,40,106,5,10,36,26
StrangerTeam,Stranger,Mismatch,Bottom,0,40,40,53,num_3,1.433513584,1,301,41,112,5,10,36,26
Person1,Person2,Mismatch,Bottom,0,41,41,47,num_3,1.000198582,1,302,42,114,5,10,36,26
Team,Stranger,Mismatch,Top,0,42,42,4,num_3,0.866853457,1,303,43,102,5,10,36,26
Person2,Team,Mismatch,Top,0,43,43,31,num_3,1.131628951,1,304,44,116,5,10,36,26
Team,Team,Match,Bottom,0,44,44,32,z,1.033520058,1,305,45,90,5,10,36,26
Stranger,Stranger,Match,Bottom,0,45,45,73,z,0.883554465,1,306,46,109,5,10,36,26
StrangerTeam,Team,Mismatch,Top,0,46,46,20,num_3,1.166863604,1,307,47,108,5,10,36,26
Person2,Stranger,Mismatch,Top,0,47,47,30,num_3,1.783492126,1,308,48,105,5,10,36,26
Person1,Person2,Mismatch,Top,0,48,48,15,num_3,0.933518518,1,309,49,110,5,10,36,26
Person2,Person2,Match,Bottom,0,49,49,59,z,0.866870039,1,310,50,96,5,10,36,26
Person1,Stranger,Mismatch,Top,0,50,50,14,num_3,1.733478723,1,311,51,95,5,10,36,26
StrangerTeam,Person1,Mismatch,Top,0,51,51,23,num_3,0.833575014,1,312,52,97,5,10,36,26
StrangerTeam,StrangerTeam,Match,Bottom,0,52,52,49,z,1.283522328,1,313,53,109,5,10,36,26
Person2,Person2,Match,Top,0,53,53,27,num_3,0.750194338,0,313,54,104,5,10,36,26
StrangerTeam,Stranger,Mismatch,Top,0,54,54,21,None,None,3,313,55,119,5,10,36,26
Person1,Person1,Match,Top,0,55,55,10,z,0.683563229,1,314,56,110,5,10,36,26
Person2,StrangerTeam,Mismatch,Top,0,56,56,29,num_3,0.883521697,1,315,57,100,5,10,36,26
Person2,Stranger,Mismatch,Bottom,0,57,57,61,num_3,0.916849884,1,316,58,91,5,10,36,26
StrangerTeam,Person2,Mismatch,Top,0,58,58,22,num_3,0.866861748,1,317,59,101,5,10,36,26
Stranger,Team,Mismatch,Bottom,0,59,59,68,num_3,1.283494298,1,318,60,91,5,10,36,26
Stranger,Person1,Mismatch,Bottom,0,60,60,70,num_3,0.766859419,1,319,61,107,5,10,36,26
Stranger,Stranger,Match,Bottom,0,61,61,65,z,0.817053638,1,320,62,117,5,10,36,26
Stranger,Stranger,Match,Bottom,0,62,62,72,z,0.800217216,1,321,63,114,5,10,36,26
Stranger,StrangerTeam,Mismatch,Bottom,0,63,63,77,num_3,1.366889976,1,322,64,99,5,10,36,26
Team,Team,Match,Top,0,64,64,2,z,0.883558807,1,323,65,96,5,10,36,26
Person1,Person1,Match,Bottom,0,65,65,41,z,0.700214492,1,324,66,114,5,10,36,26
Person1,Person1,Match,Top,0,66,66,11,z,0.916873967,1,325,67,113,5,10,36,26
Stranger,StrangerTeam,Mismatch,Bottom,0,67,67,69,z,0.983531527,0,325,68,116,5,10,36,26
Team,Stranger,Mismatch,Bottom,0,68,68,36,num_3,1.066849036,1,326,69,117,5,10,36,26
Stranger,Stranger,Match,Bottom,0,69,69,74,z,0.900192699,1,327,70,118,5,10,36,26
StrangerTeam,Person2,Mismatch,Bottom,0,70,70,54,num_3,1.150176809,1,328,71,107,5,10,36,26
StrangerTeam,StrangerTeam,Match,Bottom,0,71,71,50,z,0.950192285,1,329,72,102,5,10,36,26
Stranger,Person1,Mismatch,Bottom,0,72,72,78,num_3,0.833666211,1,330,73,111,5,10,36,26
Team,Team,Match,Bottom,0,73,73,34,z,0.683576257,1,331,74,106,5,10,36,26
Person2,Person1,Mismatch,Bottom,0,74,74,60,num_3,1.068530467,1,332,75,93,5,10,36,26
Person1,StrangerTeam,Mismatch,Bottom,0,75,75,46,num_3,1.183489205,1,333,76,116,5,10,36,26
Person2,Person2,Match,Bottom,0,76,76,58,z,0.916868835,1,334,77,102,5,10,36,26
Person2,Person2,Match,Top,0,77,77,26,z,0.900198227,1,335,78,111,5,10,36,26
Person2,Team,Mismatch,Bottom,0,78,78,63,num_3,0.783547398,1,336,79,114,5,10,36,26
Team,Person2,Mismatch,Top,0,79,79,7,num_3,0.866863722,1,337,80,99,5,10,36,26
Person2,Stranger,Mismatch,Top,0,0,0,30,num_3,0.733528072,1,338,1,96,6,10,36,26
StrangerTeam,Person2,Mismatch,Top,0,1,1,22,num_3,0.783638201,1,339,2,96,6,10,36,26
Team,Team,Match,Bottom,0,2,2,35,z,0.783518183,1,340,3,98,6,10,36,26
Team,Person2,Mismatch,Bottom,0,3,3,39,num_3,0.816864926,1,341,4,110,6,10,36,26
Stranger,Person1,Mismatch,Bottom,0,4,4,70,num_3,0.833539482,1,342,5,113,6,10,36,26
Stranger,Person2,Mismatch,Bottom,0,5,5,79,num_3,0.85021009,1,343,6,105,6,10,36,26
StrangerTeam,Person2,Mismatch,Bottom,0,6,6,54,num_3,0.816893746,1,344,7,101,6,10,36,26
Stranger,Stranger,Match,Bottom,0,7,7,74,z,0.8168669,1,345,8,96,6,10,36,26
Stranger,Stranger,Match,Bottom,0,8,8,75,z,0.68353204,1,346,9,94,6,10,36,26
Person2,StrangerTeam,Mismatch,Top,0,9,9,29,num_3,1.033521637,1,347,10,104,6,10,36,26
Person2,Person2,Match,Bottom,0,10,10,56,z,0.783540291,1,348,11,107,6,10,36,26
Person1,Person1,Match,Bottom,0,11,11,41,z,0.633543509,1,349,12,101,6,10,36,26
Stranger,Team,Mismatch,Bottom,0,12,12,68,num_3,1.000190291,1,350,13,115,6,10,36,26
StrangerTeam,StrangerTeam,Match,Bottom,0,13,13,50,z,0.683539541,1,351,14,118,6,10,36,26
Person1,Person1,Match,Top,0,14,14,11,z,0.733536758,1,352,15,118,6,10,36,26
Person1,Person2,Mismatch,Top,0,15,15,15,num_3,0.800197476,1,353,16,97,6,10,36,26
Person2,Person2,Match,Bottom,0,16,16,57,z,0.850193903,1,354,17,100,6,10,36,26
Team,Team,Match,Top,0,17,17,1,z,0.766874816,1,355,18,90,6,10,36,26
Person1,Stranger,Mismatch,Bottom,0,18,18,45,num_3,1.018518643,1,356,19,95,6,10,36,26
Person2,Person2,Match,Top,0,19,19,24,z,0.850193904,1,357,20,98,6,10,36,26
StrangerTeam,StrangerTeam,Match,Top,0,20,20,18,None,None,3,357,21,98,6,10,36,26
Team,Team,Match,Bottom,0,21,21,33,None,None,3,357,22,97,6,10,36,26
Person2,Person2,Match,Top,0,22,22,25,z,0.583563268,1,358,23,106,6,10,36,26
Person2,Person1,Mismatch,Top,0,23,23,28,num_3,0.98358285,1,359,24,99,6,10,36,26
Person1,Person2,Mismatch,Bottom,0,24,24,47,num_3,0.80018129,1,360,25,113,6,10,36,26
Person1,Person1,Match,Bottom,0,25,25,42,z,0.683534804,1,361,26,106,6,10,36,26
Team,StrangerTeam,Mismatch,Top,0,26,26,6,num_3,1.083506221,1,362,27,101,6,10,36,26
StrangerTeam,StrangerTeam,Match,Top,0,27,27,17,z,0.700217256,1,363,28,105,6,10,36,26
Person1,Stranger,Mismatch,Top,0,28,28,14,num_3,0.950284272,1,364,29,109,6,10,36,26
Person1,StrangerTeam,Mismatch,Top,0,29,29,13,num_3,1.150182731,1,365,30,113,6,10,36,26
Stranger,Stranger,Match,Bottom,0,30,30,67,z,0.800206557,1,366,31,100,6,10,36,26
Person1,Person1,Match,Bottom,0,31,31,43,z,0.666881961,1,367,32,96,6,10,36,26
Person2,Team,Mismatch,Bottom,0,32,32,63,num_3,0.750240924,1,368,33,110,6,10,36,26
Person2,Stranger,Mismatch,Bottom,0,33,33,61,num_3,0.866916624,1,369,34,111,6,10,36,26
Team,Person1,Mismatch,Top,0,34,34,5,num_3,1.316793666,1,370,35,112,6,10,36,26
Person1,Team,Mismatch,Top,0,35,35,12,num_3,1.066866407,1,371,36,117,6,10,36,26
StrangerTeam,Team,Mismatch,Top,0,36,36,20,num_3,1.250168084,1,372,37,118,6,10,36,26
Team,Person2,Mismatch,Top,0,37,37,7,num_3,0.95019189,1,373,38,117,6,10,36,26
Stranger,Team,Mismatch,Bottom,0,38,38,76,num_3,0.883497614,1,374,39,116,6,10,36,26
StrangerTeam,Team,Mismatch,Bottom,0,39,39,52,num_3,1.416842975,1,375,40,90,6,10,36,26
StrangerTeam,StrangerTeam,Match,Bottom,0,40,40,51,None,None,3,375,41,115,6,10,36,26
Team,Stranger,Mismatch,Top,0,41,41,4,num_3,1.133516071,1,376,42,112,6,10,36,26
Person1,StrangerTeam,Mismatch,Bottom,0,42,42,46,num_3,1.233510504,1,377,43,103,6,10,36,26
StrangerTeam,StrangerTeam,Match,Top,0,43,43,16,z,0.966882633,1,378,44,98,6,10,36,26
Stranger,Stranger,Match,Bottom,0,44,44,73,z,0.883514985,1,379,45,92,6,10,36,26
Person2,Person2,Match,Top,0,45,45,27,z,0.633533639,1,380,46,98,6,10,36,26
Team,Team,Match,Top,0,46,46,3,z,1.033514531,1,381,47,103,6,10,36,26
StrangerTeam,Person1,Mismatch,Bottom,0,47,47,55,num_3,0.833504345,1,382,48,104,6,10,36,26
Stranger,StrangerTeam,Mismatch,Bottom,0,48,48,77,num_3,1.100191041,1,383,49,111,6,10,36,26
Person1,Team,Mismatch,Bottom,0,49,49,44,num_3,1.033501898,1,384,50,102,6,10,36,26
Person1,Person1,Match,Top,0,50,50,9,z,0.933561946,1,385,51,111,6,10,36,26
StrangerTeam,Stranger,Mismatch,Bottom,0,51,51,53,num_3,1.166873473,1,386,52,112,6,10,36,26
Stranger,Stranger,Match,Bottom,0,52,52,65,z,0.600242957,1,387,53,112,6,10,36,26
Person1,Person1,Match,Top,0,53,53,10,z,0.633549826,1,388,54,117,6,10,36,26
Stranger,Person1,Mismatch,Bottom,0,54,54,78,num_3,0.783606617,1,389,55,104,6,10,36,26
Stranger,Stranger,Match,Bottom,0,55,55,66,z,1.183563032,1,390,56,117,6,10,36,26
StrangerTeam,Person1,Mismatch,Top,0,56,56,23,z,0.716882731,0,390,57,101,6,10,36,26
Team,StrangerTeam,Mismatch,Bottom,0,57,57,38,num_3,1.100195384,1,391,58,119,6,10,36,26
Stranger,Stranger,Match,Bottom,0,58,58,64,z,0.766867315,1,392,59,92,6,10,36,26
Stranger,Stranger,Match,Bottom,0,59,59,72,z,0.800207741,1,393,60,108,6,10,36,26
Team,Person1,Mismatch,Bottom,0,60,60,37,num_3,0.766862972,1,394,61,106,6,10,36,26
Team,Team,Match,Bottom,0,61,61,34,z,0.950189126,1,395,62,103,6,10,36,26
Person2,Team,Mismatch,Top,0,62,62,31,num_3,0.850217196,1,396,63,115,6,10,36,26
Stranger,Person2,Mismatch,Bottom,0,63,63,71,num_3,1.466842561,1,397,64,96,6,10,36,26
Person2,Person1,Mismatch,Bottom,0,64,64,60,num_3,0.850190745,1,398,65,97,6,10,36,26
Person2,Person2,Match,Top,0,65,65,26,z,0.866877145,1,399,66,108,6,10,36,26
Person2,Person2,Match,Bottom,0,66,66,59,z,0.716871282,1,400,67,103,6,10,36,26
StrangerTeam,Stranger,Mismatch,Top,0,67,67,21,num_3,1.135205003,1,401,68,103,6,10,36,26
Person2,Person2,Match,Bottom,0,68,68,58,z,1.100160642,1,402,69,114,6,10,36,26
Person1,Person1,Match,Bottom,0,69,69,40,z,0.583517077,1,403,70,108,6,10,36,26
Team,Team,Match,Top,0,70,70,0,z,0.683583363,1,404,71,104,6,10,36,26
Team,Stranger,Mismatch,Bottom,0,71,71,36,num_3,0.900233758,1,405,72,107,6,10,36,26
StrangerTeam,StrangerTeam,Match,Bottom,0,72,72,49,z,1.350161333,1,406,73,108,6,10,36,26
StrangerTeam,StrangerTeam,Match,Bottom,0,73,73,48,z,0.916844357,1,407,74,90,6,10,36,26
Team,Team,Match,Bottom,0,74,74,32,z,0.833525664,1,408,75,112,6,10,36,26
Stranger,StrangerTeam,Mismatch,Bottom,0,75,75,69,None,None,3,408,76,103,6,10,36,26
Person2,StrangerTeam,Mismatch,Bottom,0,76,76,62,num_3,1.466847298,1,409,77,103,6,10,36,26
Person1,Person1,Match,Top,0,77,77,8,z,0.6668563,1,410,78,113,6,10,36,26
StrangerTeam,StrangerTeam,Match,Top,0,78,78,19,z,1.51665304,1,411,79,109,6,10,36,26
Team,Team,Match,Top,0,79,79,2,z,0.783528842,1,412,80,104,6,10,36,26
StrangerTeam,StrangerTeam,Match,Bottom,0,0,0,50,z,1.883492087,1,413,1,104,7,10,36,26
Person2,Team,Mismatch,Top,0,1,1,31,num_3,0.833489343,1,414,2,104,7,10,36,26
Team,Team,Match,Top,0,2,2,0,z,1.198304672,1,415,3,115,7,10,36,26
Person2,Person2,Match,Top,0,3,3,25,z,0.766864156,1,416,4,112,7,10,36,26
Person2,Person2,Match,Top,0,4,4,26,z,0.616872901,1,417,5,108,7,10,36,26
StrangerTeam,Stranger,Mismatch,Bottom,0,5,5,53,num_3,1.100180382,1,418,6,106,7,10,36,26
StrangerTeam,Person2,Mismatch,Bottom,0,6,6,54,num_3,0.816858215,1,419,7,115,7,10,36,26
Stranger,Person1,Mismatch,Bottom,0,7,7,78,num_3,1.116845068,1,420,8,116,7,10,36,26
Person2,Person1,Mismatch,Top,0,8,8,28,num_3,0.950427977,1,421,9,116,7,10,36,26
StrangerTeam,StrangerTeam,Match,Bottom,0,9,9,51,z,0.783586482,1,422,10,111,7,10,36,26
StrangerTeam,Person2,Mismatch,Top,0,10,10,22,num_3,0.800168656,1,423,11,116,7,10,36,26
StrangerTeam,Person1,Mismatch,Top,0,11,11,23,num_3,0.716859438,1,424,12,105,7,10,36,26
StrangerTeam,StrangerTeam,Match,Top,0,12,12,18,z,1.100182356,1,425,13,119,7,10,36,26
Person2,Person2,Match,Top,0,13,13,24,z,0.700210939,1,426,14,93,7,10,36,26
StrangerTeam,Team,Mismatch,Bottom,0,14,14,52,num_3,1.033501898,1,427,15,112,7,10,36,26
StrangerTeam,StrangerTeam,Match,Top,0,15,15,17,z,1.133520019,1,428,16,100,7,10,36,26
Team,StrangerTeam,Mismatch,Top,0,16,16,6,num_3,0.833552905,1,429,17,92,7,10,36,26
Stranger,Stranger,Match,Bottom,0,17,17,74,z,0.983529158,1,430,18,104,7,10,36,26
Stranger,Person1,Mismatch,Bottom,0,18,18,70,num_3,0.766861787,1,431,19,114,7,10,36,26
Person1,Stranger,Mismatch,Bottom,0,19,19,45,num_3,0.933534705,1,432,20,90,7,10,36,26
Person2,Person2,Match,Bottom,0,20,20,58,z,0.866864117,1,433,21,91,7,10,36,26
Stranger,Stranger,Match,Bottom,0,21,21,75,z,0.866867275,1,434,22,103,7,10,36,26
StrangerTeam,StrangerTeam,Match,Bottom,0,22,22,49,z,1.233524717,1,435,23,111,7,10,36,26
Person1,StrangerTeam,Mismatch,Top,0,23,23,13,num_3,1.333521124,1,436,24,109,7,10,36,26
Person1,Person2,Mismatch,Bottom,0,24,24,47,num_3,1.050198562,1,437,25,109,7,10,36,26
Team,Team,Match,Bottom,0,25,25,32,z,1.050200141,1,438,26,115,7,10,36,26
StrangerTeam,StrangerTeam,Match,Bottom,0,26,26,48,z,0.933541022,1,439,27,95,7,10,36,26
Team,Team,Match,Bottom,0,27,27,33,z,0.881630234,1,440,28,119,7,10,36,26
Person1,Team,Mismatch,Bottom,0,28,28,44,num_3,1.016847476,1,441,29,99,7,10,36,26
Person1,Person1,Match,Bottom,0,29,29,41,z,0.650167136,1,442,30,113,7,10,36,26
Stranger,Person2,Mismatch,Bottom,0,30,30,71,num_3,0.716905235,1,443,31,116,7,10,36,26
Person1,StrangerTeam,Mismatch,Bottom,0,31,31,46,num_3,1.033558748,1,444,32,103,7,10,36,26
Stranger,StrangerTeam,Mismatch,Bottom,0,32,32,69,num_3,0.950184784,1,445,33,112,7,10,36,26
Stranger,Stranger,Match,Bottom,0,33,33,72,z,0.867119944,1,446,34,113,7,10,36,26
StrangerTeam,Person1,Mismatch,Bottom,0,34,34,55,num_3,0.816871638,1,447,35,113,7,10,36,26
Person2,Person2,Match,Bottom,0,35,35,56,z,0.750217236,1,448,36,102,7,10,36,26
Person1,Person2,Mismatch,Top,0,36,36,15,num_3,1.566848049,1,449,37,95,7,10,36,26
Team,Team,Match,Top,0,37,37,3,z,0.983521657,1,450,38,109,7,10,36,26
Stranger,Person2,Mismatch,Bottom,0,38,38,79,num_3,0.80026775,1,451,39,117,7,10,36,26
Person1,Person1,Match,Top,0,39,39,11,z,0.666864196,1,452,40,104,7,10,36,26
Team,Stranger,Mismatch,Bottom,0,40,40,36,num_3,0.950207682,1,453,41,109,7,10,36,26
Team,Team,Match,Top,0,41,41,2,z,0.650201089,1,454,42,100,7,10,36,26
Stranger,Stranger,Match,Bottom,0,42,42,65,z,0.933518518,1,455,43,109,7,10,36,26
Person1,Person1,Match,Bottom,0,43,43,40,z,0.666874066,1,456,44,117,7,10,36,26
Stranger,StrangerTeam,Mismatch,Bottom,0,44,44,77,num_3,1.166854918,1,457,45,96,7,10,36,26
Person2,Person2,Match,Bottom,0,45,45,57,z,0.700205412,1,458,46,104,7,10,36,26
Person2,Person2,Match,Bottom,0,46,46,59,z,0.633548246,1,459,47,116,7,10,36,26
Team,Team,Match,Top,0,47,47,1,z,0.650194377,1,460,48,118,7,10,36,26
Stranger,Stranger,Match,Bottom,0,48,48,67,z,0.650224776,1,461,49,119,7,10,36,26
Person2,Team,Mismatch,Bottom,0,49,49,63,num_3,1.083542937,1,462,50,103,7,10,36,26
Team,Person2,Mismatch,Bottom,0,50,50,39,num_3,0.816874006,1,463,51,107,7,10,36,26
StrangerTeam,Team,Mismatch,Top,0,51,51,20,num_3,0.933518124,1,464,52,99,7,10,36,26
Person2,StrangerTeam,Mismatch,Bottom,0,52,52,62,num_3,1.033517689,1,465,53,97,7,10,36,26
Person2,Stranger,Mismatch,Bottom,0,53,53,61,num_3,0.898309133,1,466,54,104,7,10,36,26
Person1,Person1,Match,Top,0,54,54,10,z,0.666861827,1,467,55,107,7,10,36,26
Person1,Person1,Match,Top,0,55,55,8,z,0.78352371,1,468,56,116,7,10,36,26
Person2,Person1,Mismatch,Bottom,0,56,56,60,num_3,0.716903655,1,469,57,119,7,10,36,26
Stranger,Stranger,Match,Bottom,0,57,57,66,z,1.01688893,1,470,58,101,7,10,36,26
Team,Stranger,Mismatch,Top,0,58,58,4,num_3,0.883526829,1,471,59,97,7,10,36,26
Person1,Stranger,Mismatch,Top,0,59,59,14,num_3,1.066852589,1,472,60,114,7,10,36,26
Team,StrangerTeam,Mismatch,Bottom,0,60,60,38,num_3,1.233516426,1,473,61,91,7,10,36,26
Person2,Person2,Match,Top,0,61,61,27,z,0.883537883,1,474,62,113,7,10,36,26
Stranger,Team,Mismatch,Bottom,0,62,62,76,num_3,0.916930028,1,475,63,119,7,10,36,26
Team,Team,Match,Bottom,0,63,63,34,z,1.050176454,1,476,64,94,7,10,36,26
Stranger,Stranger,Match,Bottom,0,64,64,64,z,0.766899688,1,477,65,115,7,10,36,26
Person1,Person1,Match,Bottom,0,65,65,43,z,0.533547102,1,478,66,105,7,10,36,26
Team,Person2,Mismatch,Top,0,66,66,7,num_3,0.883533935,1,479,67,91,7,10,36,26
Person1,Person1,Match,Bottom,0,67,67,42,z,0.600206636,1,480,68,109,7,10,36,26
Person1,Team,Mismatch,Top,0,68,68,12,num_3,1.16686163,1,481,69,110,7,10,36,26
Team,Person1,Mismatch,Top,0,69,69,5,num_3,0.933571026,1,482,70,116,7,10,36,26
Person2,StrangerTeam,Mismatch,Top,0,70,70,29,num_3,0.88359197,1,483,71,91,7,10,36,26
Team,Person1,Mismatch,Bottom,0,71,71,37,num_3,0.700208965,1,484,72,100,7,10,36,26
Person1,Person1,Match,Top,0,72,72,9,z,1.000189107,1,485,73,90,7,10,36,26
StrangerTeam,StrangerTeam,Match,Top,0,73,73,19,z,1.116844278,1,486,74,94,7,10,36,26
StrangerTeam,StrangerTeam,Match,Top,0,74,74,16,z,1.183510919,1,487,75,93,7,10,36,26
Person2,Stranger,Mismatch,Top,0,75,75,30,num_3,0.850215617,1,488,76,118,7,10,36,26
Team,Team,Match,Bottom,0,76,76,35,z,1.61679789,1,489,77,94,7,10,36,26
Stranger,Stranger,Match,Bottom,0,77,77,73,z,0.716929317,1,490,78,99,7,10,36,26
Stranger,Team,Mismatch,Bottom,0,78,78,68,num_3,0.933533915,1,491,79,103,7,10,36,26
StrangerTeam,Stranger,Mismatch,Top,0,79,79,21,num_3,1.250182691,1,492,80,117,7,10,36,26
StrangerTeam,Team,Mismatch,Bottom,0,0,0,52,num_3,1.08351767,1,493,1,93,8,10,36,26
Person2,Team,Mismatch,Top,0,1,1,31,num_3,0.883521697,1,494,2,111,8,10,36,26
Person2,Stranger,Mismatch,Top,0,2,2,30,num_3,0.733524914,1,495,3,90,8,10,36,26
StrangerTeam,Person2,Mismatch,Bottom,0,3,3,54,num_3,0.833526849,1,496,4,90,8,10,36,26
Stranger,Stranger,Match,Bottom,0,4,4,75,z,0.718525078,1,497,5,104,8,10,36,26
StrangerTeam,StrangerTeam,Match,Bottom,0,5,5,49,z,1.150178388,1,498,6,91,8,10,36,26
StrangerTeam,StrangerTeam,Match,Bottom,0,6,6,51,z,0.666871697,1,499,7,104,8,10,36,26
StrangerTeam,StrangerTeam,Match,Top,0,7,7,19,z,0.600212163,1,500,8,92,8,10,36,26
StrangerTeam,StrangerTeam,Match,Bottom,0,8,8,48,z,0.633521006,1,501,9,108,8,10,36,26
Stranger,Stranger,Match,Bottom,0,9,9,64,z,0.800197871,1,502,10,104,8,10,36,26
Person2,Team,Mismatch,Bottom,0,10,10,63,num_3,0.80020103,1,503,11,119,8,10,36,26
Person2,Person2,Match,Top,0,11,11,25,z,0.650215696,1,504,12,114,8,10,36,26
Stranger,Team,Mismatch,Bottom,0,12,12,76,num_3,0.833530402,1,505,13,94,8,10,36,26
Team,StrangerTeam,Mismatch,Bottom,0,13,13,38,num_3,0.933525625,1,506,14,99,8,10,36,26
Team,Person2,Mismatch,Bottom,0,14,14,39,num_3,0.716849963,1,507,15,104,8,10,36,26
Stranger,Person1,Mismatch,Bottom,0,15,15,78,num_3,0.666875645,1,508,16,114,8,10,36,26
Team,Team,Match,Bottom,0,16,16,33,None,None,3,508,17,106,8,10,36,26
Person1,Person2,Mismatch,Top,0,17,17,15,num_3,0.800223533,1,509,18,98,8,10,36,26
StrangerTeam,Person1,Mismatch,Bottom,0,18,18,55,num_3,0.766858234,1,510,19,119,8,10,36,26
Team,Stranger,Mismatch,Top,0,19,19,4,num_3,0.750270138,1,511,20,109,8,10,36,26
Stranger,Stranger,Match,Bottom,0,20,20,74,z,0.816862163,1,512,21,110,8,10,36,26
Team,Team,Match,Bottom,0,21,21,32,None,None,3,512,22,119,8,10,36,26
Person1,Stranger,Mismatch,Bottom,0,22,22,45,num_3,0.831671708,1,513,23,100,8,10,36,26
Team,Team,Match,Bottom,0,23,23,34,z,0.916858175,1,514,24,116,8,10,36,26
StrangerTeam,Person2,Mismatch,Top,0,24,24,22,num_3,0.766862577,1,515,25,97,8,10,36,26
StrangerTeam,StrangerTeam,Match,Top,0,25,25,17,z,0.983522841,1,516,26,95,8,10,36,26
Person2,Person1,Mismatch,Top,0,26,26,28,num_3,0.800195897,1,517,27,94,8,10,36,26
Person1,Stranger,Mismatch,Top,0,27,27,14,num_3,0.766859419,1,518,28,118,8,10,36,26
Stranger,Stranger,Match,Bottom,0,28,28,73,z,0.933770398,1,519,29,114,8,10,36,26
Person1,Team,Mismatch,Bottom,0,29,29,44,num_3,0.850187192,1,520,30,112,8,10,36,26
StrangerTeam,StrangerTeam,Match,Bottom,0,30,30,50,z,0.866860169,1,521,31,100,8,10,36,26
Team,Person2,Mismatch,Top,0,31,31,7,num_3,0.783532001,1,522,32,106,8,10,36,26
StrangerTeam,Team,Mismatch,Top,0,32,32,20,num_3,0.93351615,1,523,33,115,8,10,36,26
Stranger,Person2,Mismatch,Bottom,0,33,33,79,num_3,0.766870078,1,524,34,93,8,10,36,26
Person2,Person1,Mismatch,Bottom,0,34,34,60,num_3,0.850197457,1,525,35,107,8,10,36,26
Stranger,Team,Mismatch,Bottom,0,35,35,68,num_3,0.83353435,1,526,36,116,8,10,36,26
Person2,Person2,Match,Top,0,36,36,26,z,0.866894911,1,527,37,93,8,10,36,26
StrangerTeam,Stranger,Mismatch,Top,0,37,37,21,num_3,0.900193094,1,528,38,103,8,10,36,26
Person2,Person2,Match,Bottom,0,38,38,58,z,0.766898898,1,529,39,101,8,10,36,26
Person1,Person1,Match,Top,0,39,39,8,z,1.200183895,1,530,40,102,8,10,36,26
Person1,Person1,Match,Top,0,40,40,9,z,0.500211018,1,531,41,110,8,10,36,26
Person2,Person2,Match,Top,0,41,41,24,z,0.633533639,1,532,42,114,8,10,36,26
Person1,StrangerTeam,Mismatch,Top,0,42,42,13,num_3,0.933523256,1,533,43,115,8,10,36,26
StrangerTeam,Person1,Mismatch,Top,0,43,43,23,num_3,1.250181507,1,534,44,107,8,10,36,26
Team,Person1,Mismatch,Top,0,44,44,5,num_3,0.800226296,1,535,45,94,8,10,36,26
Person2,Person2,Match,Bottom,0,45,45,59,z,0.748807423,1,536,46,99,8,10,36,26
Team,Stranger,Mismatch,Bottom,0,46,46,36,num_3,0.883533146,1,537,47,105,8,10,36,26
Person2,StrangerTeam,Mismatch,Top,0,47,47,29,num_3,0.983531922,1,538,48,111,8,10,36,26
Stranger,StrangerTeam,Mismatch,Bottom,0,48,48,77,num_3,0.950201365,1,539,49,101,8,10,36,26
Person1,Person1,Match,Top,0,49,49,11,z,0.700196726,1,540,50,91,8,10,36,26
Stranger,Stranger,Match,Bottom,0,50,50,67,z,0.883556044,1,541,51,119,8,10,36,26
Person2,Person2,Match,Top,0,51,51,27,z,0.816856241,1,542,52,117,8,10,36,26
Person1,Person1,Match,Bottom,0,52,52,42,z,0.600209399,1,543,53,115,8,10,36,26
StrangerTeam,StrangerTeam,Match,Top,0,53,53,16,z,0.933480618,1,544,54,111,8,10,36,26
Person1,Person2,Mismatch,Bottom,0,54,54,47,num_3,0.783530816,1,545,55,119,8,10,36,26
Person1,Team,Mismatch,Top,0,55,55,12,num_3,0.900186777,1,546,56,117,8,10,36,26
Person2,Person2,Match,Bottom,0,56,56,56,z,0.668525098,1,547,57,109,8,10,36,26
Stranger,Person2,Mismatch,Bottom,0,57,57,71,num_3,0.666862222,1,548,58,98,8,10,36,26
Person1,Person1,Match,Bottom,0,58,58,43,z,0.650204247,1,549,59,117,8,10,36,26
