"Subject","Age","Gender","Handedness","First_Language","Block","Trial","Phase","Shape","Label","Matching","Label_Identity","Origin_Identity","English_Identity","Standarlized_Identity","ShapeLoc","Response","RT_ms","RT_sec","ACC"
1,26,"Male","r","Hungarian",1,1,"EXPERIMENT","Self","They","Nonmatching","Stranger","Self","Individual_Self","Self","Bottom","m",1166.809254,1.166809254,1
1,26,"Male","r","Hungarian",1,2,"EXPERIMENT","They","We","Nonmatching","Self","They","Group-Stranger","Stranger","Top","m",1650.156596,1.650156596,1
1,26,"Male","r","Hungarian",1,3,"EXPERIMENT","We","They","Nonmatching","Stranger","We","Group-Self","Self","Top","m",1333.45822,1.33345822,1
1,26,"Male","r","Hungarian",1,4,"EXPERIMENT","They","They","Matching","Stranger","They","Group-Stranger","Stranger","Top","n",1600.170788,1.600170788,1
1,26,"Male","r","Hungarian",1,5,"EXPERIMENT","We","We","Matching","Self","We","Group-Self","Self","Top","n",1316.803391,1.316803391,1
1,26,"Male","r","Hungarian",1,6,"EXPERIMENT","Self","Self","Matching","Self","Self","Individual_Self","Self","Bottom","n",783.448923,0.783448923,1
1,26,"Male","r","Hungarian",1,7,"EXPERIMENT","Self","Self","Matching","Self","Self","Individual_Self","Self","Top","n",1200.329733,1.200329733,1
1,26,"Male","r","Hungarian",1,8,"EXPERIMENT","You","We","Nonmatching","Self","You","Individual_Stranger","Stranger","Bottom","m",1416.847647,1.416847647,1
1,26,"Male","r","Hungarian",1,9,"EXPERIMENT","Self","Self","Matching","Self","Self","Individual_Self","Self","Top","n",933.523993,0.933523993,1
1,26,"Male","r","Hungarian",1,10,"EXPERIMENT","You","You","Matching","Stranger","You","Individual_Stranger","Stranger","Top","m",1400.156497,1.400156497,0
1,26,"Male","r","Hungarian",1,11,"EXPERIMENT","We","We","Matching","Self","We","Group-Self","Self","Top","n",1000.142521,1.000142521,1
1,26,"Male","r","Hungarian",1,12,"EXPERIMENT","They","We","Nonmatching","Self","They","Group-Stranger","Stranger","Top","m",1250.16157,1.25016157,1
1,26,"Male","r","Hungarian",1,13,"EXPERIMENT","Self","Self","Matching","Self","Self","Individual_Self","Self","Bottom","n",700.116741,0.700116741,1
1,26,"Male","r","Hungarian",1,14,"EXPERIMENT","Self","They","Nonmatching","Stranger","Self","Individual_Self","Self","Top","m",933.531889,0.933531889,1
1,26,"Male","r","Hungarian",1,15,"EXPERIMENT","You","You","Matching","Stranger","You","Individual_Stranger","Stranger","Bottom","n",1316.752857,1.316752857,1
1,26,"Male","r","Hungarian",1,16,"EXPERIMENT","We","We","Matching","Self","We","Group-Self","Self","Bottom","n",966.780749,0.966780749,1
1,26,"Male","r","Hungarian",1,17,"EXPERIMENT","You","Self","Nonmatching","Self","You","Individual_Stranger","Stranger","Top","m",983.50072,0.98350072,1
1,26,"Male","r","Hungarian",1,18,"EXPERIMENT","You","They","Nonmatching","Stranger","You","Individual_Stranger","Stranger","Bottom","m",1150.154424,1.150154424,1
1,26,"Male","r","Hungarian",1,19,"EXPERIMENT","We","We","Matching","Self","We","Group-Self","Self","Top","n",1033.511399,1.033511399,1
1,26,"Male","r","Hungarian",1,20,"EXPERIMENT","You","Self","Nonmatching","Self","You","Individual_Stranger","Stranger","Top","m",916.826526,0.916826526,1
1,26,"Male","r","Hungarian",1,21,"EXPERIMENT","We","We","Matching","Self","We","Group-Self","Self","Top","n",966.849049,0.966849049,1
1,26,"Male","r","Hungarian",1,22,"EXPERIMENT","They","They","Matching","Stranger","They","Group-Stranger","Stranger","Top","n",1200.137468,1.200137468,1
1,26,"Male","r","Hungarian",1,23,"EXPERIMENT","Self","We","Nonmatching","Self","Self","Individual_Self","Self","Top","m",1166.744112,1.166744112,1
1,26,"Male","r","Hungarian",1,24,"EXPERIMENT","We","Self","Nonmatching","Self","We","Group-Self","Self","Bottom","m",1316.875638,1.316875638,1
1,26,"Male","r","Hungarian",1,25,"EXPERIMENT","You","You","Matching","Stranger","You","Individual_Stranger","Stranger","Bottom","n",1166.801358,1.166801358,1
1,26,"Male","r","Hungarian",1,26,"EXPERIMENT","You","We","Nonmatching","Self","You","Individual_Stranger","Stranger","Top","m",900.133796,0.900133796,1
1,26,"Male","r","Hungarian",1,27,"EXPERIMENT","They","Self","Nonmatching","Self","They","Group-Stranger","Stranger","Top","m",966.82773,0.96682773,1
1,26,"Male","r","Hungarian",1,28,"EXPERIMENT","Self","Self","Matching","Self","Self","Individual_Self","Self","Bottom","n",900.142087,0.900142087,1
1,26,"Male","r","Hungarian",1,29,"EXPERIMENT","We","Self","Nonmatching","Self","We","Group-Self","Self","Bottom","m",1133.492488,1.133492488,1
1,26,"Male","r","Hungarian",1,30,"EXPERIMENT","You","We","Nonmatching","Self","You","Individual_Stranger","Stranger","Top","m",1533.465011,1.533465011,1
1,26,"Male","r","Hungarian",1,31,"EXPERIMENT","You","You","Matching","Stranger","You","Individual_Stranger","Stranger","Bottom","n",1266.816794,1.266816794,1
1,26,"Male","r","Hungarian",1,32,"EXPERIMENT","Self","Self","Matching","Self","Self","Individual_Self","Self","Bottom","n",916.817446,0.916817446,1
1,26,"Male","r","Hungarian",1,33,"EXPERIMENT","We","They","Nonmatching","Stranger","We","Group-Self","Self","Top","m",1350.134763,1.350134763,1
1,26,"Male","r","Hungarian",1,34,"EXPERIMENT","We","We","Matching","Self","We","Group-Self","Self","Bottom","n",933.543733,0.933543733,1
1,26,"Male","r","Hungarian",1,35,"EXPERIMENT","They","They","Matching","Stranger","They","Group-Stranger","Stranger","Top","n",1100.011883,1.100011883,1
1,26,"Male","r","Hungarian",1,36,"EXPERIMENT","You","They","Nonmatching","Stranger","You","Individual_Stranger","Stranger","Top","m",966.79891,0.96679891,1
1,26,"Male","r","Hungarian",1,37,"EXPERIMENT","You","We","Nonmatching","Self","You","Individual_Stranger","Stranger","Bottom","m",966.80799,0.96680799,1
1,26,"Male","r","Hungarian",1,38,"EXPERIMENT","Self","We","Nonmatching","Self","Self","Individual_Self","Self","Bottom","m",933.469906,0.933469906,1
1,26,"Male","r","Hungarian",1,39,"EXPERIMENT","You","You","Matching","Stranger","You","Individual_Stranger","Stranger","Top","n",1066.810004,1.066810004,1
1,26,"Male","r","Hungarian",1,40,"EXPERIMENT","They","We","Nonmatching","Self","They","Group-Stranger","Stranger","Bottom","m",1100.14335,1.10014335,1
1,26,"Male","r","Hungarian",1,41,"EXPERIMENT","They","You","Nonmatching","Stranger","They","Group-Stranger","Stranger","Top","m",1050.163465,1.050163465,1
1,26,"Male","r","Hungarian",1,42,"EXPERIMENT","We","They","Nonmatching","Stranger","We","Group-Self","Self","Bottom","m",1050.170176,1.050170176,1
1,26,"Male","r","Hungarian",1,43,"EXPERIMENT","We","We","Matching","Self","We","Group-Self","Self","Bottom","n",900.130243,0.900130243,1
1,26,"Male","r","Hungarian",1,44,"EXPERIMENT","Self","Self","Matching","Self","Self","Individual_Self","Self","Top","n",750.185455,0.750185455,1
1,26,"Male","r","Hungarian",1,45,"EXPERIMENT","We","We","Matching","Self","We","Group-Self","Self","Bottom","n",783.5796,0.7835796,1
1,26,"Male","r","Hungarian",1,46,"EXPERIMENT","We","We","Matching","Self","We","Group-Self","Self","Top","n",666.84972,0.66684972,1
1,26,"Male","r","Hungarian",1,47,"EXPERIMENT","You","You","Matching","Stranger","You","Individual_Stranger","Stranger","Bottom","n",1100.189146,1.100189146,1
1,26,"Male","r","Hungarian",1,48,"EXPERIMENT","We","They","Nonmatching","Stranger","We","Group-Self","Self","Bottom","m",1016.845121,1.016845121,1
1,26,"Male","r","Hungarian",1,49,"EXPERIMENT","Self","You","Nonmatching","Stranger","Self","Individual_Self","Self","Bottom","m",1200.156813,1.200156813,1
1,26,"Male","r","Hungarian",1,50,"EXPERIMENT","They","They","Matching","Stranger","They","Group-Stranger","Stranger","Bottom","n",1016.832092,1.016832092,1
1,26,"Male","r","Hungarian",1,51,"EXPERIMENT","You","You","Matching","Stranger","You","Individual_Stranger","Stranger","Top","n",1066.820663,1.066820663,1
1,26,"Male","r","Hungarian",1,52,"EXPERIMENT","We","You","Nonmatching","Stranger","We","Group-Self","Self","Top","n",1266.806924,1.266806924,0
1,26,"Male","r","Hungarian",1,53,"EXPERIMENT","They","You","Nonmatching","Stranger","They","Group-Stranger","Stranger","Bottom","m",850.192206,0.850192206,1
1,26,"Male","r","Hungarian",1,54,"EXPERIMENT","They","Self","Nonmatching","Self","They","Group-Stranger","Stranger","Top","m",1016.796166,1.016796166,1
1,26,"Male","r","Hungarian",1,55,"EXPERIMENT","They","They","Matching","Stranger","They","Group-Stranger","Stranger","Top","n",1016.804062,1.016804062,1
1,26,"Male","r","Hungarian",1,56,"EXPERIMENT","Self","Self","Matching","Self","Self","Individual_Self","Self","Top","n",666.796817,0.666796817,1
1,26,"Male","r","Hungarian",1,57,"EXPERIMENT","Self","We","Nonmatching","Self","Self","Individual_Self","Self","Bottom","m",1033.497976,1.033497976,1
1,26,"Male","r","Hungarian",1,58,"EXPERIMENT","We","Self","Nonmatching","Self","We","Group-Self","Self","Top","m",1283.501628,1.283501628,1
1,26,"Male","r","Hungarian",1,59,"EXPERIMENT","Self","We","Nonmatching","Self","Self","Individual_Self","Self","Top","m",1183.496061,1.183496061,1
1,26,"Male","r","Hungarian",1,60,"EXPERIMENT","We","You","Nonmatching","Stranger","We","Group-Self","Self","Bottom","m",1166.818729,1.166818729,1
1,26,"Male","r","Hungarian",1,61,"EXPERIMENT","You","You","Matching","Stranger","You","Individual_Stranger","Stranger","Bottom","n",883.503049,0.883503049,1
1,26,"Male","r","Hungarian",1,62,"EXPERIMENT","They","You","Nonmatching","Stranger","They","Group-Stranger","Stranger","Top","m",966.845496,0.966845496,1
1,26,"Male","r","Hungarian",1,63,"EXPERIMENT","We","We","Matching","Self","We","Group-Self","Self","Top","n",800.170867,0.800170867,1
1,26,"Male","r","Hungarian",1,64,"EXPERIMENT","You","They","Nonmatching","Stranger","You","Individual_Stranger","Stranger","Top","m",966.861288,0.966861288,1
1,26,"Male","r","Hungarian",1,65,"EXPERIMENT","They","They","Matching","Stranger","They","Group-Stranger","Stranger","Top","n",983.447028,0.983447028,1
1,26,"Male","r","Hungarian",1,66,"EXPERIMENT","We","Self","Nonmatching","Self","We","Group-Self","Self","Top","m",1266.868512,1.266868512,1
1,26,"Male","r","Hungarian",1,67,"EXPERIMENT","Self","You","Nonmatching","Stranger","Self","Individual_Self","Self","Top","m",1050.13425,1.05013425,1
1,26,"Male","r","Hungarian",1,68,"EXPERIMENT","Self","You","Nonmatching","Stranger","Self","Individual_Self","Self","Bottom","m",1016.847884,1.016847884,1
1,26,"Male","r","Hungarian",1,69,"EXPERIMENT","You","They","Nonmatching","Stranger","You","Individual_Stranger","Stranger","Bottom","m",1050.182415,1.050182415,1
1,26,"Male","r","Hungarian",1,70,"EXPERIMENT","We","You","Nonmatching","Stranger","We","Group-Self","Self","Bottom","m",950.172111,0.950172111,1
1,26,"Male","r","Hungarian",1,71,"EXPERIMENT","You","You","Matching","Stranger","You","Individual_Stranger","Stranger","Top","n",1033.492449,1.033492449,1
1,26,"Male","r","Hungarian",1,72,"EXPERIMENT","We","We","Matching","Self","We","Group-Self","Self","Bottom","n",750.125446,0.750125446,1
1,26,"Male","r","Hungarian",1,73,"EXPERIMENT","They","You","Nonmatching","Stranger","They","Group-Stranger","Stranger","Bottom","m",850.114037,0.850114037,1
1,26,"Male","r","Hungarian",1,74,"EXPERIMENT","You","Self","Nonmatching","Self","You","Individual_Stranger","Stranger","Bottom","m",800.165735,0.800165735,1
1,26,"Male","r","Hungarian",1,75,"EXPERIMENT","Self","They","Nonmatching","Stranger","Self","Individual_Self","Self","Bottom","m",833.485658,0.833485658,1
1,26,"Male","r","Hungarian",1,76,"EXPERIMENT","You","You","Matching","Stranger","You","Individual_Stranger","Stranger","Bottom","n",1283.453858,1.283453858,1
1,26,"Male","r","Hungarian",1,77,"EXPERIMENT","They","Self","Nonmatching","Self","They","Group-Stranger","Stranger","Bottom","m",1100.151246,1.100151246,1
1,26,"Male","r","Hungarian",1,78,"EXPERIMENT","We","You","Nonmatching","Stranger","We","Group-Self","Self","Top","m",866.854537,0.866854537,1
1,26,"Male","r","Hungarian",1,79,"EXPERIMENT","They","They","Matching","Stranger","They","Group-Stranger","Stranger","Bottom","n",816.818985,0.816818985,1
1,26,"Male","r","Hungarian",1,80,"EXPERIMENT","You","Self","Nonmatching","Self","You","Individual_Stranger","Stranger","Bottom","m",816.85807,0.81685807,1
1,26,"Male","r","Hungarian",1,81,"EXPERIMENT","Self","They","Nonmatching","Stranger","Self","Individual_Self","Self","Top","m",833.507767,0.833507767,1
1,26,"Male","r","Hungarian",1,82,"EXPERIMENT","They","They","Matching","Stranger","They","Group-Stranger","Stranger","Top","m",750.153082,0.750153082,0
1,26,"Male","r","Hungarian",1,83,"EXPERIMENT","Self","Self","Matching","Self","Self","Individual_Self","Self","Top","n",833.517637,0.833517637,1
1,26,"Male","r","Hungarian",1,84,"EXPERIMENT","They","They","Matching","Stranger","They","Group-Stranger","Stranger","Bottom","n",800.168499,0.800168499,1
1,26,"Male","r","Hungarian",1,85,"EXPERIMENT","Self","Self","Matching","Self","Self","Individual_Self","Self","Bottom","n",733.489172,0.733489172,1
1,26,"Male","r","Hungarian",1,86,"EXPERIMENT","You","You","Matching","Stranger","You","Individual_Stranger","Stranger","Top","n",866.829664,0.866829664,1
1,26,"Male","r","Hungarian",1,87,"EXPERIMENT","They","They","Matching","Stranger","They","Group-Stranger","Stranger","Bottom","n",766.866736,0.766866736,1
1,26,"Male","r","Hungarian",1,88,"EXPERIMENT","They","Self","Nonmatching","Self","They","Group-Stranger","Stranger","Bottom","m",1083.475098,1.083475098,1
1,26,"Male","r","Hungarian",1,89,"EXPERIMENT","They","They","Matching","Stranger","They","Group-Stranger","Stranger","Bottom","n",750.15624,0.75015624,1
1,26,"Male","r","Hungarian",1,90,"EXPERIMENT","They","They","Matching","Stranger","They","Group-Stranger","Stranger","Bottom","n",533.549892,0.533549892,1
1,26,"Male","r","Hungarian",1,91,"EXPERIMENT","Self","You","Nonmatching","Stranger","Self","Individual_Self","Self","Top","m",1016.830513,1.016830513,1
1,26,"Male","r","Hungarian",1,92,"EXPERIMENT","We","We","Matching","Self","We","Group-Self","Self","Bottom","n",700.160563,0.700160563,1
1,26,"Male","r","Hungarian",1,93,"EXPERIMENT","You","You","Matching","Stranger","You","Individual_Stranger","Stranger","Top","n",850.147989,0.850147989,1
1,26,"Male","r","Hungarian",1,94,"EXPERIMENT","They","We","Nonmatching","Self","They","Group-Stranger","Stranger","Bottom","m",950.161057,0.950161057,1
1,26,"Male","r","Hungarian",1,95,"EXPERIMENT","Self","Self","Matching","Self","Self","Individual_Self","Self","Top","n",833.500661,0.833500661,1
1,26,"Male","r","Hungarian",1,96,"EXPERIMENT","Self","Self","Matching","Self","Self","Individual_Self","Self","Bottom","n",716.831184,0.716831184,1
1,26,"Male","r","Hungarian",2,1,"EXPERIMENT","We","They","Nonmatching","Stranger","We","Group-Self","Self","Bottom","m",1066.833691,1.066833691,1
1,26,"Male","r","Hungarian",2,2,"EXPERIMENT","We","You","Nonmatching","Stranger","We","Group-Self","Self","Top","m",950.176059,0.950176059,1
1,26,"Male","r","Hungarian",2,3,"EXPERIMENT","They","Self","Nonmatching","Self","They","Group-Stranger","Stranger","Top","n",516.841765,0.516841765,0
1,26,"Male","r","Hungarian",2,4,"EXPERIMENT","You","We","Nonmatching","Self","You","Individual_Stranger","Stranger","Bottom","m",983.496772,0.983496772,1
1,26,"Male","r","Hungarian",2,5,"EXPERIMENT","They","We","Nonmatching","Self","They","Group-Stranger","Stranger","Bottom","m",1200.13273,1.20013273,1
1,26,"Male","r","Hungarian",2,6,"EXPERIMENT","Self","You","Nonmatching","Stranger","Self","Individual_Self","Self","Bottom","m",1400.185317,1.400185317,1
1,26,"Male","r","Hungarian",2,7,"EXPERIMENT","Self","They","Nonmatching","Stranger","Self","Individual_Self","Self","Bottom","m",750.198878,0.750198878,1
1,26,"Male","r","Hungarian",2,8,"EXPERIMENT","They","They","Matching","Stranger","They","Group-Stranger","Stranger","Top","n",783.526697,0.783526697,1
1,26,"Male","r","Hungarian",2,9,"EXPERIMENT","You","You","Matching","Stranger","You","Individual_Stranger","Stranger","Top","n",866.798081,0.866798081,1
1,26,"Male","r","Hungarian",2,10,"EXPERIMENT","Self","Self","Matching","Self","Self","Individual_Self","Self","Top","n",750.159793,0.750159793,1
1,26,"Male","r","Hungarian",2,11,"EXPERIMENT","We","They","Nonmatching","Stranger","We","Group-Self","Self","Bottom","m",1050.17373,1.05017373,1
1,26,"Male","r","Hungarian",2,12,"EXPERIMENT","We","We","Matching","Self","We","Group-Self","Self","Top","n",750.177954,0.750177954,1
1,26,"Male","r","Hungarian",2,13,"EXPERIMENT","They","They","Matching","Stranger","They","Group-Stranger","Stranger","Bottom","n",833.500266,0.833500266,1
1,26,"Male","r","Hungarian",2,14,"EXPERIMENT","We","We","Matching","Self","We","Group-Self","Self","Top","n",733.494699,0.733494699,1
1,26,"Male","r","Hungarian",2,15,"EXPERIMENT","They","You","Nonmatching","Stranger","They","Group-Stranger","Stranger","Bottom","m",750.191772,0.750191772,1
1,26,"Male","r","Hungarian",2,16,"EXPERIMENT","Self","We","Nonmatching","Self","Self","Individual_Self","Self","Top","m",1016.801693,1.016801693,1
1,26,"Male","r","Hungarian",2,17,"EXPERIMENT","They","They","Matching","Stranger","They","Group-Stranger","Stranger","Bottom","n",900.178408,0.900178408,1
1,26,"Male","r","Hungarian",2,18,"EXPERIMENT","We","Self","Nonmatching","Self","We","Group-Self","Self","Bottom","m",1233.478315,1.233478315,1
1,26,"Male","r","Hungarian",2,19,"EXPERIMENT","We","We","Matching","Self","We","Group-Self","Self","Bottom","n",800.162971,0.800162971,1
1,26,"Male","r","Hungarian",2,20,"EXPERIMENT","They","We","Nonmatching","Self","They","Group-Stranger","Stranger","Bottom","m",916.805602,0.916805602,1
1,26,"Male","r","Hungarian",2,21,"EXPERIMENT","You","They","Nonmatching","Stranger","You","Individual_Stranger","Stranger","Top","m",716.853293,0.716853293,1
1,26,"Male","r","Hungarian",2,22,"EXPERIMENT","You","You","Matching","Stranger","You","Individual_Stranger","Stranger","Bottom","n",800.138099,0.800138099,1
1,26,"Male","r","Hungarian",2,23,"EXPERIMENT","They","They","Matching","Stranger","They","Group-Stranger","Stranger","Bottom","n",816.870703,0.816870703,1
1,26,"Male","r","Hungarian",2,24,"EXPERIMENT","Self","They","Nonmatching","Stranger","Self","Individual_Self","Self","Top","m",816.837935,0.816837935,1
1,26,"Male","r","Hungarian",2,25,"EXPERIMENT","Self","We","Nonmatching","Self","Self","Individual_Self","Self","Bottom","m",1000.207267,1.000207267,1
1,26,"Male","r","Hungarian",2,26,"EXPERIMENT","We","We","Matching","Self","We","Group-Self","Self","Top","n",666.824848,0.666824848,1
1,26,"Male","r","Hungarian",2,27,"EXPERIMENT","You","You","Matching","Stranger","You","Individual_Stranger","Stranger","Bottom","n",1000.160287,1.000160287,1
1,26,"Male","r","Hungarian",2,28,"EXPERIMENT","We","We","Matching","Self","We","Group-Self","Self","Bottom","n",616.846542,0.616846542,1
1,26,"Male","r","Hungarian",2,29,"EXPERIMENT","We","Self","Nonmatching","Self","We","Group-Self","Self","Top","m",966.869973,0.966869973,1
1,26,"Male","r","Hungarian",2,30,"EXPERIMENT","You","Self","Nonmatching","Self","You","Individual_Stranger","Stranger","Bottom","m",966.802858,0.966802858,1
1,26,"Male","r","Hungarian",2,31,"EXPERIMENT","You","You","Matching","Stranger","You","Individual_Stranger","Stranger","Top","n",900.226968,0.900226968,1
1,26,"Male","r","Hungarian",2,32,"EXPERIMENT","Self","You","Nonmatching","Stranger","Self","Individual_Self","Self","Top","m",883.464359,0.883464359,1
1,26,"Male","r","Hungarian",2,33,"EXPERIMENT","They","They","Matching","Stranger","They","Group-Stranger","Stranger","Top","n",916.815077,0.916815077,1
1,26,"Male","r","Hungarian",2,34,"EXPERIMENT","You","They","Nonmatching","Stranger","You","Individual_Stranger","Stranger","Bottom","m",1016.834856,1.016834856,1
1,26,"Male","r","Hungarian",2,35,"EXPERIMENT","They","You","Nonmatching","Stranger","They","Group-Stranger","Stranger","Bottom","m",766.838705,0.766838705,1
1,26,"Male","r","Hungarian",2,36,"EXPERIMENT","Self","Self","Matching","Self","Self","Individual_Self","Self","Bottom","n",683.526263,0.683526263,1
1,26,"Male","r","Hungarian",2,37,"EXPERIMENT","You","Self","Nonmatching","Self","You","Individual_Stranger","Stranger","Top","m",800.181132,0.800181132,1
1,26,"Male","r","Hungarian",2,38,"EXPERIMENT","You","You","Matching","Stranger","You","Individual_Stranger","Stranger","Top","n",1066.838824,1.066838824,1
1,26,"Male","r","Hungarian",2,39,"EXPERIMENT","Self","Self","Matching","Self","Self","Individual_Self","Self","Bottom","n",633.440178,0.633440178,1
1,26,"Male","r","Hungarian",2,40,"EXPERIMENT","They","We","Nonmatching","Self","They","Group-Stranger","Stranger","Top","m",966.813912,0.966813912,1
1,26,"Male","r","Hungarian",2,41,"EXPERIMENT","Self","They","Nonmatching","Stranger","Self","Individual_Self","Self","Bottom","m",900.153931,0.900153931,1
1,26,"Male","r","Hungarian",2,42,"EXPERIMENT","They","They","Matching","Stranger","They","Group-Stranger","Stranger","Top","m",583.486349,0.583486349,0
1,26,"Male","r","Hungarian",2,43,"EXPERIMENT","You","You","Matching","Stranger","You","Individual_Stranger","Stranger","Bottom","n",783.506958,0.783506958,1
1,26,"Male","r","Hungarian",2,44,"EXPERIMENT","You","You","Matching","Stranger","You","Individual_Stranger","Stranger","Bottom","n",1200.150496,1.200150496,1
1,26,"Male","r","Hungarian",2,45,"EXPERIMENT","Self","Self","Matching","Self","Self","Individual_Self","Self","Bottom","n",583.76547,0.58376547,1
1,26,"Male","r","Hungarian",2,46,"EXPERIMENT","They","They","Matching","Stranger","They","Group-Stranger","Stranger","Top","n",900.144456,0.900144456,1
1,26,"Male","r","Hungarian",2,47,"EXPERIMENT","You","We","Nonmatching","Self","You","Individual_Stranger","Stranger","Bottom","m",733.490751,0.733490751,1
1,26,"Male","r","Hungarian",2,48,"EXPERIMENT","You","Self","Nonmatching","Self","You","Individual_Stranger","Stranger","Bottom","m",933.495568,0.933495568,1
1,26,"Male","r","Hungarian",2,49,"EXPERIMENT","You","They","Nonmatching","Stranger","You","Individual_Stranger","Stranger","Bottom","m",1133.507096,1.133507096,1
1,26,"Male","r","Hungarian",2,50,"EXPERIMENT","Self","You","Nonmatching","Stranger","Self","Individual_Self","Self","Top","m",1300.135138,1.300135138,1
1,26,"Male","r","Hungarian",2,51,"EXPERIMENT","They","We","Nonmatching","Self","They","Group-Stranger","Stranger","Top","n",816.835961,0.816835961,0
1,26,"Male","r","Hungarian",2,52,"EXPERIMENT","Self","You","Nonmatching","Stranger","Self","Individual_Self","Self","Bottom","m",1000.172526,1.000172526,1
1,26,"Male","r","Hungarian",2,53,"EXPERIMENT","They","You","Nonmatching","Stranger","They","Group-Stranger","Stranger","Top","m",933.466353,0.933466353,1
1,26,"Male","r","Hungarian",2,54,"EXPERIMENT","They","Self","Nonmatching","Self","They","Group-Stranger","Stranger","Bottom","m",866.825716,0.866825716,1
1,26,"Male","r","Hungarian",2,55,"EXPERIMENT","Self","Self","Matching","Self","Self","Individual_Self","Self","Top","n",766.861603,0.766861603,1
1,26,"Male","r","Hungarian",2,56,"EXPERIMENT","We","Self","Nonmatching","Self","We","Group-Self","Self","Bottom","m",900.185119,0.900185119,1
1,26,"Male","r","Hungarian",2,57,"EXPERIMENT","Self","Self","Matching","Self","Self","Individual_Self","Self","Bottom","n",666.840245,0.666840245,1
1,26,"Male","r","Hungarian",2,58,"EXPERIMENT","You","You","Matching","Stranger","You","Individual_Stranger","Stranger","Bottom","n",966.811149,0.966811149,1
1,26,"Male","r","Hungarian",2,59,"EXPERIMENT","You","You","Matching","Stranger","You","Individual_Stranger","Stranger","Top","n",766.831599,0.766831599,1
1,26,"Male","r","Hungarian",2,60,"EXPERIMENT","We","We","Matching","Self","We","Group-Self","Self","Top","n",650.383603,0.650383603,1
1,26,"Male","r","Hungarian",2,61,"EXPERIMENT","They","You","Nonmatching","Stranger","They","Group-Stranger","Stranger","Top","m",800.166919,0.800166919,1
1,26,"Male","r","Hungarian",2,62,"EXPERIMENT","We","You","Nonmatching","Stranger","We","Group-Self","Self","Bottom","m",1016.843147,1.016843147,1
1,26,"Male","r","Hungarian",2,63,"EXPERIMENT","Self","They","Nonmatching","Stranger","Self","Individual_Self","Self","Top","m",1066.819479,1.066819479,1
1,26,"Male","r","Hungarian",2,64,"EXPERIMENT","We","We","Matching","Self","We","Group-Self","Self","Bottom","n",766.837126,0.766837126,1
1,26,"Male","r","Hungarian",2,65,"EXPERIMENT","They","They","Matching","Stranger","They","Group-Stranger","Stranger","Top","n",833.517242,0.833517242,1
1,26,"Male","r","Hungarian",2,66,"EXPERIMENT","We","You","Nonmatching","Stranger","We","Group-Self","Self","Top","m",816.928343,0.816928343,1
1,26,"Male","r","Hungarian",2,67,"EXPERIMENT","We","We","Matching","Self","We","Group-Self","Self","Bottom","n",666.865907,0.666865907,1
1,26,"Male","r","Hungarian",2,68,"EXPERIMENT","You","We","Nonmatching","Self","You","Individual_Stranger","Stranger","Top","m",700.189383,0.700189383,1
1,26,"Male","r","Hungarian",2,69,"EXPERIMENT","They","Self","Nonmatching","Self","They","Group-Stranger","Stranger","Bottom","m",850.174045,0.850174045,1
1,26,"Male","r","Hungarian",2,70,"EXPERIMENT","They","They","Matching","Stranger","They","Group-Stranger","Stranger","Top","n",1000.189107,1.000189107,1
1,26,"Male","r","Hungarian",2,71,"EXPERIMENT","They","They","Matching","Stranger","They","Group-Stranger","Stranger","Bottom","n",566.821255,0.566821255,1
1,26,"Male","r","Hungarian",2,72,"EXPERIMENT","We","They","Nonmatching","Stranger","We","Group-Self","Self","Top","m",966.807595,0.966807595,1
1,26,"Male","r","Hungarian",2,73,"EXPERIMENT","Self","Self","Matching","Self","Self","Individual_Self","Self","Bottom","n",750.196904,0.750196904,1
1,26,"Male","r","Hungarian",2,74,"EXPERIMENT","Self","We","Nonmatching","Self","Self","Individual_Self","Self","Bottom","m",1100.189146,1.100189146,1
1,26,"Male","r","Hungarian",2,75,"EXPERIMENT","We","They","Nonmatching","Stranger","We","Group-Self","Self","Top","m",1350.163978,1.350163978,1
1,26,"Male","r","Hungarian",2,76,"EXPERIMENT","You","Self","Nonmatching","Self","You","Individual_Stranger","Stranger","Top","m",816.80043,0.81680043,1
1,26,"Male","r","Hungarian",2,77,"EXPERIMENT","You","You","Matching","Stranger","You","Individual_Stranger","Stranger","Top","n",866.965079,0.866965079,1
1,26,"Male","r","Hungarian",2,78,"EXPERIMENT","Self","We","Nonmatching","Self","Self","Individual_Self","Self","Top","m",950.137369,0.950137369,1
1,26,"Male","r","Hungarian",2,79,"EXPERIMENT","Self","Self","Matching","Self","Self","Individual_Self","Self","Top","n",800.131783,0.800131783,1
1,26,"Male","r","Hungarian",2,80,"EXPERIMENT","They","Self","Nonmatching","Self","They","Group-Stranger","Stranger","Top","m",683.564558,0.683564558,1
1,26,"Male","r","Hungarian",2,81,"EXPERIMENT","Self","Self","Matching","Self","Self","Individual_Self","Self","Top","n",483.510787,0.483510787,1
1,26,"Male","r","Hungarian",2,82,"EXPERIMENT","Self","Self","Matching","Self","Self","Individual_Self","Self","Bottom","n",516.825184,0.516825184,1
1,26,"Male","r","Hungarian",2,83,"EXPERIMENT","Self","Self","Matching","Self","Self","Individual_Self","Self","Top","n",533.535284,0.533535284,1
1,26,"Male","r","Hungarian",2,84,"EXPERIMENT","You","They","Nonmatching","Stranger","You","Individual_Stranger","Stranger","Top","m",866.816636,0.866816636,1
1,26,"Male","r","Hungarian",2,85,"EXPERIMENT","Self","Self","Matching","Self","Self","Individual_Self","Self","Top","n",533.52502,0.53352502,1
1,26,"Male","r","Hungarian",2,86,"EXPERIMENT","We","We","Matching","Self","We","Group-Self","Self","Top","n",916.786652,0.916786652,1
1,26,"Male","r","Hungarian",2,87,"EXPERIMENT","We","Self","Nonmatching","Self","We","Group-Self","Self","Top","m",966.883396,0.966883396,1
1,26,"Male","r","Hungarian",2,88,"EXPERIMENT","We","We","Matching","Self","We","Group-Self","Self","Bottom","n",600.176316,0.600176316,1
1,26,"Male","r","Hungarian",2,89,"EXPERIMENT","They","They","Matching","Stranger","They","Group-Stranger","Stranger","Bottom","n",833.503029,0.833503029,1
1,26,"Male","r","Hungarian",2,90,"EXPERIMENT","You","You","Matching","Stranger","You","Individual_Stranger","Stranger","Top","n",600.182237,0.600182237,1
1,26,"Male","r","Hungarian",2,91,"EXPERIMENT","We","You","Nonmatching","Stranger","We","Group-Self","Self","Bottom","m",833.495528,0.833495528,1
1,26,"Male","r","Hungarian",2,92,"EXPERIMENT","We","We","Matching","Self","We","Group-Self","Self","Top","n",650.173177,0.650173177,1
1,26,"Male","r","Hungarian",2,93,"EXPERIMENT","They","They","Matching","Stranger","They","Group-Stranger","Stranger","Bottom","n",916.801259,0.916801259,1
1,26,"Male","r","Hungarian",2,94,"EXPERIMENT","We","We","Matching","Self","We","Group-Self","Self","Bottom","n",883.497522,0.883497522,1
1,26,"Male","r","Hungarian",2,95,"EXPERIMENT","You","We","Nonmatching","Self","You","Individual_Stranger","Stranger","Top","m",1033.432045,1.033432045,1
1,26,"Male","r","Hungarian",2,96,"EXPERIMENT","You","You","Matching","Stranger","You","Individual_Stranger","Stranger","Bottom","n",833.492765,0.833492765,1
1,26,"Male","r","Hungarian",3,1,"EXPERIMENT","Self","Self","Matching","Self","Self","Individual_Self","Self","Bottom","n",633.512426,0.633512426,1
1,26,"Male","r","Hungarian",3,2,"EXPERIMENT","Self","You","Nonmatching","Stranger","Self","Individual_Self","Self","Bottom","m",800.145995,0.800145995,1
1,26,"Male","r","Hungarian",3,3,"EXPERIMENT","You","You","Matching","Stranger","You","Individual_Stranger","Stranger","Bottom","n",833.475394,0.833475394,1
1,26,"Male","r","Hungarian",3,4,"EXPERIMENT","We","We","Matching","Self","We","Group-Self","Self","Bottom","n",766.847391,0.766847391,1
1,26,"Male","r","Hungarian",3,5,"EXPERIMENT","Self","Self","Matching","Self","Self","Individual_Self","Self","Bottom","n",950.083677,0.950083677,1
1,26,"Male","r","Hungarian",3,6,"EXPERIMENT","We","We","Matching","Self","We","Group-Self","Self","Top","n",783.520775,0.783520775,1
1,26,"Male","r","Hungarian",3,7,"EXPERIMENT","We","We","Matching","Self","We","Group-Self","Self","Bottom","n",566.865867,0.566865867,1
1,26,"Male","r","Hungarian",3,8,"EXPERIMENT","They","Self","Nonmatching","Self","They","Group-Stranger","Stranger","Bottom","m",850.165755,0.850165755,1
1,26,"Male","r","Hungarian",3,9,"EXPERIMENT","Self","You","Nonmatching","Stranger","Self","Individual_Self","Self","Top","m",883.497127,0.883497127,1
1,26,"Male","r","Hungarian",3,10,"EXPERIMENT","Self","You","Nonmatching","Stranger","Self","Individual_Self","Self","Bottom","m",900.174065,0.900174065,1
1,26,"Male","r","Hungarian",3,11,"EXPERIMENT","You","You","Matching","Stranger","You","Individual_Stranger","Stranger","Top","n",916.839949,0.916839949,1
1,26,"Male","r","Hungarian",3,12,"EXPERIMENT","Self","Self","Matching","Self","Self","Individual_Self","Self","Bottom","n",800.166525,0.800166525,1
1,26,"Male","r","Hungarian",3,13,"EXPERIMENT","You","They","Nonmatching","Stranger","You","Individual_Stranger","Stranger","Bottom","m",983.465188,0.983465188,1
1,26,"Male","r","Hungarian",3,14,"EXPERIMENT","We","Self","Nonmatching","Self","We","Group-Self","Self","Bottom","m",1033.489685,1.033489685,1
1,26,"Male","r","Hungarian",3,15,"EXPERIMENT","They","You","Nonmatching","Stranger","They","Group-Stranger","Stranger","Bottom","m",900.161432,0.900161432,1
1,26,"Male","r","Hungarian",3,16,"EXPERIMENT","You","You","Matching","Stranger","You","Individual_Stranger","Stranger","Bottom","n",966.81707,0.96681707,1
1,26,"Male","r","Hungarian",3,17,"EXPERIMENT","Self","They","Nonmatching","Stranger","Self","Individual_Self","Self","Bottom","m",883.490416,0.883490416,1
1,26,"Male","r","Hungarian",3,18,"EXPERIMENT","Self","Self","Matching","Self","Self","Individual_Self","Self","Top","n",750.172822,0.750172822,1
1,26,"Male","r","Hungarian",3,19,"EXPERIMENT","You","You","Matching","Stranger","You","Individual_Stranger","Stranger","Top","n",733.484435,0.733484435,1
1,26,"Male","r","Hungarian",3,20,"EXPERIMENT","You","We","Nonmatching","Self","You","Individual_Stranger","Stranger","Bottom","m",866.83835,0.86683835,1
1,26,"Male","r","Hungarian",3,21,"EXPERIMENT","You","They","Nonmatching","Stranger","You","Individual_Stranger","Stranger","Top","m",1233.504767,1.233504767,1
1,26,"Male","r","Hungarian",3,22,"EXPERIMENT","You","We","Nonmatching","Self","You","Individual_Stranger","Stranger","Bottom","m",783.478927,0.783478927,1
1,26,"Male","r","Hungarian",3,23,"EXPERIMENT","We","Self","Nonmatching","Self","We","Group-Self","Self","Top","m",900.137744,0.900137744,1
1,26,"Male","r","Hungarian",3,24,"EXPERIMENT","They","They","Matching","Stranger","They","Group-Stranger","Stranger","Top","n",950.178033,0.950178033,1
1,26,"Male","r","Hungarian",3,25,"EXPERIMENT","They","They","Matching","Stranger","They","Group-Stranger","Stranger","Top","n",716.833553,0.716833553,1
1,26,"Male","r","Hungarian",3,26,"EXPERIMENT","We","We","Matching","Self","We","Group-Self","Self","Bottom","n",766.81028,0.76681028,1
1,26,"Male","r","Hungarian",3,27,"EXPERIMENT","We","We","Matching","Self","We","Group-Self","Self","Top","n",800.189028,0.800189028,1
1,26,"Male","r","Hungarian",3,28,"EXPERIMENT","You","They","Nonmatching","Stranger","You","Individual_Stranger","Stranger","Bottom","m",883.478572,0.883478572,1
1,26,"Male","r","Hungarian",3,29,"EXPERIMENT","You","Self","Nonmatching","Self","You","Individual_Stranger","Stranger","Top","m",733.480092,0.733480092,1
1,26,"Male","r","Hungarian",3,30,"EXPERIMENT","They","We","Nonmatching","Self","They","Group-Stranger","Stranger","Top","m",866.830059,0.866830059,1
1,26,"Male","r","Hungarian",3,31,"EXPERIMENT","They","They","Matching","Stranger","They","Group-Stranger","Stranger","Bottom","n",933.50149,0.93350149,1
1,26,"Male","r","Hungarian",3,32,"EXPERIMENT","We","They","Nonmatching","Stranger","We","Group-Self","Self","Bottom","m",1066.84672,1.06684672,1
1,26,"Male","r","Hungarian",3,33,"EXPERIMENT","They","They","Matching","Stranger","They","Group-Stranger","Stranger","Bottom","n",833.488027,0.833488027,1
1,26,"Male","r","Hungarian",3,34,"EXPERIMENT","Self","They","Nonmatching","Stranger","Self","Individual_Self","Self","Top","m",833.489212,0.833489212,1
1,26,"Male","r","Hungarian",3,35,"EXPERIMENT","Self","Self","Matching","Self","Self","Individual_Self","Self","Top","n",800.168893,0.800168893,1
1,26,"Male","r","Hungarian",3,36,"EXPERIMENT","We","We","Matching","Self","We","Group-Self","Self","Top","n",733.565762,0.733565762,1
1,26,"Male","r","Hungarian",3,37,"EXPERIMENT","Self","Self","Matching","Self","Self","Individual_Self","Self","Bottom","n",750.188219,0.750188219,1
1,26,"Male","r","Hungarian",3,38,"EXPERIMENT","We","You","Nonmatching","Stranger","We","Group-Self","Self","Bottom","m",800.16613,0.80016613,1
1,26,"Male","r","Hungarian",3,39,"EXPERIMENT","Self","We","Nonmatching","Self","Self","Individual_Self","Self","Top","m",866.858484,0.866858484,1
1,26,"Male","r","Hungarian",3,40,"EXPERIMENT","Self","Self","Matching","Self","Self","Individual_Self","Self","Bottom","n",716.883692,0.716883692,1
1,26,"Male","r","Hungarian",3,41,"EXPERIMENT","They","You","Nonmatching","Stranger","They","Group-Stranger","Stranger","Top","m",800.211926,0.800211926,1
1,26,"Male","r","Hungarian",3,42,"EXPERIMENT","They","They","Matching","Stranger","They","Group-Stranger","Stranger","Top","n",800.150338,0.800150338,1
1,26,"Male","r","Hungarian",3,43,"EXPERIMENT","We","You","Nonmatching","Stranger","We","Group-Self","Self","Bottom","m",800.200082,0.800200082,1
1,26,"Male","r","Hungarian",3,44,"EXPERIMENT","Self","Self","Matching","Self","Self","Individual_Self","Self","Top","n",683.521526,0.683521526,1
1,26,"Male","r","Hungarian",3,45,"EXPERIMENT","We","They","Nonmatching","Stranger","We","Group-Self","Self","Top","m",883.521999,0.883521999,1
1,26,"Male","r","Hungarian",3,46,"EXPERIMENT","Self","Self","Matching","Self","Self","Individual_Self","Self","Top","n",650.163307,0.650163307,1
1,26,"Male","r","Hungarian",3,47,"EXPERIMENT","You","Self","Nonmatching","Self","You","Individual_Stranger","Stranger","Bottom","m",966.847075,0.966847075,1
1,26,"Male","r","Hungarian",3,48,"EXPERIMENT","You","You","Matching","Stranger","You","Individual_Stranger","Stranger","Top","n",933.508991,0.933508991,1
1,26,"Male","r","Hungarian",3,49,"EXPERIMENT","You","You","Matching","Stranger","You","Individual_Stranger","Stranger","Bottom","n",716.861189,0.716861189,1
1,26,"Male","r","Hungarian",3,50,"EXPERIMENT","They","They","Matching","Stranger","They","Group-Stranger","Stranger","Top","n",816.833987,0.816833987,1
1,26,"Male","r","Hungarian",3,51,"EXPERIMENT","Self","They","Nonmatching","Stranger","Self","Individual_Self","Self","Top","m",733.540496,0.733540496,1
1,26,"Male","r","Hungarian",3,52,"EXPERIMENT","We","We","Matching","Self","We","Group-Self","Self","Top","n",716.846187,0.716846187,1
1,26,"Male","r","Hungarian",3,53,"EXPERIMENT","They","You","Nonmatching","Stranger","They","Group-Stranger","Stranger","Bottom","m",766.777907,0.766777907,1
1,26,"Male","r","Hungarian",3,54,"EXPERIMENT","Self","You","Nonmatching","Stranger","Self","Individual_Self","Self","Top","m",816.812274,0.816812274,1
1,26,"Male","r","Hungarian",3,55,"EXPERIMENT","You","You","Matching","Stranger","You","Individual_Stranger","Stranger","Bottom","n",716.838291,0.716838291,1
1,26,"Male","r","Hungarian",3,56,"EXPERIMENT","They","We","Nonmatching","Self","They","Group-Stranger","Stranger","Bottom","m",950.210406,0.950210406,1
1,26,"Male","r","Hungarian",3,57,"EXPERIMENT","They","Self","Nonmatching","Self","They","Group-Stranger","Stranger","Top","m",800.171262,0.800171262,1
1,26,"Male","r","Hungarian",3,58,"EXPERIMENT","They","They","Matching","Stranger","They","Group-Stranger","Stranger","Top","n",816.849384,0.816849384,1
1,26,"Male","r","Hungarian",3,59,"EXPERIMENT","They","They","Matching","Stranger","They","Group-Stranger","Stranger","Bottom","n",816.826486,0.816826486,1
1,26,"Male","r","Hungarian",3,60,"EXPERIMENT","We","We","Matching","Self","We","Group-Self","Self","Bottom","n",783.527487,0.783527487,1
1,26,"Male","r","Hungarian",3,61,"EXPERIMENT","You","We","Nonmatching","Self","You","Individual_Stranger","Stranger","Top","m",750.200062,0.750200062,1
1,26,"Male","r","Hungarian",3,62,"EXPERIMENT","Self","We","Nonmatching","Self","Self","Individual_Self","Self","Top","m",1083.482994,1.083482994,1
1,26,"Male","r","Hungarian",3,63,"EXPERIMENT","They","They","Matching","Stranger","They","Group-Stranger","Stranger","Bottom","n",766.872263,0.766872263,1
1,26,"Male","r","Hungarian",3,64,"EXPERIMENT","You","Self","Nonmatching","Self","You","Individual_Stranger","Stranger","Bottom","m",866.836376,0.866836376,1
1,26,"Male","r","Hungarian",3,65,"EXPERIMENT","They","They","Matching","Stranger","They","Group-Stranger","Stranger","Top","n",1150.120867,1.150120867,1
1,26,"Male","r","Hungarian",3,66,"EXPERIMENT","You","You","Matching","Stranger","You","Individual_Stranger","Stranger","Top","n",750.188219,0.750188219,1
1,26,"Male","r","Hungarian",3,67,"EXPERIMENT","Self","They","Nonmatching","Stranger","Self","Individual_Self","Self","Bottom","m",850.186679,0.850186679,1
1,26,"Male","r","Hungarian",3,68,"EXPERIMENT","You","You","Matching","Stranger","You","Individual_Stranger","Stranger","Top","n",700.163327,0.700163327,1
1,26,"Male","r","Hungarian",3,69,"EXPERIMENT","We","We","Matching","Self","We","Group-Self","Self","Top","n",650.186995,0.650186995,1
1,26,"Male","r","Hungarian",3,70,"EXPERIMENT","They","We","Nonmatching","Self","They","Group-Stranger","Stranger","Top","m",816.837935,0.816837935,1
1,26,"Male","r","Hungarian",3,71,"EXPERIMENT","You","We","Nonmatching","Self","You","Individual_Stranger","Stranger","Top","m",716.836712,0.716836712,1
1,26,"Male","r","Hungarian",3,72,"EXPERIMENT","Self","Self","Matching","Self","Self","Individual_Self","Self","Bottom","n",633.538877,0.633538877,1
1,26,"Male","r","Hungarian",3,73,"EXPERIMENT","We","They","Nonmatching","Stranger","We","Group-Self","Self","Top","m",816.81859,0.81681859,1
1,26,"Male","r","Hungarian",3,74,"EXPERIMENT","You","They","Nonmatching","Stranger","You","Individual_Stranger","Stranger","Top","m",716.7617,0.7167617,1
1,26,"Male","r","Hungarian",3,75,"EXPERIMENT","You","You","Matching","Stranger","You","Individual_Stranger","Stranger","Top","n",700.209123,0.700209123,1
1,26,"Male","r","Hungarian",3,76,"EXPERIMENT","We","They","Nonmatching","Stranger","We","Group-Self","Self","Bottom","m",783.480901,0.783480901,1
1,26,"Male","r","Hungarian",3,77,"EXPERIMENT","Self","Self","Matching","Self","Self","Individual_Self","Self","Top","n",733.496278,0.733496278,1
1,26,"Male","r","Hungarian",3,78,"EXPERIMENT","They","They","Matching","Stranger","They","Group-Stranger","Stranger","Bottom","n",1000.165419,1.000165419,1
1,26,"Male","r","Hungarian",3,79,"EXPERIMENT","You","You","Matching","Stranger","You","Individual_Stranger","Stranger","Bottom","n",700.172802,0.700172802,1
1,26,"Male","r","Hungarian",3,80,"EXPERIMENT","We","We","Matching","Self","We","Group-Self","Self","Bottom","n",650.182257,0.650182257,1
1,26,"Male","r","Hungarian",3,81,"EXPERIMENT","Self","Self","Matching","Self","Self","Individual_Self","Self","Top","n",616.847726,0.616847726,1
1,26,"Male","r","Hungarian",3,82,"EXPERIMENT","They","Self","Nonmatching","Self","They","Group-Stranger","Stranger","Top","m",850.191022,0.850191022,1
1,26,"Male","r","Hungarian",3,83,"EXPERIMENT","We","Self","Nonmatching","Self","We","Group-Self","Self","Bottom","m",850.181152,0.850181152,1
1,26,"Male","r","Hungarian",3,84,"EXPERIMENT","They","Self","Nonmatching","Self","They","Group-Stranger","Stranger","Bottom","m",766.840679,0.766840679,1
1,26,"Male","r","Hungarian",3,85,"EXPERIMENT","We","You","Nonmatching","Stranger","We","Group-Self","Self","Top","m",850.141672,0.850141672,1
1,26,"Male","r","Hungarian",3,86,"EXPERIMENT","We","You","Nonmatching","Stranger","We","Group-Self","Self","Top","m",833.493949,0.833493949,1
1,26,"Male","r","Hungarian",3,87,"EXPERIMENT","We","We","Matching","Self","We","Group-Self","Self","Bottom","n",716.840265,0.716840265,1
1,26,"Male","r","Hungarian",3,88,"EXPERIMENT","We","We","Matching","Self","We","Group-Self","Self","Top","n",733.543259,0.733543259,1
1,26,"Male","r","Hungarian",3,89,"EXPERIMENT","Self","We","Nonmatching","Self","Self","Individual_Self","Self","Bottom","m",716.832764,0.716832764,1
1,26,"Male","r","Hungarian",3,90,"EXPERIMENT","They","We","Nonmatching","Self","They","Group-Stranger","Stranger","Bottom","m",716.863163,0.716863163,1
1,26,"Male","r","Hungarian",3,91,"EXPERIMENT","Self","We","Nonmatching","Self","Self","Individual_Self","Self","Bottom","m",850.181152,0.850181152,1
1,26,"Male","r","Hungarian",3,92,"EXPERIMENT","You","Self","Nonmatching","Self","You","Individual_Stranger","Stranger","Top","m",916.844686,0.916844686,1
1,26,"Male","r","Hungarian",3,93,"EXPERIMENT","They","They","Matching","Stranger","They","Group-Stranger","Stranger","Bottom","n",833.474209,0.833474209,1
1,26,"Male","r","Hungarian",3,94,"EXPERIMENT","You","You","Matching","Stranger","You","Individual_Stranger","Stranger","Bottom","n",816.826881,0.816826881,1
1,26,"Male","r","Hungarian",3,95,"EXPERIMENT","We","Self","Nonmatching","Self","We","Group-Self","Self","Top","m",966.804042,0.966804042,1
1,26,"Male","r","Hungarian",3,96,"EXPERIMENT","They","You","Nonmatching","Stranger","They","Group-Stranger","Stranger","Top","m",933.451351,0.933451351,1
2,23,"Female","r","Hungarian",1,1,"EXPERIMENT","You","We","Nonmatching","Self","You","Individual_Stranger","Stranger","Bottom","n",1100.142166,1.100142166,1
2,23,"Female","r","Hungarian",1,2,"EXPERIMENT","We","Self","Nonmatching","Self","We","Group-Self","Self","Bottom","n",1050.157938,1.050157938,1
2,23,"Female","r","Hungarian",1,3,"EXPERIMENT","They","They","Matching","Stranger","They","Group-Stranger","Stranger","Bottom","m",1083.550504,1.083550504,1
2,23,"Female","r","Hungarian",1,4,"EXPERIMENT","They","They","Matching","Stranger","They","Group-Stranger","Stranger","Top","m",983.52875,0.98352875,1
2,23,"Female","r","Hungarian",1,5,"EXPERIMENT","Self","Self","Matching","Self","Self","Individual_Self","Self","Bottom","m",1050.131881,1.050131881,1
2,23,"Female","r","Hungarian",1,6,"EXPERIMENT","They","Self","Nonmatching","Self","They","Group-Stranger","Stranger","Bottom","n",1216.844805,1.216844805,1
2,23,"Female","r","Hungarian",1,7,"EXPERIMENT","Self","We","Nonmatching","Self","Self","Individual_Self","Self","Bottom","n",1266.801002,1.266801002,1
2,23,"Female","r","Hungarian",1,8,"EXPERIMENT","They","You","Nonmatching","Stranger","They","Group-Stranger","Stranger","Bottom","n",1183.475927,1.183475927,1
2,23,"Female","r","Hungarian",1,9,"EXPERIMENT","They","We","Nonmatching","Self","They","Group-Stranger","Stranger","Bottom","n",1166.810833,1.166810833,1
2,23,"Female","r","Hungarian",1,10,"EXPERIMENT","You","You","Matching","Stranger","You","Individual_Stranger","Stranger","Top","m",1216.83533,1.21683533,1
2,23,"Female","r","Hungarian",1,11,"EXPERIMENT","They","They","Matching","Stranger","They","Group-Stranger","Stranger","Top","n",1283.494127,1.283494127,0
2,23,"Female","r","Hungarian",1,12,"EXPERIMENT","They","Self","Nonmatching","Self","They","Group-Stranger","Stranger","Top","n",1366.826309,1.366826309,1
2,23,"Female","r","Hungarian",1,13,"EXPERIMENT","Self","You","Nonmatching","Stranger","Self","Individual_Self","Self","Bottom","n",1166.828204,1.166828204,1
2,23,"Female","r","Hungarian",1,14,"EXPERIMENT","They","You","Nonmatching","Stranger","They","Group-Stranger","Stranger","Bottom","None",NA,NA,3
2,23,"Female","r","Hungarian",1,15,"EXPERIMENT","Self","They","Nonmatching","Stranger","Self","Individual_Self","Self","Top","n",1366.788408,1.366788408,1
2,23,"Female","r","Hungarian",1,16,"EXPERIMENT","You","You","Matching","Stranger","You","Individual_Stranger","Stranger","Bottom","n",1516.797153,1.516797153,0
2,23,"Female","r","Hungarian",1,17,"EXPERIMENT","You","We","Nonmatching","Self","You","Individual_Stranger","Stranger","Top","n",1066.843561,1.066843561,1
2,23,"Female","r","Hungarian",1,18,"EXPERIMENT","We","Self","Nonmatching","Self","We","Group-Self","Self","Top","n",1266.801397,1.266801397,1
2,23,"Female","r","Hungarian",1,19,"EXPERIMENT","Self","We","Nonmatching","Self","Self","Individual_Self","Self","Bottom","n",1100.152036,1.100152036,1
2,23,"Female","r","Hungarian",1,20,"EXPERIMENT","Self","Self","Matching","Self","Self","Individual_Self","Self","Bottom","m",1350.135553,1.350135553,1
2,23,"Female","r","Hungarian",1,21,"EXPERIMENT","We","They","Nonmatching","Stranger","We","Group-Self","Self","Top","n",1200.156023,1.200156023,1
2,23,"Female","r","Hungarian",1,22,"EXPERIMENT","We","Self","Nonmatching","Self","We","Group-Self","Self","Bottom","n",1050.158727,1.050158727,1
2,23,"Female","r","Hungarian",1,23,"EXPERIMENT","Self","They","Nonmatching","Stranger","Self","Individual_Self","Self","Top","n",1050.156753,1.050156753,1
2,23,"Female","r","Hungarian",1,24,"EXPERIMENT","Self","You","Nonmatching","Stranger","Self","Individual_Self","Self","Bottom","n",1350.162794,1.350162794,1
2,23,"Female","r","Hungarian",1,25,"EXPERIMENT","You","We","Nonmatching","Self","You","Individual_Stranger","Stranger","Top","n",1416.874493,1.416874493,1
2,23,"Female","r","Hungarian",1,26,"EXPERIMENT","You","You","Matching","Stranger","You","Individual_Stranger","Stranger","Top","m",833.50224,0.83350224,1
2,23,"Female","r","Hungarian",1,27,"EXPERIMENT","They","We","Nonmatching","Self","They","Group-Stranger","Stranger","Top","n",1416.831461,1.416831461,1
2,23,"Female","r","Hungarian",1,28,"EXPERIMENT","Self","You","Nonmatching","Stranger","Self","Individual_Self","Self","Top","n",1516.83229,1.51683229,1
2,23,"Female","r","Hungarian",1,29,"EXPERIMENT","You","You","Matching","Stranger","You","Individual_Stranger","Stranger","Bottom","m",966.882212,0.966882212,1
2,23,"Female","r","Hungarian",1,30,"EXPERIMENT","We","We","Matching","Self","We","Group-Self","Self","Bottom","m",1416.820012,1.416820012,1
2,23,"Female","r","Hungarian",1,31,"EXPERIMENT","You","You","Matching","Stranger","You","Individual_Stranger","Stranger","Top","n",1366.821571,1.366821571,0
2,23,"Female","r","Hungarian",1,32,"EXPERIMENT","They","They","Matching","Stranger","They","Group-Stranger","Stranger","Top","m",1250.12209,1.25012209,1
2,23,"Female","r","Hungarian",1,33,"EXPERIMENT","We","You","Nonmatching","Stranger","We","Group-Self","Self","Top","n",1283.483862,1.283483862,1
2,23,"Female","r","Hungarian",1,34,"EXPERIMENT","Self","Self","Matching","Self","Self","Individual_Self","Self","Bottom","m",1266.868512,1.266868512,1
2,23,"Female","r","Hungarian",1,35,"EXPERIMENT","Self","Self","Matching","Self","Self","Individual_Self","Self","Top","m",1283.485047,1.283485047,1
2,23,"Female","r","Hungarian",1,36,"EXPERIMENT","They","They","Matching","Stranger","They","Group-Stranger","Stranger","Bottom","m",1100.197042,1.100197042,1
2,23,"Female","r","Hungarian",1,37,"EXPERIMENT","You","You","Matching","Stranger","You","Individual_Stranger","Stranger","Bottom","m",1616.744685,1.616744685,1
2,23,"Female","r","Hungarian",1,38,"EXPERIMENT","We","Self","Nonmatching","Self","We","Group-Self","Self","Top","n",1116.801733,1.116801733,1
2,23,"Female","r","Hungarian",1,39,"EXPERIMENT","You","You","Matching","Stranger","You","Individual_Stranger","Stranger","Top","m",916.836396,0.916836396,1
2,23,"Female","r","Hungarian",1,40,"EXPERIMENT","Self","Self","Matching","Self","Self","Individual_Self","Self","Top","m",1200.173394,1.200173394,1
2,23,"Female","r","Hungarian",1,41,"EXPERIMENT","We","We","Matching","Self","We","Group-Self","Self","Top","m",1000.148443,1.000148443,1
2,23,"Female","r","Hungarian",1,42,"EXPERIMENT","We","We","Matching","Self","We","Group-Self","Self","Bottom","m",983.512564,0.983512564,1
2,23,"Female","r","Hungarian",1,43,"EXPERIMENT","You","Self","Nonmatching","Self","You","Individual_Stranger","Stranger","Top","n",966.843522,0.966843522,1
2,23,"Female","r","Hungarian",1,44,"EXPERIMENT","You","They","Nonmatching","Stranger","You","Individual_Stranger","Stranger","Bottom","m",983.518486,0.983518486,0
2,23,"Female","r","Hungarian",1,45,"EXPERIMENT","Self","We","Nonmatching","Self","Self","Individual_Self","Self","Top","n",1133.492883,1.133492883,1
2,23,"Female","r","Hungarian",1,46,"EXPERIMENT","Self","They","Nonmatching","Stranger","Self","Individual_Self","Self","Bottom","n",1183.4704,1.1834704,1
2,23,"Female","r","Hungarian",1,47,"EXPERIMENT","You","You","Matching","Stranger","You","Individual_Stranger","Stranger","Bottom","m",1100.144535,1.100144535,1
2,23,"Female","r","Hungarian",1,48,"EXPERIMENT","They","They","Matching","Stranger","They","Group-Stranger","Stranger","Bottom","m",1116.797785,1.116797785,1
2,23,"Female","r","Hungarian",1,49,"EXPERIMENT","You","They","Nonmatching","Stranger","You","Individual_Stranger","Stranger","Top","n",950.206458,0.950206458,1
2,23,"Female","r","Hungarian",1,50,"EXPERIMENT","You","They","Nonmatching","Stranger","You","Individual_Stranger","Stranger","Top","n",866.832033,0.866832033,1
2,23,"Female","r","Hungarian",1,51,"EXPERIMENT","Self","They","Nonmatching","Stranger","Self","Individual_Self","Self","Bottom","n",1300.145798,1.300145798,1
2,23,"Female","r","Hungarian",1,52,"EXPERIMENT","They","They","Matching","Stranger","They","Group-Stranger","Stranger","Top","m",1050.172545,1.050172545,1
2,23,"Female","r","Hungarian",1,53,"EXPERIMENT","They","We","Nonmatching","Self","They","Group-Stranger","Stranger","Top","n",1166.817544,1.166817544,1
2,23,"Female","r","Hungarian",1,54,"EXPERIMENT","They","You","Nonmatching","Stranger","They","Group-Stranger","Stranger","Top","n",1416.80422,1.41680422,1
2,23,"Female","r","Hungarian",1,55,"EXPERIMENT","They","They","Matching","Stranger","They","Group-Stranger","Stranger","Bottom","n",1333.470459,1.333470459,0
2,23,"Female","r","Hungarian",1,56,"EXPERIMENT","They","We","Nonmatching","Self","They","Group-Stranger","Stranger","Bottom","n",1116.81634,1.11681634,1
2,23,"Female","r","Hungarian",1,57,"EXPERIMENT","Self","Self","Matching","Self","Self","Individual_Self","Self","Top","m",1250.132355,1.250132355,1
2,23,"Female","r","Hungarian",1,58,"EXPERIMENT","Self","We","Nonmatching","Self","Self","Individual_Self","Self","Top","n",916.854951,0.916854951,1
2,23,"Female","r","Hungarian",1,59,"EXPERIMENT","We","You","Nonmatching","Stranger","We","Group-Self","Self","Top","n",1233.519769,1.233519769,1
2,23,"Female","r","Hungarian",1,60,"EXPERIMENT","We","We","Matching","Self","We","Group-Self","Self","Bottom","m",1250.137487,1.250137487,1
2,23,"Female","r","Hungarian",1,61,"EXPERIMENT","We","We","Matching","Self","We","Group-Self","Self","Top","m",950.149213,0.950149213,1
2,23,"Female","r","Hungarian",1,62,"EXPERIMENT","We","They","Nonmatching","Stranger","We","Group-Self","Self","Bottom","n",1016.806036,1.016806036,1
2,23,"Female","r","Hungarian",1,63,"EXPERIMENT","We","They","Nonmatching","Stranger","We","Group-Self","Self","Top","n",1200.153259,1.200153259,1
2,23,"Female","r","Hungarian",1,64,"EXPERIMENT","You","They","Nonmatching","Stranger","You","Individual_Stranger","Stranger","Bottom","n",1183.480664,1.183480664,1
2,23,"Female","r","Hungarian",1,65,"EXPERIMENT","They","They","Matching","Stranger","They","Group-Stranger","Stranger","Top","n",1000.155155,1.000155155,0
2,23,"Female","r","Hungarian",1,66,"EXPERIMENT","We","You","Nonmatching","Stranger","We","Group-Self","Self","Bottom","n",1566.868631,1.566868631,1
2,23,"Female","r","Hungarian",1,67,"EXPERIMENT","We","They","Nonmatching","Stranger","We","Group-Self","Self","Bottom","n",916.821788,0.916821788,1
2,23,"Female","r","Hungarian",1,68,"EXPERIMENT","You","Self","Nonmatching","Self","You","Individual_Stranger","Stranger","Top","n",1100.134665,1.100134665,1
2,23,"Female","r","Hungarian",1,69,"EXPERIMENT","They","They","Matching","Stranger","They","Group-Stranger","Stranger","Bottom","m",1166.761089,1.166761089,1
2,23,"Female","r","Hungarian",1,70,"EXPERIMENT","Self","You","Nonmatching","Stranger","Self","Individual_Self","Self","Top","n",1200.148917,1.200148917,1
2,23,"Female","r","Hungarian",1,71,"EXPERIMENT","Self","Self","Matching","Self","Self","Individual_Self","Self","Top","m",1200.141021,1.200141021,1
2,23,"Female","r","Hungarian",1,72,"EXPERIMENT","You","Self","Nonmatching","Self","You","Individual_Stranger","Stranger","Bottom","n",1083.47944,1.08347944,1
2,23,"Female","r","Hungarian",1,73,"EXPERIMENT","Self","Self","Matching","Self","Self","Individual_Self","Self","Top","m",1233.499239,1.233499239,1
2,23,"Female","r","Hungarian",1,74,"EXPERIMENT","You","We","Nonmatching","Self","You","Individual_Stranger","Stranger","Bottom","n",1166.842022,1.166842022,1
2,23,"Female","r","Hungarian",1,75,"EXPERIMENT","They","Self","Nonmatching","Self","They","Group-Stranger","Stranger","Top","n",1350.142264,1.350142264,1
2,23,"Female","r","Hungarian",1,76,"EXPERIMENT","Self","Self","Matching","Self","Self","Individual_Self","Self","Bottom","m",883.498312,0.883498312,1
2,23,"Female","r","Hungarian",1,77,"EXPERIMENT","We","We","Matching","Self","We","Group-Self","Self","Top","m",1100.174539,1.100174539,1
2,23,"Female","r","Hungarian",1,78,"EXPERIMENT","We","We","Matching","Self","We","Group-Self","Self","Bottom","m",916.819814,0.916819814,1
2,23,"Female","r","Hungarian",1,79,"EXPERIMENT","Self","Self","Matching","Self","Self","Individual_Self","Self","Bottom","m",1700.119899,1.700119899,1
2,23,"Female","r","Hungarian",1,80,"EXPERIMENT","You","Self","Nonmatching","Self","You","Individual_Stranger","Stranger","Bottom","n",916.829684,0.916829684,1
2,23,"Female","r","Hungarian",1,81,"EXPERIMENT","You","You","Matching","Stranger","You","Individual_Stranger","Stranger","Bottom","m",1350.134763,1.350134763,1
2,23,"Female","r","Hungarian",1,82,"EXPERIMENT","Self","Self","Matching","Self","Self","Individual_Self","Self","Bottom","m",933.516887,0.933516887,1
2,23,"Female","r","Hungarian",1,83,"EXPERIMENT","You","You","Matching","Stranger","You","Individual_Stranger","Stranger","Bottom","m",950.16461,0.95016461,1
2,23,"Female","r","Hungarian",1,84,"EXPERIMENT","Self","Self","Matching","Self","Self","Individual_Self","Self","Top","m",833.493949,0.833493949,1
2,23,"Female","r","Hungarian",1,85,"EXPERIMENT","We","We","Matching","Self","We","Group-Self","Self","Top","m",1033.456917,1.033456917,1
2,23,"Female","r","Hungarian",1,86,"EXPERIMENT","They","Self","Nonmatching","Self","They","Group-Stranger","Stranger","Bottom","n",1100.182435,1.100182435,1
2,23,"Female","r","Hungarian",1,87,"EXPERIMENT","They","They","Matching","Stranger","They","Group-Stranger","Stranger","Top","m",1183.494877,1.183494877,1
2,23,"Female","r","Hungarian",1,88,"EXPERIMENT","You","You","Matching","Stranger","You","Individual_Stranger","Stranger","Top","m",800.187054,0.800187054,1
2,23,"Female","r","Hungarian",1,89,"EXPERIMENT","We","We","Matching","Self","We","Group-Self","Self","Bottom","m",783.538541,0.783538541,1
2,23,"Female","r","Hungarian",1,90,"EXPERIMENT","We","We","Matching","Self","We","Group-Self","Self","Top","m",850.171282,0.850171282,1
2,23,"Female","r","Hungarian",1,91,"EXPERIMENT","We","We","Matching","Self","We","Group-Self","Self","Bottom","m",833.474604,0.833474604,1
2,23,"Female","r","Hungarian",1,92,"EXPERIMENT","You","You","Matching","Stranger","You","Individual_Stranger","Stranger","Top","m",900.23289,0.90023289,1
2,23,"Female","r","Hungarian",1,93,"EXPERIMENT","We","We","Matching","Self","We","Group-Self","Self","Top","m",1016.821828,1.016821828,1
2,23,"Female","r","Hungarian",1,94,"EXPERIMENT","They","They","Matching","Stranger","They","Group-Stranger","Stranger","Bottom","m",1133.492488,1.133492488,1
2,23,"Female","r","Hungarian",1,95,"EXPERIMENT","We","You","Nonmatching","Stranger","We","Group-Self","Self","Bottom","n",1233.490554,1.233490554,1
2,23,"Female","r","Hungarian",1,96,"EXPERIMENT","They","You","Nonmatching","Stranger","They","Group-Stranger","Stranger","Top","m",883.526737,0.883526737,0
2,23,"Female","r","Hungarian",2,1,"EXPERIMENT","You","Self","Nonmatching","Self","You","Individual_Stranger","Stranger","Top","n",1033.459681,1.033459681,1
2,23,"Female","r","Hungarian",2,2,"EXPERIMENT","They","They","Matching","Stranger","They","Group-Stranger","Stranger","Top","m",1016.841568,1.016841568,1
2,23,"Female","r","Hungarian",2,3,"EXPERIMENT","We","We","Matching","Self","We","Group-Self","Self","Bottom","m",1000.150022,1.000150022,1
2,23,"Female","r","Hungarian",2,4,"EXPERIMENT","You","They","Nonmatching","Stranger","You","Individual_Stranger","Stranger","Top","n",1033.505082,1.033505082,1
2,23,"Female","r","Hungarian",2,5,"EXPERIMENT","You","They","Nonmatching","Stranger","You","Individual_Stranger","Stranger","Top","n",900.14643,0.90014643,1
2,23,"Female","r","Hungarian",2,6,"EXPERIMENT","They","Self","Nonmatching","Self","They","Group-Stranger","Stranger","Bottom","n",1050.197417,1.050197417,1
2,23,"Female","r","Hungarian",2,7,"EXPERIMENT","They","They","Matching","Stranger","They","Group-Stranger","Stranger","Top","m",1250.134724,1.250134724,1
2,23,"Female","r","Hungarian",2,8,"EXPERIMENT","Self","Self","Matching","Self","Self","Individual_Self","Self","Top","m",766.827651,0.766827651,1
2,23,"Female","r","Hungarian",2,9,"EXPERIMENT","You","We","Nonmatching","Self","You","Individual_Stranger","Stranger","Top","n",1150.135079,1.150135079,1
2,23,"Female","r","Hungarian",2,10,"EXPERIMENT","They","They","Matching","Stranger","They","Group-Stranger","Stranger","Bottom","m",1333.481118,1.333481118,1
2,23,"Female","r","Hungarian",2,11,"EXPERIMENT","We","We","Matching","Self","We","Group-Self","Self","Top","m",816.835567,0.816835567,1
2,23,"Female","r","Hungarian",2,12,"EXPERIMENT","You","You","Matching","Stranger","You","Individual_Stranger","Stranger","Bottom","m",1200.199056,1.200199056,1
2,23,"Female","r","Hungarian",2,13,"EXPERIMENT","We","You","Nonmatching","Stranger","We","Group-Self","Self","Bottom","n",1216.824275,1.216824275,1
2,23,"Female","r","Hungarian",2,14,"EXPERIMENT","Self","You","Nonmatching","Stranger","Self","Individual_Self","Self","Top","m",1566.810596,1.566810596,0
2,23,"Female","r","Hungarian",2,15,"EXPERIMENT","Self","Self","Matching","Self","Self","Individual_Self","Self","Top","m",1033.477842,1.033477842,1
2,23,"Female","r","Hungarian",2,16,"EXPERIMENT","They","They","Matching","Stranger","They","Group-Stranger","Stranger","Bottom","m",1150.16232,1.15016232,1
2,23,"Female","r","Hungarian",2,17,"EXPERIMENT","You","We","Nonmatching","Self","You","Individual_Stranger","Stranger","Top","n",1050.188337,1.050188337,1
2,23,"Female","r","Hungarian",2,18,"EXPERIMENT","They","You","Nonmatching","Stranger","They","Group-Stranger","Stranger","Bottom","n",1266.811267,1.266811267,1
2,23,"Female","r","Hungarian",2,19,"EXPERIMENT","Self","Self","Matching","Self","Self","Individual_Self","Self","Bottom","m",766.766853,0.766766853,1
2,23,"Female","r","Hungarian",2,20,"EXPERIMENT","Self","We","Nonmatching","Self","Self","Individual_Self","Self","Top","n",900.142876,0.900142876,1
2,23,"Female","r","Hungarian",2,21,"EXPERIMENT","You","Self","Nonmatching","Self","You","Individual_Stranger","Stranger","Bottom","n",850.174835,0.850174835,1
2,23,"Female","r","Hungarian",2,22,"EXPERIMENT","We","They","Nonmatching","Stranger","We","Group-Self","Self","Bottom","n",1016.848674,1.016848674,1
2,23,"Female","r","Hungarian",2,23,"EXPERIMENT","Self","Self","Matching","Self","Self","Individual_Self","Self","Top","m",1033.49916,1.03349916,1
2,23,"Female","r","Hungarian",2,24,"EXPERIMENT","They","We","Nonmatching","Self","They","Group-Stranger","Stranger","Bottom","n",1000.165814,1.000165814,1
2,23,"Female","r","Hungarian",2,25,"EXPERIMENT","We","You","Nonmatching","Stranger","We","Group-Self","Self","Bottom","n",933.495568,0.933495568,1
2,23,"Female","r","Hungarian",2,26,"EXPERIMENT","They","We","Nonmatching","Self","They","Group-Stranger","Stranger","Top","n",966.830494,0.966830494,1
2,23,"Female","r","Hungarian",2,27,"EXPERIMENT","We","We","Matching","Self","We","Group-Self","Self","Top","n",1100.168617,1.100168617,0
2,23,"Female","r","Hungarian",2,28,"EXPERIMENT","We","We","Matching","Self","We","Group-Self","Self","Top","m",833.518426,0.833518426,1
2,23,"Female","r","Hungarian",2,29,"EXPERIMENT","Self","Self","Matching","Self","Self","Individual_Self","Self","Top","m",816.833987,0.816833987,1
2,23,"Female","r","Hungarian",2,30,"EXPERIMENT","We","Self","Nonmatching","Self","We","Group-Self","Self","Bottom","n",983.496772,0.983496772,1
2,23,"Female","r","Hungarian",2,31,"EXPERIMENT","Self","Self","Matching","Self","Self","Individual_Self","Self","Bottom","m",916.617284,0.916617284,1
2,23,"Female","r","Hungarian",2,32,"EXPERIMENT","We","They","Nonmatching","Stranger","We","Group-Self","Self","Top","n",1200.102726,1.200102726,1
2,23,"Female","r","Hungarian",2,33,"EXPERIMENT","You","You","Matching","Stranger","You","Individual_Stranger","Stranger","Top","m",883.486468,0.883486468,1
2,23,"Female","r","Hungarian",2,34,"EXPERIMENT","They","They","Matching","Stranger","They","Group-Stranger","Stranger","Bottom","m",1100.159537,1.100159537,1
2,23,"Female","r","Hungarian",2,35,"EXPERIMENT","They","They","Matching","Stranger","They","Group-Stranger","Stranger","Top","m",983.498351,0.983498351,1
2,23,"Female","r","Hungarian",2,36,"EXPERIMENT","Self","Self","Matching","Self","Self","Individual_Self","Self","Bottom","m",866.839534,0.866839534,1
2,23,"Female","r","Hungarian",2,37,"EXPERIMENT","Self","We","Nonmatching","Self","Self","Individual_Self","Self","Top","n",1083.471939,1.083471939,1
2,23,"Female","r","Hungarian",2,38,"EXPERIMENT","You","We","Nonmatching","Self","You","Individual_Stranger","Stranger","Bottom","n",950.161846,0.950161846,1
2,23,"Female","r","Hungarian",2,39,"EXPERIMENT","They","They","Matching","Stranger","They","Group-Stranger","Stranger","Bottom","m",766.822124,0.766822124,1
2,23,"Female","r","Hungarian",2,40,"EXPERIMENT","Self","We","Nonmatching","Self","Self","Individual_Self","Self","Bottom","n",1150.10389,1.15010389,1
2,23,"Female","r","Hungarian",2,41,"EXPERIMENT","You","You","Matching","Stranger","You","Individual_Stranger","Stranger","Top","m",883.488837,0.883488837,1
2,23,"Female","r","Hungarian",2,42,"EXPERIMENT","You","They","Nonmatching","Stranger","You","Individual_Stranger","Stranger","Bottom","n",1033.483369,1.033483369,1
2,23,"Female","r","Hungarian",2,43,"EXPERIMENT","They","They","Matching","Stranger","They","Group-Stranger","Stranger","Top","m",883.512524,0.883512524,1
2,23,"Female","r","Hungarian",2,44,"EXPERIMENT","Self","Self","Matching","Self","Self","Individual_Self","Self","Top","m",933.491225,0.933491225,1
2,23,"Female","r","Hungarian",2,45,"EXPERIMENT","They","They","Matching","Stranger","They","Group-Stranger","Stranger","Bottom","m",1450.164412,1.450164412,1
2,23,"Female","r","Hungarian",2,46,"EXPERIMENT","They","You","Nonmatching","Stranger","They","Group-Stranger","Stranger","Top","n",1133.502753,1.133502753,1
2,23,"Female","r","Hungarian",2,47,"EXPERIMENT","They","They","Matching","Stranger","They","Group-Stranger","Stranger","Bottom","m",783.566967,0.783566967,1
2,23,"Female","r","Hungarian",2,48,"EXPERIMENT","You","Self","Nonmatching","Self","You","Individual_Stranger","Stranger","Bottom","n",950.14566,0.95014566,1
2,23,"Female","r","Hungarian",2,49,"EXPERIMENT","Self","Self","Matching","Self","Self","Individual_Self","Self","Bottom","m",883.49239,0.88349239,1
2,23,"Female","r","Hungarian",2,50,"EXPERIMENT","Self","They","Nonmatching","Stranger","Self","Individual_Self","Self","Top","n",1100.173749,1.100173749,1
2,23,"Female","r","Hungarian",2,51,"EXPERIMENT","They","They","Matching","Stranger","They","Group-Stranger","Stranger","Top","m",900.168933,0.900168933,1
2,23,"Female","r","Hungarian",2,52,"EXPERIMENT","Self","Self","Matching","Self","Self","Individual_Self","Self","Bottom","m",833.505793,0.833505793,1
2,23,"Female","r","Hungarian",2,53,"EXPERIMENT","They","Self","Nonmatching","Self","They","Group-Stranger","Stranger","Top","n",1050.155569,1.050155569,1
2,23,"Female","r","Hungarian",2,54,"EXPERIMENT","We","You","Nonmatching","Stranger","We","Group-Self","Self","Top","n",1266.782052,1.266782052,1
2,23,"Female","r","Hungarian",2,55,"EXPERIMENT","We","Self","Nonmatching","Self","We","Group-Self","Self","Top","n",1466.800686,1.466800686,1
2,23,"Female","r","Hungarian",2,56,"EXPERIMENT","They","Self","Nonmatching","Self","They","Group-Stranger","Stranger","Top","n",966.829309,0.966829309,1
2,23,"Female","r","Hungarian",2,57,"EXPERIMENT","We","They","Nonmatching","Stranger","We","Group-Self","Self","Bottom","n",1033.512189,1.033512189,1
2,23,"Female","r","Hungarian",2,58,"EXPERIMENT","You","They","Nonmatching","Stranger","You","Individual_Stranger","Stranger","Bottom","n",883.478967,0.883478967,1
2,23,"Female","r","Hungarian",2,59,"EXPERIMENT","They","We","Nonmatching","Self","They","Group-Stranger","Stranger","Bottom","n",966.821808,0.966821808,1
2,23,"Female","r","Hungarian",2,60,"EXPERIMENT","Self","Self","Matching","Self","Self","Individual_Self","Self","Bottom","m",833.507767,0.833507767,1
2,23,"Female","r","Hungarian",2,61,"EXPERIMENT","You","We","Nonmatching","Self","You","Individual_Stranger","Stranger","Bottom","n",933.479381,0.933479381,1
2,23,"Female","r","Hungarian",2,62,"EXPERIMENT","They","We","Nonmatching","Self","They","Group-Stranger","Stranger","Top","n",1316.817998,1.316817998,1
2,23,"Female","r","Hungarian",2,63,"EXPERIMENT","You","You","Matching","Stranger","You","Individual_Stranger","Stranger","Top","m",1050.171756,1.050171756,1
2,23,"Female","r","Hungarian",2,64,"EXPERIMENT","We","We","Matching","Self","We","Group-Self","Self","Top","m",966.814702,0.966814702,1
2,23,"Female","r","Hungarian",2,65,"EXPERIMENT","We","They","Nonmatching","Stranger","We","Group-Self","Self","Top","n",1083.467597,1.083467597,1
2,23,"Female","r","Hungarian",2,66,"EXPERIMENT","We","We","Matching","Self","We","Group-Self","Self","Bottom","m",1266.782842,1.266782842,1
2,23,"Female","r","Hungarian",2,67,"EXPERIMENT","You","You","Matching","Stranger","You","Individual_Stranger","Stranger","Bottom","m",883.504234,0.883504234,1
2,23,"Female","r","Hungarian",2,68,"EXPERIMENT","You","You","Matching","Stranger","You","Individual_Stranger","Stranger","Bottom","m",783.490771,0.783490771,1
2,23,"Female","r","Hungarian",2,69,"EXPERIMENT","You","You","Matching","Stranger","You","Individual_Stranger","Stranger","Top","m",866.824532,0.866824532,1
2,23,"Female","r","Hungarian",2,70,"EXPERIMENT","They","You","Nonmatching","Stranger","They","Group-Stranger","Stranger","Top","n",916.873901,0.916873901,1
2,23,"Female","r","Hungarian",2,71,"EXPERIMENT","Self","You","Nonmatching","Stranger","Self","Individual_Self","Self","Bottom","n",1266.82548,1.26682548,1
2,23,"Female","r","Hungarian",2,72,"EXPERIMENT","We","We","Matching","Self","We","Group-Self","Self","Bottom","m",1050.158727,1.050158727,1
2,23,"Female","r","Hungarian",2,73,"EXPERIMENT","Self","Self","Matching","Self","Self","Individual_Self","Self","Top","m",1116.796995,1.116796995,1
2,23,"Female","r","Hungarian",2,74,"EXPERIMENT","You","You","Matching","Stranger","You","Individual_Stranger","Stranger","Top","m",783.46353,0.78346353,1
2,23,"Female","r","Hungarian",2,75,"EXPERIMENT","Self","They","Nonmatching","Stranger","Self","Individual_Self","Self","Bottom","n",1299.959849,1.299959849,1
2,23,"Female","r","Hungarian",2,76,"EXPERIMENT","We","We","Matching","Self","We","Group-Self","Self","Bottom","m",1050.161096,1.050161096,1
2,23,"Female","r","Hungarian",2,77,"EXPERIMENT","Self","We","Nonmatching","Self","Self","Individual_Self","Self","Bottom","m",1083.532738,1.083532738,0
2,23,"Female","r","Hungarian",2,78,"EXPERIMENT","They","You","Nonmatching","Stranger","They","Group-Stranger","Stranger","Bottom","n",900.178013,0.900178013,1
2,23,"Female","r","Hungarian",2,79,"EXPERIMENT","You","You","Matching","Stranger","You","Individual_Stranger","Stranger","Bottom","m",800.166525,0.800166525,1
2,23,"Female","r","Hungarian",2,80,"EXPERIMENT","You","You","Matching","Stranger","You","Individual_Stranger","Stranger","Bottom","m",1116.838843,1.116838843,1
2,23,"Female","r","Hungarian",2,81,"EXPERIMENT","You","Self","Nonmatching","Self","You","Individual_Stranger","Stranger","Top","n",950.112892,0.950112892,1
2,23,"Female","r","Hungarian",2,82,"EXPERIMENT","They","Self","Nonmatching","Self","They","Group-Stranger","Stranger","Bottom","n",966.81865,0.96681865,1
2,23,"Female","r","Hungarian",2,83,"EXPERIMENT","We","You","Nonmatching","Stranger","We","Group-Self","Self","Top","n",1066.833297,1.066833297,1
2,23,"Female","r","Hungarian",2,84,"EXPERIMENT","Self","They","Nonmatching","Stranger","Self","Individual_Self","Self","Top","n",866.846246,0.866846246,1
2,23,"Female","r","Hungarian",2,85,"EXPERIMENT","We","We","Matching","Self","We","Group-Self","Self","Top","m",950.182376,0.950182376,1
2,23,"Female","r","Hungarian",2,86,"EXPERIMENT","You","You","Matching","Stranger","You","Individual_Stranger","Stranger","Top","m",1433.483132,1.433483132,1
2,23,"Female","r","Hungarian",2,87,"EXPERIMENT","We","Self","Nonmatching","Self","We","Group-Self","Self","Bottom","n",1000.17292,1.00017292,1
2,23,"Female","r","Hungarian",2,88,"EXPERIMENT","We","We","Matching","Self","We","Group-Self","Self","Bottom","m",850.178783,0.850178783,1
2,23,"Female","r","Hungarian",2,89,"EXPERIMENT","We","We","Matching","Self","We","Group-Self","Self","Bottom","m",966.81707,0.96681707,1
2,23,"Female","r","Hungarian",2,90,"EXPERIMENT","They","They","Matching","Stranger","They","Group-Stranger","Stranger","Top","m",983.479796,0.983479796,1
2,23,"Female","r","Hungarian",2,91,"EXPERIMENT","Self","You","Nonmatching","Stranger","Self","Individual_Self","Self","Bottom","n",1133.523282,1.133523282,1
2,23,"Female","r","Hungarian",2,92,"EXPERIMENT","We","Self","Nonmatching","Self","We","Group-Self","Self","Top","n",933.488856,0.933488856,1
2,23,"Female","r","Hungarian",2,93,"EXPERIMENT","You","You","Matching","Stranger","You","Individual_Stranger","Stranger","Bottom","m",716.873822,0.716873822,1
2,23,"Female","r","Hungarian",2,94,"EXPERIMENT","We","We","Matching","Self","We","Group-Self","Self","Top","m",1050.162281,1.050162281,1
2,23,"Female","r","Hungarian",2,95,"EXPERIMENT","Self","You","Nonmatching","Stranger","Self","Individual_Self","Self","Top","n",1000.158313,1.000158313,1
2,23,"Female","r","Hungarian",2,96,"EXPERIMENT","Self","They","Nonmatching","Stranger","Self","Individual_Self","Self","Bottom","n",1133.507885,1.133507885,1
2,23,"Female","r","Hungarian",3,1,"EXPERIMENT","We","We","Matching","Self","We","Group-Self","Self","Bottom","m",1016.822617,1.016822617,1
2,23,"Female","r","Hungarian",3,2,"EXPERIMENT","You","You","Matching","Stranger","You","Individual_Stranger","Stranger","Bottom","m",666.960263,0.666960263,1
2,23,"Female","r","Hungarian",3,3,"EXPERIMENT","You","Self","Nonmatching","Self","You","Individual_Stranger","Stranger","Bottom","n",716.89751,0.71689751,1
2,23,"Female","r","Hungarian",3,4,"EXPERIMENT","Self","Self","Matching","Self","Self","Individual_Self","Self","Top","m",850.168913,0.850168913,1
2,23,"Female","r","Hungarian",3,5,"EXPERIMENT","Self","Self","Matching","Self","Self","Individual_Self","Self","Bottom","m",783.501431,0.783501431,1
2,23,"Female","r","Hungarian",3,6,"EXPERIMENT","We","We","Matching","Self","We","Group-Self","Self","Bottom","m",816.850174,0.816850174,1
2,23,"Female","r","Hungarian",3,7,"EXPERIMENT","We","We","Matching","Self","We","Group-Self","Self","Bottom","m",900.167748,0.900167748,1
2,23,"Female","r","Hungarian",3,8,"EXPERIMENT","They","They","Matching","Stranger","They","Group-Stranger","Stranger","Top","m",1116.813577,1.116813577,1
2,23,"Female","r","Hungarian",3,9,"EXPERIMENT","Self","You","Nonmatching","Stranger","Self","Individual_Self","Self","Top","n",1033.488501,1.033488501,1
2,23,"Female","r","Hungarian",3,10,"EXPERIMENT","You","We","Nonmatching","Self","You","Individual_Stranger","Stranger","Top","n",1066.820663,1.066820663,1
2,23,"Female","r","Hungarian",3,11,"EXPERIMENT","Self","We","Nonmatching","Self","Self","Individual_Self","Self","Bottom","n",1100.171381,1.100171381,1
2,23,"Female","r","Hungarian",3,12,"EXPERIMENT","You","They","Nonmatching","Stranger","You","Individual_Stranger","Stranger","Bottom","n",1000.170552,1.000170552,1
2,23,"Female","r","Hungarian",3,13,"EXPERIMENT","You","You","Matching","Stranger","You","Individual_Stranger","Stranger","Top","m",916.846266,0.916846266,1
2,23,"Female","r","Hungarian",3,14,"EXPERIMENT","You","We","Nonmatching","Self","You","Individual_Stranger","Stranger","Bottom","n",766.797252,0.766797252,1
2,23,"Female","r","Hungarian",3,15,"EXPERIMENT","Self","They","Nonmatching","Stranger","Self","Individual_Self","Self","Bottom","n",1083.478651,1.083478651,1
2,23,"Female","r","Hungarian",3,16,"EXPERIMENT","You","You","Matching","Stranger","You","Individual_Stranger","Stranger","Top","m",966.874316,0.966874316,1
2,23,"Female","r","Hungarian",3,17,"EXPERIMENT","You","Self","Nonmatching","Self","You","Individual_Stranger","Stranger","Top","n",950.2033,0.9502033,1
2,23,"Female","r","Hungarian",3,18,"EXPERIMENT","Self","Self","Matching","Self","Self","Individual_Self","Self","Bottom","m",1016.832092,1.016832092,1
2,23,"Female","r","Hungarian",3,19,"EXPERIMENT","They","They","Matching","Stranger","They","Group-Stranger","Stranger","Bottom","m",900.178013,0.900178013,1
2,23,"Female","r","Hungarian",3,20,"EXPERIMENT","You","We","Nonmatching","Self","You","Individual_Stranger","Stranger","Bottom","n",916.814287,0.916814287,1
2,23,"Female","r","Hungarian",3,21,"EXPERIMENT","You","You","Matching","Stranger","You","Individual_Stranger","Stranger","Bottom","m",783.488007,0.783488007,1
2,23,"Female","r","Hungarian",3,22,"EXPERIMENT","We","We","Matching","Self","We","Group-Self","Self","Top","m",1083.496417,1.083496417,1
2,23,"Female","r","Hungarian",3,23,"EXPERIMENT","We","They","Nonmatching","Stranger","We","Group-Self","Self","Top","n",1650.115932,1.650115932,1
2,23,"Female","r","Hungarian",3,24,"EXPERIMENT","Self","Self","Matching","Self","Self","Individual_Self","Self","Top","m",950.156319,0.950156319,1
2,23,"Female","r","Hungarian",3,25,"EXPERIMENT","Self","Self","Matching","Self","Self","Individual_Self","Self","Bottom","m",816.797666,0.816797666,1
2,23,"Female","r","Hungarian",3,26,"EXPERIMENT","They","Self","Nonmatching","Self","They","Group-Stranger","Stranger","Bottom","n",933.327385,0.933327385,1
2,23,"Female","r","Hungarian",3,27,"EXPERIMENT","They","You","Nonmatching","Stranger","They","Group-Stranger","Stranger","Bottom","n",933.463589,0.933463589,1
2,23,"Female","r","Hungarian",3,28,"EXPERIMENT","We","We","Matching","Self","We","Group-Self","Self","Top","m",800.150338,0.800150338,1
2,23,"Female","r","Hungarian",3,29,"EXPERIMENT","We","We","Matching","Self","We","Group-Self","Self","Bottom","m",816.85886,0.81685886,1
2,23,"Female","r","Hungarian",3,30,"EXPERIMENT","They","They","Matching","Stranger","They","Group-Stranger","Stranger","Top","m",866.79966,0.86679966,1
2,23,"Female","r","Hungarian",3,31,"EXPERIMENT","You","You","Matching","Stranger","You","Individual_Stranger","Stranger","Top","m",1000.161076,1.000161076,1
2,23,"Female","r","Hungarian",3,32,"EXPERIMENT","They","They","Matching","Stranger","They","Group-Stranger","Stranger","Bottom","m",850.206024,0.850206024,1
2,23,"Female","r","Hungarian",3,33,"EXPERIMENT","We","Self","Nonmatching","Self","We","Group-Self","Self","Bottom","n",916.79968,0.91679968,1
2,23,"Female","r","Hungarian",3,34,"EXPERIMENT","We","We","Matching","Self","We","Group-Self","Self","Top","m",1000.142521,1.000142521,1
2,23,"Female","r","Hungarian",3,35,"EXPERIMENT","We","You","Nonmatching","Stranger","We","Group-Self","Self","Top","n",933.410292,0.933410292,1
2,23,"Female","r","Hungarian",3,36,"EXPERIMENT","You","Self","Nonmatching","Self","You","Individual_Stranger","Stranger","Top","n",900.161037,0.900161037,1
2,23,"Female","r","Hungarian",3,37,"EXPERIMENT","We","Self","Nonmatching","Self","We","Group-Self","Self","Top","n",1033.514557,1.033514557,1
2,23,"Female","r","Hungarian",3,38,"EXPERIMENT","They","They","Matching","Stranger","They","Group-Stranger","Stranger","Bottom","m",916.840344,0.916840344,1
2,23,"Female","r","Hungarian",3,39,"EXPERIMENT","We","We","Matching","Self","We","Group-Self","Self","Bottom","m",883.515288,0.883515288,1
2,23,"Female","r","Hungarian",3,40,"EXPERIMENT","They","You","Nonmatching","Stranger","They","Group-Stranger","Stranger","Bottom","n",1083.475887,1.083475887,1
2,23,"Female","r","Hungarian",3,41,"EXPERIMENT","You","You","Matching","Stranger","You","Individual_Stranger","Stranger","Top","m",750.134526,0.750134526,1
2,23,"Female","r","Hungarian",3,42,"EXPERIMENT","You","You","Matching","Stranger","You","Individual_Stranger","Stranger","Bottom","m",933.464774,0.933464774,1
2,23,"Female","r","Hungarian",3,43,"EXPERIMENT","You","You","Matching","Stranger","You","Individual_Stranger","Stranger","Top","m",816.907419,0.816907419,1
2,23,"Female","r","Hungarian",3,44,"EXPERIMENT","They","They","Matching","Stranger","They","Group-Stranger","Stranger","Bottom","m",816.871888,0.816871888,1
2,23,"Female","r","Hungarian",3,45,"EXPERIMENT","We","You","Nonmatching","Stranger","We","Group-Self","Self","Bottom","n",950.16382,0.95016382,1
2,23,"Female","r","Hungarian",3,46,"EXPERIMENT","They","They","Matching","Stranger","They","Group-Stranger","Stranger","Top","m",933.450561,0.933450561,1
2,23,"Female","r","Hungarian",3,47,"EXPERIMENT","You","You","Matching","Stranger","You","Individual_Stranger","Stranger","Top","m",733.467458,0.733467458,1
2,23,"Female","r","Hungarian",3,48,"EXPERIMENT","Self","Self","Matching","Self","Self","Individual_Self","Self","Top","m",816.832408,0.816832408,1
2,23,"Female","r","Hungarian",3,49,"EXPERIMENT","Self","Self","Matching","Self","Self","Individual_Self","Self","Top","m",850.171677,0.850171677,1
2,23,"Female","r","Hungarian",3,50,"EXPERIMENT","You","You","Matching","Stranger","You","Individual_Stranger","Stranger","Bottom","m",783.476953,0.783476953,1
2,23,"Female","r","Hungarian",3,51,"EXPERIMENT","We","Self","Nonmatching","Self","We","Group-Self","Self","Top","n",900.159458,0.900159458,1
2,23,"Female","r","Hungarian",3,52,"EXPERIMENT","We","We","Matching","Self","We","Group-Self","Self","Top","m",916.805602,0.916805602,1
2,23,"Female","r","Hungarian",3,53,"EXPERIMENT","They","They","Matching","Stranger","They","Group-Stranger","Stranger","Bottom","m",1083.337709,1.083337709,1
2,23,"Female","r","Hungarian",3,54,"EXPERIMENT","Self","They","Nonmatching","Stranger","Self","Individual_Self","Self","Bottom","n",1016.876309,1.016876309,1
2,23,"Female","r","Hungarian",3,55,"EXPERIMENT","Self","Self","Matching","Self","Self","Individual_Self","Self","Bottom","m",966.841153,0.966841153,1
2,23,"Female","r","Hungarian",3,56,"EXPERIMENT","You","They","Nonmatching","Stranger","You","Individual_Stranger","Stranger","Top","n",916.861268,0.916861268,1
2,23,"Female","r","Hungarian",3,57,"EXPERIMENT","You","Self","Nonmatching","Self","You","Individual_Stranger","Stranger","Bottom","n",966.834047,0.966834047,1
2,23,"Female","r","Hungarian",3,58,"EXPERIMENT","They","They","Matching","Stranger","They","Group-Stranger","Stranger","Bottom","m",766.812254,0.766812254,1
2,23,"Female","r","Hungarian",3,59,"EXPERIMENT","Self","You","Nonmatching","Stranger","Self","Individual_Self","Self","Top","n",1016.802483,1.016802483,1
2,23,"Female","r","Hungarian",3,60,"EXPERIMENT","We","They","Nonmatching","Stranger","We","Group-Self","Self","Bottom","n",900.172881,0.900172881,1
2,23,"Female","r","Hungarian",3,61,"EXPERIMENT","They","Self","Nonmatching","Self","They","Group-Stranger","Stranger","Top","n",1050.170966,1.050170966,1
2,23,"Female","r","Hungarian",3,62,"EXPERIMENT","You","They","Nonmatching","Stranger","You","Individual_Stranger","Stranger","Top","n",983.496772,0.983496772,1
2,23,"Female","r","Hungarian",3,63,"EXPERIMENT","They","You","Nonmatching","Stranger","They","Group-Stranger","Stranger","Top","n",850.191022,0.850191022,1
2,23,"Female","r","Hungarian",3,64,"EXPERIMENT","We","We","Matching","Self","We","Group-Self","Self","Top","m",933.595056,0.933595056,1
2,23,"Female","r","Hungarian",3,65,"EXPERIMENT","Self","Self","Matching","Self","Self","Individual_Self","Self","Bottom","m",900.152746,0.900152746,1
2,23,"Female","r","Hungarian",3,66,"EXPERIMENT","They","They","Matching","Stranger","They","Group-Stranger","Stranger","Top","m",933.474249,0.933474249,1
2,23,"Female","r","Hungarian",3,67,"EXPERIMENT","We","You","Nonmatching","Stranger","We","Group-Self","Self","Top","n",950.169347,0.950169347,1
2,23,"Female","r","Hungarian",3,68,"EXPERIMENT","We","Self","Nonmatching","Self","We","Group-Self","Self","Bottom","n",1116.834106,1.116834106,1
2,23,"Female","r","Hungarian",3,69,"EXPERIMENT","They","Self","Nonmatching","Self","They","Group-Stranger","Stranger","Bottom","n",1066.800529,1.066800529,1
2,23,"Female","r","Hungarian",3,70,"EXPERIMENT","We","You","Nonmatching","Stranger","We","Group-Self","Self","Bottom","n",916.834027,0.916834027,1
2,23,"Female","r","Hungarian",3,71,"EXPERIMENT","We","We","Matching","Self","We","Group-Self","Self","Bottom","m",933.507412,0.933507412,1
2,23,"Female","r","Hungarian",3,72,"EXPERIMENT","Self","They","Nonmatching","Stranger","Self","Individual_Self","Self","Top","n",900.17367,0.90017367,1
2,23,"Female","r","Hungarian",3,73,"EXPERIMENT","We","They","Nonmatching","Stranger","We","Group-Self","Self","Top","n",983.492824,0.983492824,1
2,23,"Female","r","Hungarian",3,74,"EXPERIMENT","Self","We","Nonmatching","Self","Self","Individual_Self","Self","Top","n",1249.929036,1.249929036,1
2,23,"Female","r","Hungarian",3,75,"EXPERIMENT","Self","Self","Matching","Self","Self","Individual_Self","Self","Bottom","m",733.521545,0.733521545,1
2,23,"Female","r","Hungarian",3,76,"EXPERIMENT","Self","Self","Matching","Self","Self","Individual_Self","Self","Top","m",950.103811,0.950103811,1
2,23,"Female","r","Hungarian",3,77,"EXPERIMENT","They","We","Nonmatching","Self","They","Group-Stranger","Stranger","Top","n",1066.78829,1.06678829,1
2,23,"Female","r","Hungarian",3,78,"EXPERIMENT","They","We","Nonmatching","Self","They","Group-Stranger","Stranger","Top","n",966.823387,0.966823387,1
2,23,"Female","r","Hungarian",3,79,"EXPERIMENT","Self","We","Nonmatching","Self","Self","Individual_Self","Self","Top","n",900.17367,0.90017367,1
2,23,"Female","r","Hungarian",3,80,"EXPERIMENT","They","They","Matching","Stranger","They","Group-Stranger","Stranger","Top","m",966.804832,0.966804832,1
2,23,"Female","r","Hungarian",3,81,"EXPERIMENT","You","We","Nonmatching","Self","You","Individual_Stranger","Stranger","Top","n",950.15395,0.95015395,1
2,23,"Female","r","Hungarian",3,82,"EXPERIMENT","They","We","Nonmatching","Self","They","Group-Stranger","Stranger","Bottom","n",1066.843166,1.066843166,1
2,23,"Female","r","Hungarian",3,83,"EXPERIMENT","Self","They","Nonmatching","Stranger","Self","Individual_Self","Self","Top","n",966.789435,0.966789435,1
2,23,"Female","r","Hungarian",3,84,"EXPERIMENT","Self","You","Nonmatching","Stranger","Self","Individual_Self","Self","Bottom","n",966.861288,0.966861288,1
2,23,"Female","r","Hungarian",3,85,"EXPERIMENT","You","You","Matching","Stranger","You","Individual_Stranger","Stranger","Bottom","m",666.844982,0.666844982,1
2,23,"Female","r","Hungarian",3,86,"EXPERIMENT","They","They","Matching","Stranger","They","Group-Stranger","Stranger","Top","m",1000.168578,1.000168578,1
2,23,"Female","r","Hungarian",3,87,"EXPERIMENT","They","Self","Nonmatching","Self","They","Group-Stranger","Stranger","Top","n",866.825716,0.866825716,1
2,23,"Female","r","Hungarian",3,88,"EXPERIMENT","You","They","Nonmatching","Stranger","You","Individual_Stranger","Stranger","Bottom","n",833.486843,0.833486843,1
2,23,"Female","r","Hungarian",3,89,"EXPERIMENT","Self","Self","Matching","Self","Self","Individual_Self","Self","Top","m",783.501431,0.783501431,1
2,23,"Female","r","Hungarian",3,90,"EXPERIMENT","We","They","Nonmatching","Stranger","We","Group-Self","Self","Bottom","n",816.803588,0.816803588,1
2,23,"Female","r","Hungarian",3,91,"EXPERIMENT","Self","You","Nonmatching","Stranger","Self","Individual_Self","Self","Bottom","n",900.169328,0.900169328,1
2,23,"Female","r","Hungarian",3,92,"EXPERIMENT","You","You","Matching","Stranger","You","Individual_Stranger","Stranger","Bottom","m",750.210327,0.750210327,1
2,23,"Female","r","Hungarian",3,93,"EXPERIMENT","We","We","Matching","Self","We","Group-Self","Self","Top","m",1116.818709,1.116818709,1
2,23,"Female","r","Hungarian",3,94,"EXPERIMENT","Self","We","Nonmatching","Self","Self","Individual_Self","Self","Bottom","n",933.465169,0.933465169,1
2,23,"Female","r","Hungarian",3,95,"EXPERIMENT","They","You","Nonmatching","Stranger","They","Group-Stranger","Stranger","Top","n",933.516492,0.933516492,1
2,23,"Female","r","Hungarian",3,96,"EXPERIMENT","They","We","Nonmatching","Self","They","Group-Stranger","Stranger","Bottom","n",1183.485007,1.183485007,1
3,24,"Female","r","Hungarian",1,1,"EXPERIMENT","Self","Self","Matching","Self","Self","Individual_Self","Self","Top","m",850.138119,0.850138119,0
3,24,"Female","r","Hungarian",1,2,"EXPERIMENT","You","You","Matching","Stranger","You","Individual_Stranger","Stranger","Bottom","n",766.831994,0.766831994,1
3,24,"Female","r","Hungarian",1,3,"EXPERIMENT","They","We","Nonmatching","Self","They","Group-Stranger","Stranger","Top","m",850.179573,0.850179573,1
3,24,"Female","r","Hungarian",1,4,"EXPERIMENT","We","They","Nonmatching","Stranger","We","Group-Self","Self","Top","m",850.147594,0.850147594,1
3,24,"Female","r","Hungarian",1,5,"EXPERIMENT","You","You","Matching","Stranger","You","Individual_Stranger","Stranger","Top","n",1033.516926,1.033516926,1
3,24,"Female","r","Hungarian",1,6,"EXPERIMENT","Self","Self","Matching","Self","Self","Individual_Self","Self","Top","n",583.512011,0.583512011,1
3,24,"Female","r","Hungarian",1,7,"EXPERIMENT","We","Self","Nonmatching","Self","We","Group-Self","Self","Top","m",566.85126,0.56685126,1
3,24,"Female","r","Hungarian",1,8,"EXPERIMENT","You","You","Matching","Stranger","You","Individual_Stranger","Stranger","Bottom","n",666.833139,0.666833139,1
3,24,"Female","r","Hungarian",1,9,"EXPERIMENT","We","We","Matching","Self","We","Group-Self","Self","Top","n",883.490021,0.883490021,1
3,24,"Female","r","Hungarian",1,10,"EXPERIMENT","We","They","Nonmatching","Stranger","We","Group-Self","Self","Bottom","m",683.535738,0.683535738,1
3,24,"Female","r","Hungarian",1,11,"EXPERIMENT","We","We","Matching","Self","We","Group-Self","Self","Top","n",633.492686,0.633492686,1
3,24,"Female","r","Hungarian",1,12,"EXPERIMENT","We","They","Nonmatching","Stranger","We","Group-Self","Self","Bottom","m",616.822459,0.616822459,1
3,24,"Female","r","Hungarian",1,13,"EXPERIMENT","They","Self","Nonmatching","Self","They","Group-Stranger","Stranger","Top","m",633.507688,0.633507688,1
3,24,"Female","r","Hungarian",1,14,"EXPERIMENT","You","You","Matching","Stranger","You","Individual_Stranger","Stranger","Bottom","n",666.855247,0.666855247,1
3,24,"Female","r","Hungarian",1,15,"EXPERIMENT","We","We","Matching","Self","We","Group-Self","Self","Bottom","n",650.18739,0.65018739,1
3,24,"Female","r","Hungarian",1,16,"EXPERIMENT","Self","We","Nonmatching","Self","Self","Individual_Self","Self","Bottom","m",583.556228,0.583556228,1
3,24,"Female","r","Hungarian",1,17,"EXPERIMENT","You","You","Matching","Stranger","You","Individual_Stranger","Stranger","Bottom","n",566.845338,0.566845338,1
3,24,"Female","r","Hungarian",1,18,"EXPERIMENT","You","Self","Nonmatching","Self","You","Individual_Stranger","Stranger","Top","m",600.175131,0.600175131,1
3,24,"Female","r","Hungarian",1,19,"EXPERIMENT","We","We","Matching","Self","We","Group-Self","Self","Top","n",766.783039,0.766783039,1
3,24,"Female","r","Hungarian",1,20,"EXPERIMENT","Self","Self","Matching","Self","Self","Individual_Self","Self","Top","n",900.192621,0.900192621,1
3,24,"Female","r","Hungarian",1,21,"EXPERIMENT","You","Self","Nonmatching","Self","You","Individual_Stranger","Stranger","Top","m",650.168439,0.650168439,1
3,24,"Female","r","Hungarian",1,22,"EXPERIMENT","You","We","Nonmatching","Self","You","Individual_Stranger","Stranger","Bottom","m",583.495824,0.583495824,1
3,24,"Female","r","Hungarian",1,23,"EXPERIMENT","We","We","Matching","Self","We","Group-Self","Self","Bottom","n",616.845358,0.616845358,1
3,24,"Female","r","Hungarian",1,24,"EXPERIMENT","You","You","Matching","Stranger","You","Individual_Stranger","Stranger","Top","n",566.843364,0.566843364,1
3,24,"Female","r","Hungarian",1,25,"EXPERIMENT","We","Self","Nonmatching","Self","We","Group-Self","Self","Bottom","n",616.852069,0.616852069,0
3,24,"Female","r","Hungarian",1,26,"EXPERIMENT","They","They","Matching","Stranger","They","Group-Stranger","Stranger","Top","n",833.464734,0.833464734,1
3,24,"Female","r","Hungarian",1,27,"EXPERIMENT","They","We","Nonmatching","Self","They","Group-Stranger","Stranger","Bottom","m",816.838725,0.816838725,1
3,24,"Female","r","Hungarian",1,28,"EXPERIMENT","They","You","Nonmatching","Stranger","They","Group-Stranger","Stranger","Bottom","m",650.134487,0.650134487,1
3,24,"Female","r","Hungarian",1,29,"EXPERIMENT","Self","You","Nonmatching","Stranger","Self","Individual_Self","Self","Top","m",700.14714,0.70014714,1
3,24,"Female","r","Hungarian",1,30,"EXPERIMENT","Self","They","Nonmatching","Stranger","Self","Individual_Self","Self","Bottom","m",883.468307,0.883468307,1
3,24,"Female","r","Hungarian",1,31,"EXPERIMENT","Self","We","Nonmatching","Self","Self","Individual_Self","Self","Top","m",850.150753,0.850150753,1
3,24,"Female","r","Hungarian",1,32,"EXPERIMENT","They","They","Matching","Stranger","They","Group-Stranger","Stranger","Bottom","n",850.166544,0.850166544,1
3,24,"Female","r","Hungarian",1,33,"EXPERIMENT","They","Self","Nonmatching","Self","They","Group-Stranger","Stranger","Top","m",600.175921,0.600175921,1
3,24,"Female","r","Hungarian",1,34,"EXPERIMENT","They","They","Matching","Stranger","They","Group-Stranger","Stranger","Top","n",716.841449,0.716841449,1
3,24,"Female","r","Hungarian",1,35,"EXPERIMENT","You","You","Matching","Stranger","You","Individual_Stranger","Stranger","Bottom","n",633.513215,0.633513215,1
3,24,"Female","r","Hungarian",1,36,"EXPERIMENT","They","They","Matching","Stranger","They","Group-Stranger","Stranger","Top","m",583.486349,0.583486349,0
3,24,"Female","r","Hungarian",1,37,"EXPERIMENT","You","They","Nonmatching","Stranger","You","Individual_Stranger","Stranger","Bottom","m",683.477309,0.683477309,1
3,24,"Female","r","Hungarian",1,38,"EXPERIMENT","You","We","Nonmatching","Self","You","Individual_Stranger","Stranger","Bottom","m",766.855287,0.766855287,1
3,24,"Female","r","Hungarian",1,39,"EXPERIMENT","Self","You","Nonmatching","Stranger","Self","Individual_Self","Self","Bottom","m",766.857261,0.766857261,1
3,24,"Female","r","Hungarian",1,40,"EXPERIMENT","We","You","Nonmatching","Stranger","We","Group-Self","Self","Bottom","m",683.528237,0.683528237,1
3,24,"Female","r","Hungarian",1,41,"EXPERIMENT","You","We","Nonmatching","Self","You","Individual_Stranger","Stranger","Top","m",700.173197,0.700173197,1
3,24,"Female","r","Hungarian",1,42,"EXPERIMENT","They","They","Matching","Stranger","They","Group-Stranger","Stranger","Top","n",600.149075,0.600149075,1
3,24,"Female","r","Hungarian",1,43,"EXPERIMENT","You","They","Nonmatching","Stranger","You","Individual_Stranger","Stranger","Top","m",649.967883,0.649967883,1
3,24,"Female","r","Hungarian",1,44,"EXPERIMENT","We","We","Matching","Self","We","Group-Self","Self","Top","n",566.857182,0.566857182,1
3,24,"Female","r","Hungarian",1,45,"EXPERIMENT","Self","They","Nonmatching","Stranger","Self","Individual_Self","Self","Top","m",733.527862,0.733527862,1
3,24,"Female","r","Hungarian",1,46,"EXPERIMENT","They","They","Matching","Stranger","They","Group-Stranger","Stranger","Top","n",683.482441,0.683482441,1
3,24,"Female","r","Hungarian",1,47,"EXPERIMENT","Self","They","Nonmatching","Stranger","Self","Individual_Self","Self","Bottom","m",600.239088,0.600239088,1
3,24,"Female","r","Hungarian",1,48,"EXPERIMENT","They","You","Nonmatching","Stranger","They","Group-Stranger","Stranger","Bottom","m",816.830829,0.816830829,1
3,24,"Female","r","Hungarian",1,49,"EXPERIMENT","We","We","Matching","Self","We","Group-Self","Self","Top","n",616.854438,0.616854438,1
3,24,"Female","r","Hungarian",1,50,"EXPERIMENT","You","You","Matching","Stranger","You","Individual_Stranger","Stranger","Top","m",583.506879,0.583506879,0
3,24,"Female","r","Hungarian",1,51,"EXPERIMENT","They","We","Nonmatching","Self","They","Group-Stranger","Stranger","Top","m",683.502575,0.683502575,1
3,24,"Female","r","Hungarian",1,52,"EXPERIMENT","You","Self","Nonmatching","Self","You","Individual_Stranger","Stranger","Bottom","n",750.17519,0.75017519,0
3,24,"Female","r","Hungarian",1,53,"EXPERIMENT","They","Self","Nonmatching","Self","They","Group-Stranger","Stranger","Bottom","m",700.168459,0.700168459,1
3,24,"Female","r","Hungarian",1,54,"EXPERIMENT","Self","Self","Matching","Self","Self","Individual_Self","Self","Bottom","n",616.836277,0.616836277,1
3,24,"Female","r","Hungarian",1,55,"EXPERIMENT","We","We","Matching","Self","We","Group-Self","Self","Bottom","n",583.478848,0.583478848,1
3,24,"Female","r","Hungarian",1,56,"EXPERIMENT","We","We","Matching","Self","We","Group-Self","Self","Bottom","n",416.838567,0.416838567,1
3,24,"Female","r","Hungarian",1,57,"EXPERIMENT","They","They","Matching","Stranger","They","Group-Stranger","Stranger","Bottom","n",633.5144,0.6335144,1
3,24,"Female","r","Hungarian",1,58,"EXPERIMENT","Self","We","Nonmatching","Self","Self","Individual_Self","Self","Top","m",700.125426,0.700125426,1
3,24,"Female","r","Hungarian",1,59,"EXPERIMENT","Self","Self","Matching","Self","Self","Individual_Self","Self","Bottom","n",666.91802,0.66691802,1
3,24,"Female","r","Hungarian",1,60,"EXPERIMENT","We","They","Nonmatching","Stranger","We","Group-Self","Self","Top","m",750.193746,0.750193746,1
3,24,"Female","r","Hungarian",1,61,"EXPERIMENT","You","You","Matching","Stranger","You","Individual_Stranger","Stranger","Top","n",783.577231,0.783577231,1
3,24,"Female","r","Hungarian",1,62,"EXPERIMENT","Self","We","Nonmatching","Self","Self","Individual_Self","Self","Bottom","n",716.82921,0.71682921,0
3,24,"Female","r","Hungarian",1,63,"EXPERIMENT","We","You","Nonmatching","Stranger","We","Group-Self","Self","Top","m",633.534139,0.633534139,1
3,24,"Female","r","Hungarian",1,64,"EXPERIMENT","You","You","Matching","Stranger","You","Individual_Stranger","Stranger","Top","n",883.495943,0.883495943,1
3,24,"Female","r","Hungarian",1,65,"EXPERIMENT","You","They","Nonmatching","Stranger","You","Individual_Stranger","Stranger","Top","m",733.529046,0.733529046,1
3,24,"Female","r","Hungarian",1,66,"EXPERIMENT","Self","They","Nonmatching","Stranger","Self","Individual_Self","Self","Top","m",800.176394,0.800176394,1
3,24,"Female","r","Hungarian",1,67,"EXPERIMENT","You","You","Matching","Stranger","You","Individual_Stranger","Stranger","Top","n",716.813024,0.716813024,1
3,24,"Female","r","Hungarian",1,68,"EXPERIMENT","They","They","Matching","Stranger","They","Group-Stranger","Stranger","Bottom","n",983.469136,0.983469136,1
3,24,"Female","r","Hungarian",1,69,"EXPERIMENT","Self","Self","Matching","Self","Self","Individual_Self","Self","Top","n",933.492409,0.933492409,1
3,24,"Female","r","Hungarian",1,70,"EXPERIMENT","We","We","Matching","Self","We","Group-Self","Self","Top","n",700.16767,0.70016767,1
3,24,"Female","r","Hungarian",1,71,"EXPERIMENT","We","You","Nonmatching","Stranger","We","Group-Self","Self","Bottom","m",866.834797,0.866834797,1
3,24,"Female","r","Hungarian",1,72,"EXPERIMENT","Self","Self","Matching","Self","Self","Individual_Self","Self","Bottom","n",566.847707,0.566847707,1
3,24,"Female","r","Hungarian",1,73,"EXPERIMENT","Self","You","Nonmatching","Stranger","Self","Individual_Self","Self","Bottom","m",566.835073,0.566835073,1
3,24,"Female","r","Hungarian",1,74,"EXPERIMENT","We","Self","Nonmatching","Self","We","Group-Self","Self","Top","m",783.497088,0.783497088,1
3,24,"Female","r","Hungarian",1,75,"EXPERIMENT","They","You","Nonmatching","Stranger","They","Group-Stranger","Stranger","Top","m",783.496298,0.783496298,1
3,24,"Female","r","Hungarian",1,76,"EXPERIMENT","They","We","Nonmatching","Self","They","Group-Stranger","Stranger","Bottom","m",600.172368,0.600172368,1
3,24,"Female","r","Hungarian",1,77,"EXPERIMENT","We","We","Matching","Self","We","Group-Self","Self","Bottom","n",616.848911,0.616848911,1
3,24,"Female","r","Hungarian",1,78,"EXPERIMENT","They","They","Matching","Stranger","They","Group-Stranger","Stranger","Bottom","n",583.491482,0.583491482,1
3,24,"Female","r","Hungarian",1,79,"EXPERIMENT","Self","Self","Matching","Self","Self","Individual_Self","Self","Bottom","n",550.175506,0.550175506,1
3,24,"Female","r","Hungarian",1,80,"EXPERIMENT","They","They","Matching","Stranger","They","Group-Stranger","Stranger","Bottom","n",550.18814,0.55018814,1
3,24,"Female","r","Hungarian",1,81,"EXPERIMENT","Self","Self","Matching","Self","Self","Individual_Self","Self","Top","n",650.203971,0.650203971,1
3,24,"Female","r","Hungarian",1,82,"EXPERIMENT","They","They","Matching","Stranger","They","Group-Stranger","Stranger","Top","n",666.871434,0.666871434,1
3,24,"Female","r","Hungarian",1,83,"EXPERIMENT","They","They","Matching","Stranger","They","Group-Stranger","Stranger","Bottom","n",650.183047,0.650183047,1
3,24,"Female","r","Hungarian",1,84,"EXPERIMENT","We","Self","Nonmatching","Self","We","Group-Self","Self","Bottom","m",683.477309,0.683477309,1
3,24,"Female","r","Hungarian",1,85,"EXPERIMENT","We","We","Matching","Self","We","Group-Self","Self","Bottom","n",666.824848,0.666824848,1
3,24,"Female","r","Hungarian",1,86,"EXPERIMENT","Self","Self","Matching","Self","Self","Individual_Self","Self","Top","n",600.185001,0.600185001,1
3,24,"Female","r","Hungarian",1,87,"EXPERIMENT","Self","Self","Matching","Self","Self","Individual_Self","Self","Bottom","n",467.014271,0.467014271,1
