"","Subject","Block","Trial","Gender","Age","Handedness","First_Language","Matching","Origin_Identity","Phase","Shape","Label","WeShape","SelfShape","TheyShape","AloneShape","ShapeLoc","Response","RT_sec","ACC","RT_ms","English_Identity","Standarlized_Identity"
"1",1,0,1,"Male",26,"r","Hungarian","Mismatch","You","TRAINING","Self","You","STAR","TRIANGLE","DIAMOND","CIRCLE","Top","None",NA,3,NA,"You","Stranger"
"2",1,0,2,"Male",26,"r","Hungarian","Mismatch","They","TRAINING","We","They","STAR","TRIANGLE","DIAMOND","CIRCLE","Bottom","m",1.650140804,1,1650.140804,"They","Group-Stranger"
"3",1,0,3,"Male",26,"r","Hungarian","Match","They","TRAINING","They","They","STAR","TRIANGLE","DIAMOND","CIRCLE","Top","m",1.333477565,0,1333.477565,"They","Group-Stranger"
"4",1,0,4,"Male",26,"r","Hungarian","Mismatch","We","TRAINING","Self","We","STAR","TRIANGLE","DIAMOND","CIRCLE","Bottom","m",1.699915001,1,1699.915001,"We","Group-Self"
"5",1,0,5,"Male",26,"r","Hungarian","Mismatch","Self","TRAINING","We","Self","STAR","TRIANGLE","DIAMOND","CIRCLE","Top","n",1.200134309,0,1200.134309,"Self","Self"
"6",1,0,6,"Male",26,"r","Hungarian","Match","We","TRAINING","We","We","STAR","TRIANGLE","DIAMOND","CIRCLE","Top","None",NA,3,NA,"We","Group-Self"
"7",1,0,7,"Male",26,"r","Hungarian","Match","They","TRAINING","They","They","STAR","TRIANGLE","DIAMOND","CIRCLE","Bottom","m",0.716864347,0,716.864347,"They","Group-Stranger"
"8",1,0,8,"Male",26,"r","Hungarian","Mismatch","You","TRAINING","We","You","STAR","TRIANGLE","DIAMOND","CIRCLE","Top","None",NA,3,NA,"You","Stranger"
"9",1,0,9,"Male",26,"r","Hungarian","Mismatch","We","TRAINING","They","We","STAR","TRIANGLE","DIAMOND","CIRCLE","Bottom","n",1.233468445,0,1233.468445,"We","Group-Self"
"10",1,0,10,"Male",26,"r","Hungarian","Match","You","TRAINING","You","You","STAR","TRIANGLE","DIAMOND","CIRCLE","Top","m",1.433474446,0,1433.474446,"You","Stranger"
"11",1,0,11,"Male",26,"r","Hungarian","Match","Self","TRAINING","Self","Self","STAR","TRIANGLE","DIAMOND","CIRCLE","Bottom","n",0.900188673,1,900.188673,"Self","Self"
"12",1,0,12,"Male",26,"r","Hungarian","Mismatch","Self","TRAINING","You","Self","STAR","TRIANGLE","DIAMOND","CIRCLE","Bottom","m",1.483527763,1,1483.527763,"Self","Self"
"13",1,0,13,"Male",26,"r","Hungarian","Mismatch","We","TRAINING","You","We","STAR","TRIANGLE","DIAMOND","CIRCLE","Top","m",1.516817682,1,1516.817682,"We","Group-Self"
"14",1,0,14,"Male",26,"r","Hungarian","Mismatch","You","TRAINING","They","You","STAR","TRIANGLE","DIAMOND","CIRCLE","Bottom","m",1.533448429,1,1533.448429,"You","Stranger"
"15",1,0,15,"Male",26,"r","Hungarian","Match","We","TRAINING","We","We","STAR","TRIANGLE","DIAMOND","CIRCLE","Bottom","n",1.383457056,1,1383.457056,"We","Group-Self"
"16",1,0,16,"Male",26,"r","Hungarian","Match","Self","TRAINING","Self","Self","STAR","TRIANGLE","DIAMOND","CIRCLE","Top","n",1.000216348,1,1000.216348,"Self","Self"
"17",1,0,17,"Male",26,"r","Hungarian","Match","You","TRAINING","You","You","STAR","TRIANGLE","DIAMOND","CIRCLE","Bottom","m",1.150138632,0,1150.138632,"You","Stranger"
"18",1,0,18,"Male",26,"r","Hungarian","Mismatch","They","TRAINING","Self","They","STAR","TRIANGLE","DIAMOND","CIRCLE","Top","m",1.700103713,1,1700.103713,"They","Group-Stranger"
"19",1,0,19,"Male",26,"r","Hungarian","Mismatch","Self","TRAINING","They","Self","STAR","TRIANGLE","DIAMOND","CIRCLE","Top","m",0.983438737,1,983.438737,"Self","Self"
"20",1,0,20,"Male",26,"r","Hungarian","Mismatch","They","TRAINING","You","They","STAR","TRIANGLE","DIAMOND","CIRCLE","Top","m",1.21680572,1,1216.80572,"They","Group-Stranger"
"21",1,1,1,"Male",26,"r","Hungarian","Mismatch","They","EXPERIMENT","Self","They","STAR","TRIANGLE","DIAMOND","CIRCLE","Bottom","m",1.166809254,1,1166.809254,"They","Group-Stranger"
"22",1,1,2,"Male",26,"r","Hungarian","Mismatch","We","EXPERIMENT","They","We","STAR","TRIANGLE","DIAMOND","CIRCLE","Top","m",1.650156596,1,1650.156596,"We","Group-Self"
"23",1,1,3,"Male",26,"r","Hungarian","Mismatch","They","EXPERIMENT","We","They","STAR","TRIANGLE","DIAMOND","CIRCLE","Top","m",1.33345822,1,1333.45822,"They","Group-Stranger"
"24",1,1,4,"Male",26,"r","Hungarian","Match","They","EXPERIMENT","They","They","STAR","TRIANGLE","DIAMOND","CIRCLE","Top","n",1.600170788,1,1600.170788,"They","Group-Stranger"
"25",1,1,5,"Male",26,"r","Hungarian","Match","We","EXPERIMENT","We","We","STAR","TRIANGLE","DIAMOND","CIRCLE","Top","n",1.316803391,1,1316.803391,"We","Group-Self"
"26",1,1,6,"Male",26,"r","Hungarian","Match","Self","EXPERIMENT","Self","Self","STAR","TRIANGLE","DIAMOND","CIRCLE","Bottom","n",0.783448923,1,783.448923,"Self","Self"
"27",1,1,7,"Male",26,"r","Hungarian","Match","Self","EXPERIMENT","Self","Self","STAR","TRIANGLE","DIAMOND","CIRCLE","Top","n",1.200329733,1,1200.329733,"Self","Self"
"28",1,1,8,"Male",26,"r","Hungarian","Mismatch","We","EXPERIMENT","You","We","STAR","TRIANGLE","DIAMOND","CIRCLE","Bottom","m",1.416847647,1,1416.847647,"We","Group-Self"
"29",1,1,9,"Male",26,"r","Hungarian","Match","Self","EXPERIMENT","Self","Self","STAR","TRIANGLE","DIAMOND","CIRCLE","Top","n",0.933523993,1,933.523993,"Self","Self"
"30",1,1,10,"Male",26,"r","Hungarian","Match","You","EXPERIMENT","You","You","STAR","TRIANGLE","DIAMOND","CIRCLE","Top","m",1.400156497,0,1400.156497,"You","Stranger"
"31",1,1,11,"Male",26,"r","Hungarian","Match","We","EXPERIMENT","We","We","STAR","TRIANGLE","DIAMOND","CIRCLE","Top","n",1.000142521,1,1000.142521,"We","Group-Self"
"32",1,1,12,"Male",26,"r","Hungarian","Mismatch","We","EXPERIMENT","They","We","STAR","TRIANGLE","DIAMOND","CIRCLE","Top","m",1.25016157,1,1250.16157,"We","Group-Self"
"33",1,1,13,"Male",26,"r","Hungarian","Match","Self","EXPERIMENT","Self","Self","STAR","TRIANGLE","DIAMOND","CIRCLE","Bottom","n",0.700116741,1,700.116741,"Self","Self"
"34",1,1,14,"Male",26,"r","Hungarian","Mismatch","They","EXPERIMENT","Self","They","STAR","TRIANGLE","DIAMOND","CIRCLE","Top","m",0.933531889,1,933.531889,"They","Group-Stranger"
"35",1,1,15,"Male",26,"r","Hungarian","Match","You","EXPERIMENT","You","You","STAR","TRIANGLE","DIAMOND","CIRCLE","Bottom","n",1.316752857,1,1316.752857,"You","Stranger"
"36",1,1,16,"Male",26,"r","Hungarian","Match","We","EXPERIMENT","We","We","STAR","TRIANGLE","DIAMOND","CIRCLE","Bottom","n",0.966780749,1,966.780749,"We","Group-Self"
"37",1,1,17,"Male",26,"r","Hungarian","Mismatch","Self","EXPERIMENT","You","Self","STAR","TRIANGLE","DIAMOND","CIRCLE","Top","m",0.98350072,1,983.50072,"Self","Self"
"38",1,1,18,"Male",26,"r","Hungarian","Mismatch","They","EXPERIMENT","You","They","STAR","TRIANGLE","DIAMOND","CIRCLE","Bottom","m",1.150154424,1,1150.154424,"They","Group-Stranger"
"39",1,1,19,"Male",26,"r","Hungarian","Match","We","EXPERIMENT","We","We","STAR","TRIANGLE","DIAMOND","CIRCLE","Top","n",1.033511399,1,1033.511399,"We","Group-Self"
"40",1,1,20,"Male",26,"r","Hungarian","Mismatch","Self","EXPERIMENT","You","Self","STAR","TRIANGLE","DIAMOND","CIRCLE","Top","m",0.916826526,1,916.826526,"Self","Self"
"41",1,1,21,"Male",26,"r","Hungarian","Match","We","EXPERIMENT","We","We","STAR","TRIANGLE","DIAMOND","CIRCLE","Top","n",0.966849049,1,966.849049,"We","Group-Self"
"42",1,1,22,"Male",26,"r","Hungarian","Match","They","EXPERIMENT","They","They","STAR","TRIANGLE","DIAMOND","CIRCLE","Top","n",1.200137468,1,1200.137468,"They","Group-Stranger"
"43",1,1,23,"Male",26,"r","Hungarian","Mismatch","We","EXPERIMENT","Self","We","STAR","TRIANGLE","DIAMOND","CIRCLE","Top","m",1.166744112,1,1166.744112,"We","Group-Self"
"44",1,1,24,"Male",26,"r","Hungarian","Mismatch","Self","EXPERIMENT","We","Self","STAR","TRIANGLE","DIAMOND","CIRCLE","Bottom","m",1.316875638,1,1316.875638,"Self","Self"
"45",1,1,25,"Male",26,"r","Hungarian","Match","You","EXPERIMENT","You","You","STAR","TRIANGLE","DIAMOND","CIRCLE","Bottom","n",1.166801358,1,1166.801358,"You","Stranger"
"46",1,1,26,"Male",26,"r","Hungarian","Mismatch","We","EXPERIMENT","You","We","STAR","TRIANGLE","DIAMOND","CIRCLE","Top","m",0.900133796,1,900.133796,"We","Group-Self"
"47",1,1,27,"Male",26,"r","Hungarian","Mismatch","Self","EXPERIMENT","They","Self","STAR","TRIANGLE","DIAMOND","CIRCLE","Top","m",0.96682773,1,966.82773,"Self","Self"
"48",1,1,28,"Male",26,"r","Hungarian","Match","Self","EXPERIMENT","Self","Self","STAR","TRIANGLE","DIAMOND","CIRCLE","Bottom","n",0.900142087,1,900.142087,"Self","Self"
"49",1,1,29,"Male",26,"r","Hungarian","Mismatch","Self","EXPERIMENT","We","Self","STAR","TRIANGLE","DIAMOND","CIRCLE","Bottom","m",1.133492488,1,1133.492488,"Self","Self"
"50",1,1,30,"Male",26,"r","Hungarian","Mismatch","We","EXPERIMENT","You","We","STAR","TRIANGLE","DIAMOND","CIRCLE","Top","m",1.533465011,1,1533.465011,"We","Group-Self"
"51",1,1,31,"Male",26,"r","Hungarian","Match","You","EXPERIMENT","You","You","STAR","TRIANGLE","DIAMOND","CIRCLE","Bottom","n",1.266816794,1,1266.816794,"You","Stranger"
"52",1,1,32,"Male",26,"r","Hungarian","Match","Self","EXPERIMENT","Self","Self","STAR","TRIANGLE","DIAMOND","CIRCLE","Bottom","n",0.916817446,1,916.817446,"Self","Self"
"53",1,1,33,"Male",26,"r","Hungarian","Mismatch","They","EXPERIMENT","We","They","STAR","TRIANGLE","DIAMOND","CIRCLE","Top","m",1.350134763,1,1350.134763,"They","Group-Stranger"
"54",1,1,34,"Male",26,"r","Hungarian","Match","We","EXPERIMENT","We","We","STAR","TRIANGLE","DIAMOND","CIRCLE","Bottom","n",0.933543733,1,933.543733,"We","Group-Self"
"55",1,1,35,"Male",26,"r","Hungarian","Match","They","EXPERIMENT","They","They","STAR","TRIANGLE","DIAMOND","CIRCLE","Top","n",1.100011883,1,1100.011883,"They","Group-Stranger"
"56",1,1,36,"Male",26,"r","Hungarian","Mismatch","They","EXPERIMENT","You","They","STAR","TRIANGLE","DIAMOND","CIRCLE","Top","m",0.96679891,1,966.79891,"They","Group-Stranger"
"57",1,1,37,"Male",26,"r","Hungarian","Mismatch","We","EXPERIMENT","You","We","STAR","TRIANGLE","DIAMOND","CIRCLE","Bottom","m",0.96680799,1,966.80799,"We","Group-Self"
"58",1,1,38,"Male",26,"r","Hungarian","Mismatch","We","EXPERIMENT","Self","We","STAR","TRIANGLE","DIAMOND","CIRCLE","Bottom","m",0.933469906,1,933.469906,"We","Group-Self"
"59",1,1,39,"Male",26,"r","Hungarian","Match","You","EXPERIMENT","You","You","STAR","TRIANGLE","DIAMOND","CIRCLE","Top","n",1.066810004,1,1066.810004,"You","Stranger"
"60",1,1,40,"Male",26,"r","Hungarian","Mismatch","We","EXPERIMENT","They","We","STAR","TRIANGLE","DIAMOND","CIRCLE","Bottom","m",1.10014335,1,1100.14335,"We","Group-Self"
"61",1,1,41,"Male",26,"r","Hungarian","Mismatch","You","EXPERIMENT","They","You","STAR","TRIANGLE","DIAMOND","CIRCLE","Top","m",1.050163465,1,1050.163465,"You","Stranger"
"62",1,1,42,"Male",26,"r","Hungarian","Mismatch","They","EXPERIMENT","We","They","STAR","TRIANGLE","DIAMOND","CIRCLE","Bottom","m",1.050170176,1,1050.170176,"They","Group-Stranger"
"63",1,1,43,"Male",26,"r","Hungarian","Match","We","EXPERIMENT","We","We","STAR","TRIANGLE","DIAMOND","CIRCLE","Bottom","n",0.900130243,1,900.130243,"We","Group-Self"
"64",1,1,44,"Male",26,"r","Hungarian","Match","Self","EXPERIMENT","Self","Self","STAR","TRIANGLE","DIAMOND","CIRCLE","Top","n",0.750185455,1,750.185455,"Self","Self"
"65",1,1,45,"Male",26,"r","Hungarian","Match","We","EXPERIMENT","We","We","STAR","TRIANGLE","DIAMOND","CIRCLE","Bottom","n",0.7835796,1,783.5796,"We","Group-Self"
"66",1,1,46,"Male",26,"r","Hungarian","Match","We","EXPERIMENT","We","We","STAR","TRIANGLE","DIAMOND","CIRCLE","Top","n",0.66684972,1,666.84972,"We","Group-Self"
"67",1,1,47,"Male",26,"r","Hungarian","Match","You","EXPERIMENT","You","You","STAR","TRIANGLE","DIAMOND","CIRCLE","Bottom","n",1.100189146,1,1100.189146,"You","Stranger"
"68",1,1,48,"Male",26,"r","Hungarian","Mismatch","They","EXPERIMENT","We","They","STAR","TRIANGLE","DIAMOND","CIRCLE","Bottom","m",1.016845121,1,1016.845121,"They","Group-Stranger"
"69",1,1,49,"Male",26,"r","Hungarian","Mismatch","You","EXPERIMENT","Self","You","STAR","TRIANGLE","DIAMOND","CIRCLE","Bottom","m",1.200156813,1,1200.156813,"You","Stranger"
"70",1,1,50,"Male",26,"r","Hungarian","Match","They","EXPERIMENT","They","They","STAR","TRIANGLE","DIAMOND","CIRCLE","Bottom","n",1.016832092,1,1016.832092,"They","Group-Stranger"
"71",1,1,51,"Male",26,"r","Hungarian","Match","You","EXPERIMENT","You","You","STAR","TRIANGLE","DIAMOND","CIRCLE","Top","n",1.066820663,1,1066.820663,"You","Stranger"
"72",1,1,52,"Male",26,"r","Hungarian","Mismatch","You","EXPERIMENT","We","You","STAR","TRIANGLE","DIAMOND","CIRCLE","Top","n",1.266806924,0,1266.806924,"You","Stranger"
"73",1,1,53,"Male",26,"r","Hungarian","Mismatch","You","EXPERIMENT","They","You","STAR","TRIANGLE","DIAMOND","CIRCLE","Bottom","m",0.850192206,1,850.192206,"You","Stranger"
"74",1,1,54,"Male",26,"r","Hungarian","Mismatch","Self","EXPERIMENT","They","Self","STAR","TRIANGLE","DIAMOND","CIRCLE","Top","m",1.016796166,1,1016.796166,"Self","Self"
"75",1,1,55,"Male",26,"r","Hungarian","Match","They","EXPERIMENT","They","They","STAR","TRIANGLE","DIAMOND","CIRCLE","Top","n",1.016804062,1,1016.804062,"They","Group-Stranger"
"76",1,1,56,"Male",26,"r","Hungarian","Match","Self","EXPERIMENT","Self","Self","STAR","TRIANGLE","DIAMOND","CIRCLE","Top","n",0.666796817,1,666.796817,"Self","Self"
"77",1,1,57,"Male",26,"r","Hungarian","Mismatch","We","EXPERIMENT","Self","We","STAR","TRIANGLE","DIAMOND","CIRCLE","Bottom","m",1.033497976,1,1033.497976,"We","Group-Self"
"78",1,1,58,"Male",26,"r","Hungarian","Mismatch","Self","EXPERIMENT","We","Self","STAR","TRIANGLE","DIAMOND","CIRCLE","Top","m",1.283501628,1,1283.501628,"Self","Self"
"79",1,1,59,"Male",26,"r","Hungarian","Mismatch","We","EXPERIMENT","Self","We","STAR","TRIANGLE","DIAMOND","CIRCLE","Top","m",1.183496061,1,1183.496061,"We","Group-Self"
"80",1,1,60,"Male",26,"r","Hungarian","Mismatch","You","EXPERIMENT","We","You","STAR","TRIANGLE","DIAMOND","CIRCLE","Bottom","m",1.166818729,1,1166.818729,"You","Stranger"
"81",1,1,61,"Male",26,"r","Hungarian","Match","You","EXPERIMENT","You","You","STAR","TRIANGLE","DIAMOND","CIRCLE","Bottom","n",0.883503049,1,883.503049,"You","Stranger"
"82",1,1,62,"Male",26,"r","Hungarian","Mismatch","You","EXPERIMENT","They","You","STAR","TRIANGLE","DIAMOND","CIRCLE","Top","m",0.966845496,1,966.845496,"You","Stranger"
"83",1,1,63,"Male",26,"r","Hungarian","Match","We","EXPERIMENT","We","We","STAR","TRIANGLE","DIAMOND","CIRCLE","Top","n",0.800170867,1,800.170867,"We","Group-Self"
"84",1,1,64,"Male",26,"r","Hungarian","Mismatch","They","EXPERIMENT","You","They","STAR","TRIANGLE","DIAMOND","CIRCLE","Top","m",0.966861288,1,966.861288,"They","Group-Stranger"
"85",1,1,65,"Male",26,"r","Hungarian","Match","They","EXPERIMENT","They","They","STAR","TRIANGLE","DIAMOND","CIRCLE","Top","n",0.983447028,1,983.447028,"They","Group-Stranger"
"86",1,1,66,"Male",26,"r","Hungarian","Mismatch","Self","EXPERIMENT","We","Self","STAR","TRIANGLE","DIAMOND","CIRCLE","Top","m",1.266868512,1,1266.868512,"Self","Self"
"87",1,1,67,"Male",26,"r","Hungarian","Mismatch","You","EXPERIMENT","Self","You","STAR","TRIANGLE","DIAMOND","CIRCLE","Top","m",1.05013425,1,1050.13425,"You","Stranger"
"88",1,1,68,"Male",26,"r","Hungarian","Mismatch","You","EXPERIMENT","Self","You","STAR","TRIANGLE","DIAMOND","CIRCLE","Bottom","m",1.016847884,1,1016.847884,"You","Stranger"
"89",1,1,69,"Male",26,"r","Hungarian","Mismatch","They","EXPERIMENT","You","They","STAR","TRIANGLE","DIAMOND","CIRCLE","Bottom","m",1.050182415,1,1050.182415,"They","Group-Stranger"
"90",1,1,70,"Male",26,"r","Hungarian","Mismatch","You","EXPERIMENT","We","You","STAR","TRIANGLE","DIAMOND","CIRCLE","Bottom","m",0.950172111,1,950.172111,"You","Stranger"
"91",1,1,71,"Male",26,"r","Hungarian","Match","You","EXPERIMENT","You","You","STAR","TRIANGLE","DIAMOND","CIRCLE","Top","n",1.033492449,1,1033.492449,"You","Stranger"
"92",1,1,72,"Male",26,"r","Hungarian","Match","We","EXPERIMENT","We","We","STAR","TRIANGLE","DIAMOND","CIRCLE","Bottom","n",0.750125446,1,750.125446,"We","Group-Self"
"93",1,1,73,"Male",26,"r","Hungarian","Mismatch","You","EXPERIMENT","They","You","STAR","TRIANGLE","DIAMOND","CIRCLE","Bottom","m",0.850114037,1,850.114037,"You","Stranger"
"94",1,1,74,"Male",26,"r","Hungarian","Mismatch","Self","EXPERIMENT","You","Self","STAR","TRIANGLE","DIAMOND","CIRCLE","Bottom","m",0.800165735,1,800.165735,"Self","Self"
"95",1,1,75,"Male",26,"r","Hungarian","Mismatch","They","EXPERIMENT","Self","They","STAR","TRIANGLE","DIAMOND","CIRCLE","Bottom","m",0.833485658,1,833.485658,"They","Group-Stranger"
"96",1,1,76,"Male",26,"r","Hungarian","Match","You","EXPERIMENT","You","You","STAR","TRIANGLE","DIAMOND","CIRCLE","Bottom","n",1.283453858,1,1283.453858,"You","Stranger"
"97",1,1,77,"Male",26,"r","Hungarian","Mismatch","Self","EXPERIMENT","They","Self","STAR","TRIANGLE","DIAMOND","CIRCLE","Bottom","m",1.100151246,1,1100.151246,"Self","Self"
"98",1,1,78,"Male",26,"r","Hungarian","Mismatch","You","EXPERIMENT","We","You","STAR","TRIANGLE","DIAMOND","CIRCLE","Top","m",0.866854537,1,866.854537,"You","Stranger"
"99",1,1,79,"Male",26,"r","Hungarian","Match","They","EXPERIMENT","They","They","STAR","TRIANGLE","DIAMOND","CIRCLE","Bottom","n",0.816818985,1,816.818985,"They","Group-Stranger"
"100",1,1,80,"Male",26,"r","Hungarian","Mismatch","Self","EXPERIMENT","You","Self","STAR","TRIANGLE","DIAMOND","CIRCLE","Bottom","m",0.81685807,1,816.85807,"Self","Self"
"101",1,1,81,"Male",26,"r","Hungarian","Mismatch","They","EXPERIMENT","Self","They","STAR","TRIANGLE","DIAMOND","CIRCLE","Top","m",0.833507767,1,833.507767,"They","Group-Stranger"
"102",1,1,82,"Male",26,"r","Hungarian","Match","They","EXPERIMENT","They","They","STAR","TRIANGLE","DIAMOND","CIRCLE","Top","m",0.750153082,0,750.153082,"They","Group-Stranger"
"103",1,1,83,"Male",26,"r","Hungarian","Match","Self","EXPERIMENT","Self","Self","STAR","TRIANGLE","DIAMOND","CIRCLE","Top","n",0.833517637,1,833.517637,"Self","Self"
"104",1,1,84,"Male",26,"r","Hungarian","Match","They","EXPERIMENT","They","They","STAR","TRIANGLE","DIAMOND","CIRCLE","Bottom","n",0.800168499,1,800.168499,"They","Group-Stranger"
"105",1,1,85,"Male",26,"r","Hungarian","Match","Self","EXPERIMENT","Self","Self","STAR","TRIANGLE","DIAMOND","CIRCLE","Bottom","n",0.733489172,1,733.489172,"Self","Self"
"106",1,1,86,"Male",26,"r","Hungarian","Match","You","EXPERIMENT","You","You","STAR","TRIANGLE","DIAMOND","CIRCLE","Top","n",0.866829664,1,866.829664,"You","Stranger"
"107",1,1,87,"Male",26,"r","Hungarian","Match","They","EXPERIMENT","They","They","STAR","TRIANGLE","DIAMOND","CIRCLE","Bottom","n",0.766866736,1,766.866736,"They","Group-Stranger"
"108",1,1,88,"Male",26,"r","Hungarian","Mismatch","Self","EXPERIMENT","They","Self","STAR","TRIANGLE","DIAMOND","CIRCLE","Bottom","m",1.083475098,1,1083.475098,"Self","Self"
"109",1,1,89,"Male",26,"r","Hungarian","Match","They","EXPERIMENT","They","They","STAR","TRIANGLE","DIAMOND","CIRCLE","Bottom","n",0.75015624,1,750.15624,"They","Group-Stranger"
"110",1,1,90,"Male",26,"r","Hungarian","Match","They","EXPERIMENT","They","They","STAR","TRIANGLE","DIAMOND","CIRCLE","Bottom","n",0.533549892,1,533.549892,"They","Group-Stranger"
"111",1,1,91,"Male",26,"r","Hungarian","Mismatch","You","EXPERIMENT","Self","You","STAR","TRIANGLE","DIAMOND","CIRCLE","Top","m",1.016830513,1,1016.830513,"You","Stranger"
"112",1,1,92,"Male",26,"r","Hungarian","Match","We","EXPERIMENT","We","We","STAR","TRIANGLE","DIAMOND","CIRCLE","Bottom","n",0.700160563,1,700.160563,"We","Group-Self"
"113",1,1,93,"Male",26,"r","Hungarian","Match","You","EXPERIMENT","You","You","STAR","TRIANGLE","DIAMOND","CIRCLE","Top","n",0.850147989,1,850.147989,"You","Stranger"
"114",1,1,94,"Male",26,"r","Hungarian","Mismatch","We","EXPERIMENT","They","We","STAR","TRIANGLE","DIAMOND","CIRCLE","Bottom","m",0.950161057,1,950.161057,"We","Group-Self"
"115",1,1,95,"Male",26,"r","Hungarian","Match","Self","EXPERIMENT","Self","Self","STAR","TRIANGLE","DIAMOND","CIRCLE","Top","n",0.833500661,1,833.500661,"Self","Self"
"116",1,1,96,"Male",26,"r","Hungarian","Match","Self","EXPERIMENT","Self","Self","STAR","TRIANGLE","DIAMOND","CIRCLE","Bottom","n",0.716831184,1,716.831184,"Self","Self"
"117",1,2,1,"Male",26,"r","Hungarian","Mismatch","They","EXPERIMENT","We","They","STAR","TRIANGLE","DIAMOND","CIRCLE","Bottom","m",1.066833691,1,1066.833691,"They","Group-Stranger"
"118",1,2,2,"Male",26,"r","Hungarian","Mismatch","You","EXPERIMENT","We","You","STAR","TRIANGLE","DIAMOND","CIRCLE","Top","m",0.950176059,1,950.176059,"You","Stranger"
"119",1,2,3,"Male",26,"r","Hungarian","Mismatch","Self","EXPERIMENT","They","Self","STAR","TRIANGLE","DIAMOND","CIRCLE","Top","n",0.516841765,0,516.841765,"Self","Self"
"120",1,2,4,"Male",26,"r","Hungarian","Mismatch","We","EXPERIMENT","You","We","STAR","TRIANGLE","DIAMOND","CIRCLE","Bottom","m",0.983496772,1,983.496772,"We","Group-Self"
"121",1,2,5,"Male",26,"r","Hungarian","Mismatch","We","EXPERIMENT","They","We","STAR","TRIANGLE","DIAMOND","CIRCLE","Bottom","m",1.20013273,1,1200.13273,"We","Group-Self"
"122",1,2,6,"Male",26,"r","Hungarian","Mismatch","You","EXPERIMENT","Self","You","STAR","TRIANGLE","DIAMOND","CIRCLE","Bottom","m",1.400185317,1,1400.185317,"You","Stranger"
"123",1,2,7,"Male",26,"r","Hungarian","Mismatch","They","EXPERIMENT","Self","They","STAR","TRIANGLE","DIAMOND","CIRCLE","Bottom","m",0.750198878,1,750.198878,"They","Group-Stranger"
"124",1,2,8,"Male",26,"r","Hungarian","Match","They","EXPERIMENT","They","They","STAR","TRIANGLE","DIAMOND","CIRCLE","Top","n",0.783526697,1,783.526697,"They","Group-Stranger"
"125",1,2,9,"Male",26,"r","Hungarian","Match","You","EXPERIMENT","You","You","STAR","TRIANGLE","DIAMOND","CIRCLE","Top","n",0.866798081,1,866.798081,"You","Stranger"
"126",1,2,10,"Male",26,"r","Hungarian","Match","Self","EXPERIMENT","Self","Self","STAR","TRIANGLE","DIAMOND","CIRCLE","Top","n",0.750159793,1,750.159793,"Self","Self"
"127",1,2,11,"Male",26,"r","Hungarian","Mismatch","They","EXPERIMENT","We","They","STAR","TRIANGLE","DIAMOND","CIRCLE","Bottom","m",1.05017373,1,1050.17373,"They","Group-Stranger"
"128",1,2,12,"Male",26,"r","Hungarian","Match","We","EXPERIMENT","We","We","STAR","TRIANGLE","DIAMOND","CIRCLE","Top","n",0.750177954,1,750.177954,"We","Group-Self"
"129",1,2,13,"Male",26,"r","Hungarian","Match","They","EXPERIMENT","They","They","STAR","TRIANGLE","DIAMOND","CIRCLE","Bottom","n",0.833500266,1,833.500266,"They","Group-Stranger"
"130",1,2,14,"Male",26,"r","Hungarian","Match","We","EXPERIMENT","We","We","STAR","TRIANGLE","DIAMOND","CIRCLE","Top","n",0.733494699,1,733.494699,"We","Group-Self"
"131",1,2,15,"Male",26,"r","Hungarian","Mismatch","You","EXPERIMENT","They","You","STAR","TRIANGLE","DIAMOND","CIRCLE","Bottom","m",0.750191772,1,750.191772,"You","Stranger"
"132",1,2,16,"Male",26,"r","Hungarian","Mismatch","We","EXPERIMENT","Self","We","STAR","TRIANGLE","DIAMOND","CIRCLE","Top","m",1.016801693,1,1016.801693,"We","Group-Self"
"133",1,2,17,"Male",26,"r","Hungarian","Match","They","EXPERIMENT","They","They","STAR","TRIANGLE","DIAMOND","CIRCLE","Bottom","n",0.900178408,1,900.178408,"They","Group-Stranger"
"134",1,2,18,"Male",26,"r","Hungarian","Mismatch","Self","EXPERIMENT","We","Self","STAR","TRIANGLE","DIAMOND","CIRCLE","Bottom","m",1.233478315,1,1233.478315,"Self","Self"
"135",1,2,19,"Male",26,"r","Hungarian","Match","We","EXPERIMENT","We","We","STAR","TRIANGLE","DIAMOND","CIRCLE","Bottom","n",0.800162971,1,800.162971,"We","Group-Self"
"136",1,2,20,"Male",26,"r","Hungarian","Mismatch","We","EXPERIMENT","They","We","STAR","TRIANGLE","DIAMOND","CIRCLE","Bottom","m",0.916805602,1,916.805602,"We","Group-Self"
"137",1,2,21,"Male",26,"r","Hungarian","Mismatch","They","EXPERIMENT","You","They","STAR","TRIANGLE","DIAMOND","CIRCLE","Top","m",0.716853293,1,716.853293,"They","Group-Stranger"
"138",1,2,22,"Male",26,"r","Hungarian","Match","You","EXPERIMENT","You","You","STAR","TRIANGLE","DIAMOND","CIRCLE","Bottom","n",0.800138099,1,800.138099,"You","Stranger"
"139",1,2,23,"Male",26,"r","Hungarian","Match","They","EXPERIMENT","They","They","STAR","TRIANGLE","DIAMOND","CIRCLE","Bottom","n",0.816870703,1,816.870703,"They","Group-Stranger"
"140",1,2,24,"Male",26,"r","Hungarian","Mismatch","They","EXPERIMENT","Self","They","STAR","TRIANGLE","DIAMOND","CIRCLE","Top","m",0.816837935,1,816.837935,"They","Group-Stranger"
"141",1,2,25,"Male",26,"r","Hungarian","Mismatch","We","EXPERIMENT","Self","We","STAR","TRIANGLE","DIAMOND","CIRCLE","Bottom","m",1.000207267,1,1000.207267,"We","Group-Self"
"142",1,2,26,"Male",26,"r","Hungarian","Match","We","EXPERIMENT","We","We","STAR","TRIANGLE","DIAMOND","CIRCLE","Top","n",0.666824848,1,666.824848,"We","Group-Self"
"143",1,2,27,"Male",26,"r","Hungarian","Match","You","EXPERIMENT","You","You","STAR","TRIANGLE","DIAMOND","CIRCLE","Bottom","n",1.000160287,1,1000.160287,"You","Stranger"
"144",1,2,28,"Male",26,"r","Hungarian","Match","We","EXPERIMENT","We","We","STAR","TRIANGLE","DIAMOND","CIRCLE","Bottom","n",0.616846542,1,616.846542,"We","Group-Self"
"145",1,2,29,"Male",26,"r","Hungarian","Mismatch","Self","EXPERIMENT","We","Self","STAR","TRIANGLE","DIAMOND","CIRCLE","Top","m",0.966869973,1,966.869973,"Self","Self"
"146",1,2,30,"Male",26,"r","Hungarian","Mismatch","Self","EXPERIMENT","You","Self","STAR","TRIANGLE","DIAMOND","CIRCLE","Bottom","m",0.966802858,1,966.802858,"Self","Self"
"147",1,2,31,"Male",26,"r","Hungarian","Match","You","EXPERIMENT","You","You","STAR","TRIANGLE","DIAMOND","CIRCLE","Top","n",0.900226968,1,900.226968,"You","Stranger"
"148",1,2,32,"Male",26,"r","Hungarian","Mismatch","You","EXPERIMENT","Self","You","STAR","TRIANGLE","DIAMOND","CIRCLE","Top","m",0.883464359,1,883.464359,"You","Stranger"
"149",1,2,33,"Male",26,"r","Hungarian","Match","They","EXPERIMENT","They","They","STAR","TRIANGLE","DIAMOND","CIRCLE","Top","n",0.916815077,1,916.815077,"They","Group-Stranger"
"150",1,2,34,"Male",26,"r","Hungarian","Mismatch","They","EXPERIMENT","You","They","STAR","TRIANGLE","DIAMOND","CIRCLE","Bottom","m",1.016834856,1,1016.834856,"They","Group-Stranger"
"151",1,2,35,"Male",26,"r","Hungarian","Mismatch","You","EXPERIMENT","They","You","STAR","TRIANGLE","DIAMOND","CIRCLE","Bottom","m",0.766838705,1,766.838705,"You","Stranger"
"152",1,2,36,"Male",26,"r","Hungarian","Match","Self","EXPERIMENT","Self","Self","STAR","TRIANGLE","DIAMOND","CIRCLE","Bottom","n",0.683526263,1,683.526263,"Self","Self"
"153",1,2,37,"Male",26,"r","Hungarian","Mismatch","Self","EXPERIMENT","You","Self","STAR","TRIANGLE","DIAMOND","CIRCLE","Top","m",0.800181132,1,800.181132,"Self","Self"
"154",1,2,38,"Male",26,"r","Hungarian","Match","You","EXPERIMENT","You","You","STAR","TRIANGLE","DIAMOND","CIRCLE","Top","n",1.066838824,1,1066.838824,"You","Stranger"
"155",1,2,39,"Male",26,"r","Hungarian","Match","Self","EXPERIMENT","Self","Self","STAR","TRIANGLE","DIAMOND","CIRCLE","Bottom","n",0.633440178,1,633.440178,"Self","Self"
"156",1,2,40,"Male",26,"r","Hungarian","Mismatch","We","EXPERIMENT","They","We","STAR","TRIANGLE","DIAMOND","CIRCLE","Top","m",0.966813912,1,966.813912,"We","Group-Self"
"157",1,2,41,"Male",26,"r","Hungarian","Mismatch","They","EXPERIMENT","Self","They","STAR","TRIANGLE","DIAMOND","CIRCLE","Bottom","m",0.900153931,1,900.153931,"They","Group-Stranger"
"158",1,2,42,"Male",26,"r","Hungarian","Match","They","EXPERIMENT","They","They","STAR","TRIANGLE","DIAMOND","CIRCLE","Top","m",0.583486349,0,583.486349,"They","Group-Stranger"
"159",1,2,43,"Male",26,"r","Hungarian","Match","You","EXPERIMENT","You","You","STAR","TRIANGLE","DIAMOND","CIRCLE","Bottom","n",0.783506958,1,783.506958,"You","Stranger"
"160",1,2,44,"Male",26,"r","Hungarian","Match","You","EXPERIMENT","You","You","STAR","TRIANGLE","DIAMOND","CIRCLE","Bottom","n",1.200150496,1,1200.150496,"You","Stranger"
"161",1,2,45,"Male",26,"r","Hungarian","Match","Self","EXPERIMENT","Self","Self","STAR","TRIANGLE","DIAMOND","CIRCLE","Bottom","n",0.58376547,1,583.76547,"Self","Self"
"162",1,2,46,"Male",26,"r","Hungarian","Match","They","EXPERIMENT","They","They","STAR","TRIANGLE","DIAMOND","CIRCLE","Top","n",0.900144456,1,900.144456,"They","Group-Stranger"
"163",1,2,47,"Male",26,"r","Hungarian","Mismatch","We","EXPERIMENT","You","We","STAR","TRIANGLE","DIAMOND","CIRCLE","Bottom","m",0.733490751,1,733.490751,"We","Group-Self"
"164",1,2,48,"Male",26,"r","Hungarian","Mismatch","Self","EXPERIMENT","You","Self","STAR","TRIANGLE","DIAMOND","CIRCLE","Bottom","m",0.933495568,1,933.495568,"Self","Self"
"165",1,2,49,"Male",26,"r","Hungarian","Mismatch","They","EXPERIMENT","You","They","STAR","TRIANGLE","DIAMOND","CIRCLE","Bottom","m",1.133507096,1,1133.507096,"They","Group-Stranger"
"166",1,2,50,"Male",26,"r","Hungarian","Mismatch","You","EXPERIMENT","Self","You","STAR","TRIANGLE","DIAMOND","CIRCLE","Top","m",1.300135138,1,1300.135138,"You","Stranger"
"167",1,2,51,"Male",26,"r","Hungarian","Mismatch","We","EXPERIMENT","They","We","STAR","TRIANGLE","DIAMOND","CIRCLE","Top","n",0.816835961,0,816.835961,"We","Group-Self"
"168",1,2,52,"Male",26,"r","Hungarian","Mismatch","You","EXPERIMENT","Self","You","STAR","TRIANGLE","DIAMOND","CIRCLE","Bottom","m",1.000172526,1,1000.172526,"You","Stranger"
"169",1,2,53,"Male",26,"r","Hungarian","Mismatch","You","EXPERIMENT","They","You","STAR","TRIANGLE","DIAMOND","CIRCLE","Top","m",0.933466353,1,933.466353,"You","Stranger"
"170",1,2,54,"Male",26,"r","Hungarian","Mismatch","Self","EXPERIMENT","They","Self","STAR","TRIANGLE","DIAMOND","CIRCLE","Bottom","m",0.866825716,1,866.825716,"Self","Self"
"171",1,2,55,"Male",26,"r","Hungarian","Match","Self","EXPERIMENT","Self","Self","STAR","TRIANGLE","DIAMOND","CIRCLE","Top","n",0.766861603,1,766.861603,"Self","Self"
"172",1,2,56,"Male",26,"r","Hungarian","Mismatch","Self","EXPERIMENT","We","Self","STAR","TRIANGLE","DIAMOND","CIRCLE","Bottom","m",0.900185119,1,900.185119,"Self","Self"
"173",1,2,57,"Male",26,"r","Hungarian","Match","Self","EXPERIMENT","Self","Self","STAR","TRIANGLE","DIAMOND","CIRCLE","Bottom","n",0.666840245,1,666.840245,"Self","Self"
"174",1,2,58,"Male",26,"r","Hungarian","Match","You","EXPERIMENT","You","You","STAR","TRIANGLE","DIAMOND","CIRCLE","Bottom","n",0.966811149,1,966.811149,"You","Stranger"
"175",1,2,59,"Male",26,"r","Hungarian","Match","You","EXPERIMENT","You","You","STAR","TRIANGLE","DIAMOND","CIRCLE","Top","n",0.766831599,1,766.831599,"You","Stranger"
"176",1,2,60,"Male",26,"r","Hungarian","Match","We","EXPERIMENT","We","We","STAR","TRIANGLE","DIAMOND","CIRCLE","Top","n",0.650383603,1,650.383603,"We","Group-Self"
"177",1,2,61,"Male",26,"r","Hungarian","Mismatch","You","EXPERIMENT","They","You","STAR","TRIANGLE","DIAMOND","CIRCLE","Top","m",0.800166919,1,800.166919,"You","Stranger"
"178",1,2,62,"Male",26,"r","Hungarian","Mismatch","You","EXPERIMENT","We","You","STAR","TRIANGLE","DIAMOND","CIRCLE","Bottom","m",1.016843147,1,1016.843147,"You","Stranger"
"179",1,2,63,"Male",26,"r","Hungarian","Mismatch","They","EXPERIMENT","Self","They","STAR","TRIANGLE","DIAMOND","CIRCLE","Top","m",1.066819479,1,1066.819479,"They","Group-Stranger"
"180",1,2,64,"Male",26,"r","Hungarian","Match","We","EXPERIMENT","We","We","STAR","TRIANGLE","DIAMOND","CIRCLE","Bottom","n",0.766837126,1,766.837126,"We","Group-Self"
"181",1,2,65,"Male",26,"r","Hungarian","Match","They","EXPERIMENT","They","They","STAR","TRIANGLE","DIAMOND","CIRCLE","Top","n",0.833517242,1,833.517242,"They","Group-Stranger"
"182",1,2,66,"Male",26,"r","Hungarian","Mismatch","You","EXPERIMENT","We","You","STAR","TRIANGLE","DIAMOND","CIRCLE","Top","m",0.816928343,1,816.928343,"You","Stranger"
"183",1,2,67,"Male",26,"r","Hungarian","Match","We","EXPERIMENT","We","We","STAR","TRIANGLE","DIAMOND","CIRCLE","Bottom","n",0.666865907,1,666.865907,"We","Group-Self"
"184",1,2,68,"Male",26,"r","Hungarian","Mismatch","We","EXPERIMENT","You","We","STAR","TRIANGLE","DIAMOND","CIRCLE","Top","m",0.700189383,1,700.189383,"We","Group-Self"
"185",1,2,69,"Male",26,"r","Hungarian","Mismatch","Self","EXPERIMENT","They","Self","STAR","TRIANGLE","DIAMOND","CIRCLE","Bottom","m",0.850174045,1,850.174045,"Self","Self"
"186",1,2,70,"Male",26,"r","Hungarian","Match","They","EXPERIMENT","They","They","STAR","TRIANGLE","DIAMOND","CIRCLE","Top","n",1.000189107,1,1000.189107,"They","Group-Stranger"
"187",1,2,71,"Male",26,"r","Hungarian","Match","They","EXPERIMENT","They","They","STAR","TRIANGLE","DIAMOND","CIRCLE","Bottom","n",0.566821255,1,566.821255,"They","Group-Stranger"
"188",1,2,72,"Male",26,"r","Hungarian","Mismatch","They","EXPERIMENT","We","They","STAR","TRIANGLE","DIAMOND","CIRCLE","Top","m",0.966807595,1,966.807595,"They","Group-Stranger"
"189",1,2,73,"Male",26,"r","Hungarian","Match","Self","EXPERIMENT","Self","Self","STAR","TRIANGLE","DIAMOND","CIRCLE","Bottom","n",0.750196904,1,750.196904,"Self","Self"
"190",1,2,74,"Male",26,"r","Hungarian","Mismatch","We","EXPERIMENT","Self","We","STAR","TRIANGLE","DIAMOND","CIRCLE","Bottom","m",1.100189146,1,1100.189146,"We","Group-Self"
"191",1,2,75,"Male",26,"r","Hungarian","Mismatch","They","EXPERIMENT","We","They","STAR","TRIANGLE","DIAMOND","CIRCLE","Top","m",1.350163978,1,1350.163978,"They","Group-Stranger"
"192",1,2,76,"Male",26,"r","Hungarian","Mismatch","Self","EXPERIMENT","You","Self","STAR","TRIANGLE","DIAMOND","CIRCLE","Top","m",0.81680043,1,816.80043,"Self","Self"
"193",1,2,77,"Male",26,"r","Hungarian","Match","You","EXPERIMENT","You","You","STAR","TRIANGLE","DIAMOND","CIRCLE","Top","n",0.866965079,1,866.965079,"You","Stranger"
"194",1,2,78,"Male",26,"r","Hungarian","Mismatch","We","EXPERIMENT","Self","We","STAR","TRIANGLE","DIAMOND","CIRCLE","Top","m",0.950137369,1,950.137369,"We","Group-Self"
"195",1,2,79,"Male",26,"r","Hungarian","Match","Self","EXPERIMENT","Self","Self","STAR","TRIANGLE","DIAMOND","CIRCLE","Top","n",0.800131783,1,800.131783,"Self","Self"
"196",1,2,80,"Male",26,"r","Hungarian","Mismatch","Self","EXPERIMENT","They","Self","STAR","TRIANGLE","DIAMOND","CIRCLE","Top","m",0.683564558,1,683.564558,"Self","Self"
"197",1,2,81,"Male",26,"r","Hungarian","Match","Self","EXPERIMENT","Self","Self","STAR","TRIANGLE","DIAMOND","CIRCLE","Top","n",0.483510787,1,483.510787,"Self","Self"
"198",1,2,82,"Male",26,"r","Hungarian","Match","Self","EXPERIMENT","Self","Self","STAR","TRIANGLE","DIAMOND","CIRCLE","Bottom","n",0.516825184,1,516.825184,"Self","Self"
"199",1,2,83,"Male",26,"r","Hungarian","Match","Self","EXPERIMENT","Self","Self","STAR","TRIANGLE","DIAMOND","CIRCLE","Top","n",0.533535284,1,533.535284,"Self","Self"
"200",1,2,84,"Male",26,"r","Hungarian","Mismatch","They","EXPERIMENT","You","They","STAR","TRIANGLE","DIAMOND","CIRCLE","Top","m",0.866816636,1,866.816636,"They","Group-Stranger"
"201",1,2,85,"Male",26,"r","Hungarian","Match","Self","EXPERIMENT","Self","Self","STAR","TRIANGLE","DIAMOND","CIRCLE","Top","n",0.53352502,1,533.52502,"Self","Self"
"202",1,2,86,"Male",26,"r","Hungarian","Match","We","EXPERIMENT","We","We","STAR","TRIANGLE","DIAMOND","CIRCLE","Top","n",0.916786652,1,916.786652,"We","Group-Self"
"203",1,2,87,"Male",26,"r","Hungarian","Mismatch","Self","EXPERIMENT","We","Self","STAR","TRIANGLE","DIAMOND","CIRCLE","Top","m",0.966883396,1,966.883396,"Self","Self"
"204",1,2,88,"Male",26,"r","Hungarian","Match","We","EXPERIMENT","We","We","STAR","TRIANGLE","DIAMOND","CIRCLE","Bottom","n",0.600176316,1,600.176316,"We","Group-Self"
"205",1,2,89,"Male",26,"r","Hungarian","Match","They","EXPERIMENT","They","They","STAR","TRIANGLE","DIAMOND","CIRCLE","Bottom","n",0.833503029,1,833.503029,"They","Group-Stranger"
"206",1,2,90,"Male",26,"r","Hungarian","Match","You","EXPERIMENT","You","You","STAR","TRIANGLE","DIAMOND","CIRCLE","Top","n",0.600182237,1,600.182237,"You","Stranger"
"207",1,2,91,"Male",26,"r","Hungarian","Mismatch","You","EXPERIMENT","We","You","STAR","TRIANGLE","DIAMOND","CIRCLE","Bottom","m",0.833495528,1,833.495528,"You","Stranger"
"208",1,2,92,"Male",26,"r","Hungarian","Match","We","EXPERIMENT","We","We","STAR","TRIANGLE","DIAMOND","CIRCLE","Top","n",0.650173177,1,650.173177,"We","Group-Self"
"209",1,2,93,"Male",26,"r","Hungarian","Match","They","EXPERIMENT","They","They","STAR","TRIANGLE","DIAMOND","CIRCLE","Bottom","n",0.916801259,1,916.801259,"They","Group-Stranger"
"210",1,2,94,"Male",26,"r","Hungarian","Match","We","EXPERIMENT","We","We","STAR","TRIANGLE","DIAMOND","CIRCLE","Bottom","n",0.883497522,1,883.497522,"We","Group-Self"
"211",1,2,95,"Male",26,"r","Hungarian","Mismatch","We","EXPERIMENT","You","We","STAR","TRIANGLE","DIAMOND","CIRCLE","Top","m",1.033432045,1,1033.432045,"We","Group-Self"
"212",1,2,96,"Male",26,"r","Hungarian","Match","You","EXPERIMENT","You","You","STAR","TRIANGLE","DIAMOND","CIRCLE","Bottom","n",0.833492765,1,833.492765,"You","Stranger"
"213",1,3,1,"Male",26,"r","Hungarian","Match","Self","EXPERIMENT","Self","Self","STAR","TRIANGLE","DIAMOND","CIRCLE","Bottom","n",0.633512426,1,633.512426,"Self","Self"
"214",1,3,2,"Male",26,"r","Hungarian","Mismatch","You","EXPERIMENT","Self","You","STAR","TRIANGLE","DIAMOND","CIRCLE","Bottom","m",0.800145995,1,800.145995,"You","Stranger"
"215",1,3,3,"Male",26,"r","Hungarian","Match","You","EXPERIMENT","You","You","STAR","TRIANGLE","DIAMOND","CIRCLE","Bottom","n",0.833475394,1,833.475394,"You","Stranger"
"216",1,3,4,"Male",26,"r","Hungarian","Match","We","EXPERIMENT","We","We","STAR","TRIANGLE","DIAMOND","CIRCLE","Bottom","n",0.766847391,1,766.847391,"We","Group-Self"
"217",1,3,5,"Male",26,"r","Hungarian","Match","Self","EXPERIMENT","Self","Self","STAR","TRIANGLE","DIAMOND","CIRCLE","Bottom","n",0.950083677,1,950.083677,"Self","Self"
"218",1,3,6,"Male",26,"r","Hungarian","Match","We","EXPERIMENT","We","We","STAR","TRIANGLE","DIAMOND","CIRCLE","Top","n",0.783520775,1,783.520775,"We","Group-Self"
"219",1,3,7,"Male",26,"r","Hungarian","Match","We","EXPERIMENT","We","We","STAR","TRIANGLE","DIAMOND","CIRCLE","Bottom","n",0.566865867,1,566.865867,"We","Group-Self"
"220",1,3,8,"Male",26,"r","Hungarian","Mismatch","Self","EXPERIMENT","They","Self","STAR","TRIANGLE","DIAMOND","CIRCLE","Bottom","m",0.850165755,1,850.165755,"Self","Self"
"221",1,3,9,"Male",26,"r","Hungarian","Mismatch","You","EXPERIMENT","Self","You","STAR","TRIANGLE","DIAMOND","CIRCLE","Top","m",0.883497127,1,883.497127,"You","Stranger"
"222",1,3,10,"Male",26,"r","Hungarian","Mismatch","You","EXPERIMENT","Self","You","STAR","TRIANGLE","DIAMOND","CIRCLE","Bottom","m",0.900174065,1,900.174065,"You","Stranger"
"223",1,3,11,"Male",26,"r","Hungarian","Match","You","EXPERIMENT","You","You","STAR","TRIANGLE","DIAMOND","CIRCLE","Top","n",0.916839949,1,916.839949,"You","Stranger"
"224",1,3,12,"Male",26,"r","Hungarian","Match","Self","EXPERIMENT","Self","Self","STAR","TRIANGLE","DIAMOND","CIRCLE","Bottom","n",0.800166525,1,800.166525,"Self","Self"
"225",1,3,13,"Male",26,"r","Hungarian","Mismatch","They","EXPERIMENT","You","They","STAR","TRIANGLE","DIAMOND","CIRCLE","Bottom","m",0.983465188,1,983.465188,"They","Group-Stranger"
"226",1,3,14,"Male",26,"r","Hungarian","Mismatch","Self","EXPERIMENT","We","Self","STAR","TRIANGLE","DIAMOND","CIRCLE","Bottom","m",1.033489685,1,1033.489685,"Self","Self"
"227",1,3,15,"Male",26,"r","Hungarian","Mismatch","You","EXPERIMENT","They","You","STAR","TRIANGLE","DIAMOND","CIRCLE","Bottom","m",0.900161432,1,900.161432,"You","Stranger"
"228",1,3,16,"Male",26,"r","Hungarian","Match","You","EXPERIMENT","You","You","STAR","TRIANGLE","DIAMOND","CIRCLE","Bottom","n",0.96681707,1,966.81707,"You","Stranger"
"229",1,3,17,"Male",26,"r","Hungarian","Mismatch","They","EXPERIMENT","Self","They","STAR","TRIANGLE","DIAMOND","CIRCLE","Bottom","m",0.883490416,1,883.490416,"They","Group-Stranger"
"230",1,3,18,"Male",26,"r","Hungarian","Match","Self","EXPERIMENT","Self","Self","STAR","TRIANGLE","DIAMOND","CIRCLE","Top","n",0.750172822,1,750.172822,"Self","Self"
"231",1,3,19,"Male",26,"r","Hungarian","Match","You","EXPERIMENT","You","You","STAR","TRIANGLE","DIAMOND","CIRCLE","Top","n",0.733484435,1,733.484435,"You","Stranger"
"232",1,3,20,"Male",26,"r","Hungarian","Mismatch","We","EXPERIMENT","You","We","STAR","TRIANGLE","DIAMOND","CIRCLE","Bottom","m",0.86683835,1,866.83835,"We","Group-Self"
"233",1,3,21,"Male",26,"r","Hungarian","Mismatch","They","EXPERIMENT","You","They","STAR","TRIANGLE","DIAMOND","CIRCLE","Top","m",1.233504767,1,1233.504767,"They","Group-Stranger"
"234",1,3,22,"Male",26,"r","Hungarian","Mismatch","We","EXPERIMENT","You","We","STAR","TRIANGLE","DIAMOND","CIRCLE","Bottom","m",0.783478927,1,783.478927,"We","Group-Self"
"235",1,3,23,"Male",26,"r","Hungarian","Mismatch","Self","EXPERIMENT","We","Self","STAR","TRIANGLE","DIAMOND","CIRCLE","Top","m",0.900137744,1,900.137744,"Self","Self"
"236",1,3,24,"Male",26,"r","Hungarian","Match","They","EXPERIMENT","They","They","STAR","TRIANGLE","DIAMOND","CIRCLE","Top","n",0.950178033,1,950.178033,"They","Group-Stranger"
"237",1,3,25,"Male",26,"r","Hungarian","Match","They","EXPERIMENT","They","They","STAR","TRIANGLE","DIAMOND","CIRCLE","Top","n",0.716833553,1,716.833553,"They","Group-Stranger"
"238",1,3,26,"Male",26,"r","Hungarian","Match","We","EXPERIMENT","We","We","STAR","TRIANGLE","DIAMOND","CIRCLE","Bottom","n",0.76681028,1,766.81028,"We","Group-Self"
"239",1,3,27,"Male",26,"r","Hungarian","Match","We","EXPERIMENT","We","We","STAR","TRIANGLE","DIAMOND","CIRCLE","Top","n",0.800189028,1,800.189028,"We","Group-Self"
"240",1,3,28,"Male",26,"r","Hungarian","Mismatch","They","EXPERIMENT","You","They","STAR","TRIANGLE","DIAMOND","CIRCLE","Bottom","m",0.883478572,1,883.478572,"They","Group-Stranger"
"241",1,3,29,"Male",26,"r","Hungarian","Mismatch","Self","EXPERIMENT","You","Self","STAR","TRIANGLE","DIAMOND","CIRCLE","Top","m",0.733480092,1,733.480092,"Self","Self"
"242",1,3,30,"Male",26,"r","Hungarian","Mismatch","We","EXPERIMENT","They","We","STAR","TRIANGLE","DIAMOND","CIRCLE","Top","m",0.866830059,1,866.830059,"We","Group-Self"
"243",1,3,31,"Male",26,"r","Hungarian","Match","They","EXPERIMENT","They","They","STAR","TRIANGLE","DIAMOND","CIRCLE","Bottom","n",0.93350149,1,933.50149,"They","Group-Stranger"
"244",1,3,32,"Male",26,"r","Hungarian","Mismatch","They","EXPERIMENT","We","They","STAR","TRIANGLE","DIAMOND","CIRCLE","Bottom","m",1.06684672,1,1066.84672,"They","Group-Stranger"
"245",1,3,33,"Male",26,"r","Hungarian","Match","They","EXPERIMENT","They","They","STAR","TRIANGLE","DIAMOND","CIRCLE","Bottom","n",0.833488027,1,833.488027,"They","Group-Stranger"
"246",1,3,34,"Male",26,"r","Hungarian","Mismatch","They","EXPERIMENT","Self","They","STAR","TRIANGLE","DIAMOND","CIRCLE","Top","m",0.833489212,1,833.489212,"They","Group-Stranger"
"247",1,3,35,"Male",26,"r","Hungarian","Match","Self","EXPERIMENT","Self","Self","STAR","TRIANGLE","DIAMOND","CIRCLE","Top","n",0.800168893,1,800.168893,"Self","Self"
"248",1,3,36,"Male",26,"r","Hungarian","Match","We","EXPERIMENT","We","We","STAR","TRIANGLE","DIAMOND","CIRCLE","Top","n",0.733565762,1,733.565762,"We","Group-Self"
"249",1,3,37,"Male",26,"r","Hungarian","Match","Self","EXPERIMENT","Self","Self","STAR","TRIANGLE","DIAMOND","CIRCLE","Bottom","n",0.750188219,1,750.188219,"Self","Self"
"250",1,3,38,"Male",26,"r","Hungarian","Mismatch","You","EXPERIMENT","We","You","STAR","TRIANGLE","DIAMOND","CIRCLE","Bottom","m",0.80016613,1,800.16613,"You","Stranger"
"251",1,3,39,"Male",26,"r","Hungarian","Mismatch","We","EXPERIMENT","Self","We","STAR","TRIANGLE","DIAMOND","CIRCLE","Top","m",0.866858484,1,866.858484,"We","Group-Self"
"252",1,3,40,"Male",26,"r","Hungarian","Match","Self","EXPERIMENT","Self","Self","STAR","TRIANGLE","DIAMOND","CIRCLE","Bottom","n",0.716883692,1,716.883692,"Self","Self"
"253",1,3,41,"Male",26,"r","Hungarian","Mismatch","You","EXPERIMENT","They","You","STAR","TRIANGLE","DIAMOND","CIRCLE","Top","m",0.800211926,1,800.211926,"You","Stranger"
"254",1,3,42,"Male",26,"r","Hungarian","Match","They","EXPERIMENT","They","They","STAR","TRIANGLE","DIAMOND","CIRCLE","Top","n",0.800150338,1,800.150338,"They","Group-Stranger"
"255",1,3,43,"Male",26,"r","Hungarian","Mismatch","You","EXPERIMENT","We","You","STAR","TRIANGLE","DIAMOND","CIRCLE","Bottom","m",0.800200082,1,800.200082,"You","Stranger"
"256",1,3,44,"Male",26,"r","Hungarian","Match","Self","EXPERIMENT","Self","Self","STAR","TRIANGLE","DIAMOND","CIRCLE","Top","n",0.683521526,1,683.521526,"Self","Self"
"257",1,3,45,"Male",26,"r","Hungarian","Mismatch","They","EXPERIMENT","We","They","STAR","TRIANGLE","DIAMOND","CIRCLE","Top","m",0.883521999,1,883.521999,"They","Group-Stranger"
"258",1,3,46,"Male",26,"r","Hungarian","Match","Self","EXPERIMENT","Self","Self","STAR","TRIANGLE","DIAMOND","CIRCLE","Top","n",0.650163307,1,650.163307,"Self","Self"
"259",1,3,47,"Male",26,"r","Hungarian","Mismatch","Self","EXPERIMENT","You","Self","STAR","TRIANGLE","DIAMOND","CIRCLE","Bottom","m",0.966847075,1,966.847075,"Self","Self"
"260",1,3,48,"Male",26,"r","Hungarian","Match","You","EXPERIMENT","You","You","STAR","TRIANGLE","DIAMOND","CIRCLE","Top","n",0.933508991,1,933.508991,"You","Stranger"
"261",1,3,49,"Male",26,"r","Hungarian","Match","You","EXPERIMENT","You","You","STAR","TRIANGLE","DIAMOND","CIRCLE","Bottom","n",0.716861189,1,716.861189,"You","Stranger"
"262",1,3,50,"Male",26,"r","Hungarian","Match","They","EXPERIMENT","They","They","STAR","TRIANGLE","DIAMOND","CIRCLE","Top","n",0.816833987,1,816.833987,"They","Group-Stranger"
"263",1,3,51,"Male",26,"r","Hungarian","Mismatch","They","EXPERIMENT","Self","They","STAR","TRIANGLE","DIAMOND","CIRCLE","Top","m",0.733540496,1,733.540496,"They","Group-Stranger"
"264",1,3,52,"Male",26,"r","Hungarian","Match","We","EXPERIMENT","We","We","STAR","TRIANGLE","DIAMOND","CIRCLE","Top","n",0.716846187,1,716.846187,"We","Group-Self"
"265",1,3,53,"Male",26,"r","Hungarian","Mismatch","You","EXPERIMENT","They","You","STAR","TRIANGLE","DIAMOND","CIRCLE","Bottom","m",0.766777907,1,766.777907,"You","Stranger"
"266",1,3,54,"Male",26,"r","Hungarian","Mismatch","You","EXPERIMENT","Self","You","STAR","TRIANGLE","DIAMOND","CIRCLE","Top","m",0.816812274,1,816.812274,"You","Stranger"
"267",1,3,55,"Male",26,"r","Hungarian","Match","You","EXPERIMENT","You","You","STAR","TRIANGLE","DIAMOND","CIRCLE","Bottom","n",0.716838291,1,716.838291,"You","Stranger"
"268",1,3,56,"Male",26,"r","Hungarian","Mismatch","We","EXPERIMENT","They","We","STAR","TRIANGLE","DIAMOND","CIRCLE","Bottom","m",0.950210406,1,950.210406,"We","Group-Self"
"269",1,3,57,"Male",26,"r","Hungarian","Mismatch","Self","EXPERIMENT","They","Self","STAR","TRIANGLE","DIAMOND","CIRCLE","Top","m",0.800171262,1,800.171262,"Self","Self"
"270",1,3,58,"Male",26,"r","Hungarian","Match","They","EXPERIMENT","They","They","STAR","TRIANGLE","DIAMOND","CIRCLE","Top","n",0.816849384,1,816.849384,"They","Group-Stranger"
"271",1,3,59,"Male",26,"r","Hungarian","Match","They","EXPERIMENT","They","They","STAR","TRIANGLE","DIAMOND","CIRCLE","Bottom","n",0.816826486,1,816.826486,"They","Group-Stranger"
"272",1,3,60,"Male",26,"r","Hungarian","Match","We","EXPERIMENT","We","We","STAR","TRIANGLE","DIAMOND","CIRCLE","Bottom","n",0.783527487,1,783.527487,"We","Group-Self"
"273",1,3,61,"Male",26,"r","Hungarian","Mismatch","We","EXPERIMENT","You","We","STAR","TRIANGLE","DIAMOND","CIRCLE","Top","m",0.750200062,1,750.200062,"We","Group-Self"
"274",1,3,62,"Male",26,"r","Hungarian","Mismatch","We","EXPERIMENT","Self","We","STAR","TRIANGLE","DIAMOND","CIRCLE","Top","m",1.083482994,1,1083.482994,"We","Group-Self"
"275",1,3,63,"Male",26,"r","Hungarian","Match","They","EXPERIMENT","They","They","STAR","TRIANGLE","DIAMOND","CIRCLE","Bottom","n",0.766872263,1,766.872263,"They","Group-Stranger"
"276",1,3,64,"Male",26,"r","Hungarian","Mismatch","Self","EXPERIMENT","You","Self","STAR","TRIANGLE","DIAMOND","CIRCLE","Bottom","m",0.866836376,1,866.836376,"Self","Self"
"277",1,3,65,"Male",26,"r","Hungarian","Match","They","EXPERIMENT","They","They","STAR","TRIANGLE","DIAMOND","CIRCLE","Top","n",1.150120867,1,1150.120867,"They","Group-Stranger"
"278",1,3,66,"Male",26,"r","Hungarian","Match","You","EXPERIMENT","You","You","STAR","TRIANGLE","DIAMOND","CIRCLE","Top","n",0.750188219,1,750.188219,"You","Stranger"
"279",1,3,67,"Male",26,"r","Hungarian","Mismatch","They","EXPERIMENT","Self","They","STAR","TRIANGLE","DIAMOND","CIRCLE","Bottom","m",0.850186679,1,850.186679,"They","Group-Stranger"
"280",1,3,68,"Male",26,"r","Hungarian","Match","You","EXPERIMENT","You","You","STAR","TRIANGLE","DIAMOND","CIRCLE","Top","n",0.700163327,1,700.163327,"You","Stranger"
"281",1,3,69,"Male",26,"r","Hungarian","Match","We","EXPERIMENT","We","We","STAR","TRIANGLE","DIAMOND","CIRCLE","Top","n",0.650186995,1,650.186995,"We","Group-Self"
"282",1,3,70,"Male",26,"r","Hungarian","Mismatch","We","EXPERIMENT","They","We","STAR","TRIANGLE","DIAMOND","CIRCLE","Top","m",0.816837935,1,816.837935,"We","Group-Self"
"283",1,3,71,"Male",26,"r","Hungarian","Mismatch","We","EXPERIMENT","You","We","STAR","TRIANGLE","DIAMOND","CIRCLE","Top","m",0.716836712,1,716.836712,"We","Group-Self"
"284",1,3,72,"Male",26,"r","Hungarian","Match","Self","EXPERIMENT","Self","Self","STAR","TRIANGLE","DIAMOND","CIRCLE","Bottom","n",0.633538877,1,633.538877,"Self","Self"
"285",1,3,73,"Male",26,"r","Hungarian","Mismatch","They","EXPERIMENT","We","They","STAR","TRIANGLE","DIAMOND","CIRCLE","Top","m",0.81681859,1,816.81859,"They","Group-Stranger"
"286",1,3,74,"Male",26,"r","Hungarian","Mismatch","They","EXPERIMENT","You","They","STAR","TRIANGLE","DIAMOND","CIRCLE","Top","m",0.7167617,1,716.7617,"They","Group-Stranger"
"287",1,3,75,"Male",26,"r","Hungarian","Match","You","EXPERIMENT","You","You","STAR","TRIANGLE","DIAMOND","CIRCLE","Top","n",0.700209123,1,700.209123,"You","Stranger"
"288",1,3,76,"Male",26,"r","Hungarian","Mismatch","They","EXPERIMENT","We","They","STAR","TRIANGLE","DIAMOND","CIRCLE","Bottom","m",0.783480901,1,783.480901,"They","Group-Stranger"
"289",1,3,77,"Male",26,"r","Hungarian","Match","Self","EXPERIMENT","Self","Self","STAR","TRIANGLE","DIAMOND","CIRCLE","Top","n",0.733496278,1,733.496278,"Self","Self"
"290",1,3,78,"Male",26,"r","Hungarian","Match","They","EXPERIMENT","They","They","STAR","TRIANGLE","DIAMOND","CIRCLE","Bottom","n",1.000165419,1,1000.165419,"They","Group-Stranger"
"291",1,3,79,"Male",26,"r","Hungarian","Match","You","EXPERIMENT","You","You","STAR","TRIANGLE","DIAMOND","CIRCLE","Bottom","n",0.700172802,1,700.172802,"You","Stranger"
"292",1,3,80,"Male",26,"r","Hungarian","Match","We","EXPERIMENT","We","We","STAR","TRIANGLE","DIAMOND","CIRCLE","Bottom","n",0.650182257,1,650.182257,"We","Group-Self"
"293",1,3,81,"Male",26,"r","Hungarian","Match","Self","EXPERIMENT","Self","Self","STAR","TRIANGLE","DIAMOND","CIRCLE","Top","n",0.616847726,1,616.847726,"Self","Self"
"294",1,3,82,"Male",26,"r","Hungarian","Mismatch","Self","EXPERIMENT","They","Self","STAR","TRIANGLE","DIAMOND","CIRCLE","Top","m",0.850191022,1,850.191022,"Self","Self"
"295",1,3,83,"Male",26,"r","Hungarian","Mismatch","Self","EXPERIMENT","We","Self","STAR","TRIANGLE","DIAMOND","CIRCLE","Bottom","m",0.850181152,1,850.181152,"Self","Self"
"296",1,3,84,"Male",26,"r","Hungarian","Mismatch","Self","EXPERIMENT","They","Self","STAR","TRIANGLE","DIAMOND","CIRCLE","Bottom","m",0.766840679,1,766.840679,"Self","Self"
"297",1,3,85,"Male",26,"r","Hungarian","Mismatch","You","EXPERIMENT","We","You","STAR","TRIANGLE","DIAMOND","CIRCLE","Top","m",0.850141672,1,850.141672,"You","Stranger"
"298",1,3,86,"Male",26,"r","Hungarian","Mismatch","You","EXPERIMENT","We","You","STAR","TRIANGLE","DIAMOND","CIRCLE","Top","m",0.833493949,1,833.493949,"You","Stranger"
"299",1,3,87,"Male",26,"r","Hungarian","Match","We","EXPERIMENT","We","We","STAR","TRIANGLE","DIAMOND","CIRCLE","Bottom","n",0.716840265,1,716.840265,"We","Group-Self"
"300",1,3,88,"Male",26,"r","Hungarian","Match","We","EXPERIMENT","We","We","STAR","TRIANGLE","DIAMOND","CIRCLE","Top","n",0.733543259,1,733.543259,"We","Group-Self"
"301",1,3,89,"Male",26,"r","Hungarian","Mismatch","We","EXPERIMENT","Self","We","STAR","TRIANGLE","DIAMOND","CIRCLE","Bottom","m",0.716832764,1,716.832764,"We","Group-Self"
"302",1,3,90,"Male",26,"r","Hungarian","Mismatch","We","EXPERIMENT","They","We","STAR","TRIANGLE","DIAMOND","CIRCLE","Bottom","m",0.716863163,1,716.863163,"We","Group-Self"
"303",1,3,91,"Male",26,"r","Hungarian","Mismatch","We","EXPERIMENT","Self","We","STAR","TRIANGLE","DIAMOND","CIRCLE","Bottom","m",0.850181152,1,850.181152,"We","Group-Self"
"304",1,3,92,"Male",26,"r","Hungarian","Mismatch","Self","EXPERIMENT","You","Self","STAR","TRIANGLE","DIAMOND","CIRCLE","Top","m",0.916844686,1,916.844686,"Self","Self"
"305",1,3,93,"Male",26,"r","Hungarian","Match","They","EXPERIMENT","They","They","STAR","TRIANGLE","DIAMOND","CIRCLE","Bottom","n",0.833474209,1,833.474209,"They","Group-Stranger"
"306",1,3,94,"Male",26,"r","Hungarian","Match","You","EXPERIMENT","You","You","STAR","TRIANGLE","DIAMOND","CIRCLE","Bottom","n",0.816826881,1,816.826881,"You","Stranger"
"307",1,3,95,"Male",26,"r","Hungarian","Mismatch","Self","EXPERIMENT","We","Self","STAR","TRIANGLE","DIAMOND","CIRCLE","Top","m",0.966804042,1,966.804042,"Self","Self"
"308",1,3,96,"Male",26,"r","Hungarian","Mismatch","You","EXPERIMENT","They","You","STAR","TRIANGLE","DIAMOND","CIRCLE","Top","m",0.933451351,1,933.451351,"You","Stranger"
"309",2,0,1,"Female",23,"r","Hungarian","Mismatch","They","TRAINING","We","They","STAR","TRIANGLE","DIAMOND","CIRCLE","Bottom","None",NA,3,NA,"They","Group-Stranger"
"310",2,0,2,"Female",23,"r","Hungarian","Mismatch","We","TRAINING","They","We","STAR","TRIANGLE","DIAMOND","CIRCLE","Bottom","None",NA,3,NA,"We","Group-Self"
"311",2,0,3,"Female",23,"r","Hungarian","Mismatch","Self","TRAINING","We","Self","STAR","TRIANGLE","DIAMOND","CIRCLE","Top","n",1.233456996,1,1233.456996,"Self","Self"
"312",2,0,4,"Female",23,"r","Hungarian","Mismatch","You","TRAINING","We","You","STAR","TRIANGLE","DIAMOND","CIRCLE","Top","n",1.400113069,1,1400.113069,"You","Stranger"
"313",2,0,5,"Female",23,"r","Hungarian","Match","Self","TRAINING","Self","Self","STAR","TRIANGLE","DIAMOND","CIRCLE","Bottom","m",1.450110326,1,1450.110326,"Self","Self"
"314",2,0,6,"Female",23,"r","Hungarian","Mismatch","They","TRAINING","You","They","STAR","TRIANGLE","DIAMOND","CIRCLE","Top","n",1.466784105,1,1466.784105,"They","Group-Stranger"
"315",2,0,7,"Female",23,"r","Hungarian","Match","They","TRAINING","They","They","STAR","TRIANGLE","DIAMOND","CIRCLE","Top","None",NA,3,NA,"They","Group-Stranger"
"316",2,0,8,"Female",23,"r","Hungarian","Match","Self","TRAINING","Self","Self","STAR","TRIANGLE","DIAMOND","CIRCLE","Top","m",1.466809372,1,1466.809372,"Self","Self"
"317",2,0,9,"Female",23,"r","Hungarian","Mismatch","You","TRAINING","They","You","STAR","TRIANGLE","DIAMOND","CIRCLE","Bottom","n",1.700130559,1,1700.130559,"You","Stranger"
"318",2,0,10,"Female",23,"r","Hungarian","Mismatch","You","TRAINING","Self","You","STAR","TRIANGLE","DIAMOND","CIRCLE","Top","n",1.616827197,1,1616.827197,"You","Stranger"
"319",2,0,11,"Female",23,"r","Hungarian","Mismatch","They","TRAINING","Self","They","STAR","TRIANGLE","DIAMOND","CIRCLE","Top","n",1.316833,1,1316.833,"They","Group-Stranger"
"320",2,0,12,"Female",23,"r","Hungarian","Mismatch","Self","TRAINING","They","Self","STAR","TRIANGLE","DIAMOND","CIRCLE","Top","n",0.950219092,1,950.219092,"Self","Self"
"321",2,0,13,"Female",23,"r","Hungarian","Mismatch","We","TRAINING","You","We","STAR","TRIANGLE","DIAMOND","CIRCLE","Top","n",1.550143923,1,1550.143923,"We","Group-Self"
"322",2,0,14,"Female",23,"r","Hungarian","Match","You","TRAINING","You","You","STAR","TRIANGLE","DIAMOND","CIRCLE","Top","m",1.133520519,1,1133.520519,"You","Stranger"
"323",2,0,15,"Female",23,"r","Hungarian","Match","They","TRAINING","They","They","STAR","TRIANGLE","DIAMOND","CIRCLE","Bottom","m",1.43346813,1,1433.46813,"They","Group-Stranger"
"324",2,0,16,"Female",23,"r","Hungarian","Mismatch","We","TRAINING","Self","We","STAR","TRIANGLE","DIAMOND","CIRCLE","Bottom","n",1.416836593,1,1416.836593,"We","Group-Self"
"325",2,0,17,"Female",23,"r","Hungarian","Match","We","TRAINING","We","We","STAR","TRIANGLE","DIAMOND","CIRCLE","Bottom","m",1.233513847,1,1233.513847,"We","Group-Self"
"326",2,0,18,"Female",23,"r","Hungarian","Match","You","TRAINING","You","You","STAR","TRIANGLE","DIAMOND","CIRCLE","Bottom","m",1.216813616,1,1216.813616,"You","Stranger"
"327",2,0,19,"Female",23,"r","Hungarian","Mismatch","Self","TRAINING","You","Self","STAR","TRIANGLE","DIAMOND","CIRCLE","Bottom","n",1.233503977,1,1233.503977,"Self","Self"
"328",2,0,20,"Female",23,"r","Hungarian","Match","We","TRAINING","We","We","STAR","TRIANGLE","DIAMOND","CIRCLE","Top","m",1.46676476,1,1466.76476,"We","Group-Self"
"329",2,1,1,"Female",23,"r","Hungarian","Mismatch","We","EXPERIMENT","You","We","STAR","TRIANGLE","DIAMOND","CIRCLE","Bottom","n",1.100142166,1,1100.142166,"We","Group-Self"
"330",2,1,2,"Female",23,"r","Hungarian","Mismatch","Self","EXPERIMENT","We","Self","STAR","TRIANGLE","DIAMOND","CIRCLE","Bottom","n",1.050157938,1,1050.157938,"Self","Self"
"331",2,1,3,"Female",23,"r","Hungarian","Match","They","EXPERIMENT","They","They","STAR","TRIANGLE","DIAMOND","CIRCLE","Bottom","m",1.083550504,1,1083.550504,"They","Group-Stranger"
"332",2,1,4,"Female",23,"r","Hungarian","Match","They","EXPERIMENT","They","They","STAR","TRIANGLE","DIAMOND","CIRCLE","Top","m",0.98352875,1,983.52875,"They","Group-Stranger"
"333",2,1,5,"Female",23,"r","Hungarian","Match","Self","EXPERIMENT","Self","Self","STAR","TRIANGLE","DIAMOND","CIRCLE","Bottom","m",1.050131881,1,1050.131881,"Self","Self"
"334",2,1,6,"Female",23,"r","Hungarian","Mismatch","Self","EXPERIMENT","They","Self","STAR","TRIANGLE","DIAMOND","CIRCLE","Bottom","n",1.216844805,1,1216.844805,"Self","Self"
"335",2,1,7,"Female",23,"r","Hungarian","Mismatch","We","EXPERIMENT","Self","We","STAR","TRIANGLE","DIAMOND","CIRCLE","Bottom","n",1.266801002,1,1266.801002,"We","Group-Self"
"336",2,1,8,"Female",23,"r","Hungarian","Mismatch","You","EXPERIMENT","They","You","STAR","TRIANGLE","DIAMOND","CIRCLE","Bottom","n",1.183475927,1,1183.475927,"You","Stranger"
"337",2,1,9,"Female",23,"r","Hungarian","Mismatch","We","EXPERIMENT","They","We","STAR","TRIANGLE","DIAMOND","CIRCLE","Bottom","n",1.166810833,1,1166.810833,"We","Group-Self"
"338",2,1,10,"Female",23,"r","Hungarian","Match","You","EXPERIMENT","You","You","STAR","TRIANGLE","DIAMOND","CIRCLE","Top","m",1.21683533,1,1216.83533,"You","Stranger"
"339",2,1,11,"Female",23,"r","Hungarian","Match","They","EXPERIMENT","They","They","STAR","TRIANGLE","DIAMOND","CIRCLE","Top","n",1.283494127,0,1283.494127,"They","Group-Stranger"
"340",2,1,12,"Female",23,"r","Hungarian","Mismatch","Self","EXPERIMENT","They","Self","STAR","TRIANGLE","DIAMOND","CIRCLE","Top","n",1.366826309,1,1366.826309,"Self","Self"
"341",2,1,13,"Female",23,"r","Hungarian","Mismatch","You","EXPERIMENT","Self","You","STAR","TRIANGLE","DIAMOND","CIRCLE","Bottom","n",1.166828204,1,1166.828204,"You","Stranger"
"342",2,1,14,"Female",23,"r","Hungarian","Mismatch","You","EXPERIMENT","They","You","STAR","TRIANGLE","DIAMOND","CIRCLE","Bottom","None",NA,3,NA,"You","Stranger"
"343",2,1,15,"Female",23,"r","Hungarian","Mismatch","They","EXPERIMENT","Self","They","STAR","TRIANGLE","DIAMOND","CIRCLE","Top","n",1.366788408,1,1366.788408,"They","Group-Stranger"
"344",2,1,16,"Female",23,"r","Hungarian","Match","You","EXPERIMENT","You","You","STAR","TRIANGLE","DIAMOND","CIRCLE","Bottom","n",1.516797153,0,1516.797153,"You","Stranger"
"345",2,1,17,"Female",23,"r","Hungarian","Mismatch","We","EXPERIMENT","You","We","STAR","TRIANGLE","DIAMOND","CIRCLE","Top","n",1.066843561,1,1066.843561,"We","Group-Self"
"346",2,1,18,"Female",23,"r","Hungarian","Mismatch","Self","EXPERIMENT","We","Self","STAR","TRIANGLE","DIAMOND","CIRCLE","Top","n",1.266801397,1,1266.801397,"Self","Self"
"347",2,1,19,"Female",23,"r","Hungarian","Mismatch","We","EXPERIMENT","Self","We","STAR","TRIANGLE","DIAMOND","CIRCLE","Bottom","n",1.100152036,1,1100.152036,"We","Group-Self"
"348",2,1,20,"Female",23,"r","Hungarian","Match","Self","EXPERIMENT","Self","Self","STAR","TRIANGLE","DIAMOND","CIRCLE","Bottom","m",1.350135553,1,1350.135553,"Self","Self"
"349",2,1,21,"Female",23,"r","Hungarian","Mismatch","They","EXPERIMENT","We","They","STAR","TRIANGLE","DIAMOND","CIRCLE","Top","n",1.200156023,1,1200.156023,"They","Group-Stranger"
"350",2,1,22,"Female",23,"r","Hungarian","Mismatch","Self","EXPERIMENT","We","Self","STAR","TRIANGLE","DIAMOND","CIRCLE","Bottom","n",1.050158727,1,1050.158727,"Self","Self"
"351",2,1,23,"Female",23,"r","Hungarian","Mismatch","They","EXPERIMENT","Self","They","STAR","TRIANGLE","DIAMOND","CIRCLE","Top","n",1.050156753,1,1050.156753,"They","Group-Stranger"
"352",2,1,24,"Female",23,"r","Hungarian","Mismatch","You","EXPERIMENT","Self","You","STAR","TRIANGLE","DIAMOND","CIRCLE","Bottom","n",1.350162794,1,1350.162794,"You","Stranger"
"353",2,1,25,"Female",23,"r","Hungarian","Mismatch","We","EXPERIMENT","You","We","STAR","TRIANGLE","DIAMOND","CIRCLE","Top","n",1.416874493,1,1416.874493,"We","Group-Self"
"354",2,1,26,"Female",23,"r","Hungarian","Match","You","EXPERIMENT","You","You","STAR","TRIANGLE","DIAMOND","CIRCLE","Top","m",0.83350224,1,833.50224,"You","Stranger"
"355",2,1,27,"Female",23,"r","Hungarian","Mismatch","We","EXPERIMENT","They","We","STAR","TRIANGLE","DIAMOND","CIRCLE","Top","n",1.416831461,1,1416.831461,"We","Group-Self"
"356",2,1,28,"Female",23,"r","Hungarian","Mismatch","You","EXPERIMENT","Self","You","STAR","TRIANGLE","DIAMOND","CIRCLE","Top","n",1.51683229,1,1516.83229,"You","Stranger"
"357",2,1,29,"Female",23,"r","Hungarian","Match","You","EXPERIMENT","You","You","STAR","TRIANGLE","DIAMOND","CIRCLE","Bottom","m",0.966882212,1,966.882212,"You","Stranger"
"358",2,1,30,"Female",23,"r","Hungarian","Match","We","EXPERIMENT","We","We","STAR","TRIANGLE","DIAMOND","CIRCLE","Bottom","m",1.416820012,1,1416.820012,"We","Group-Self"
"359",2,1,31,"Female",23,"r","Hungarian","Match","You","EXPERIMENT","You","You","STAR","TRIANGLE","DIAMOND","CIRCLE","Top","n",1.366821571,0,1366.821571,"You","Stranger"
"360",2,1,32,"Female",23,"r","Hungarian","Match","They","EXPERIMENT","They","They","STAR","TRIANGLE","DIAMOND","CIRCLE","Top","m",1.25012209,1,1250.12209,"They","Group-Stranger"
"361",2,1,33,"Female",23,"r","Hungarian","Mismatch","You","EXPERIMENT","We","You","STAR","TRIANGLE","DIAMOND","CIRCLE","Top","n",1.283483862,1,1283.483862,"You","Stranger"
"362",2,1,34,"Female",23,"r","Hungarian","Match","Self","EXPERIMENT","Self","Self","STAR","TRIANGLE","DIAMOND","CIRCLE","Bottom","m",1.266868512,1,1266.868512,"Self","Self"
"363",2,1,35,"Female",23,"r","Hungarian","Match","Self","EXPERIMENT","Self","Self","STAR","TRIANGLE","DIAMOND","CIRCLE","Top","m",1.283485047,1,1283.485047,"Self","Self"
"364",2,1,36,"Female",23,"r","Hungarian","Match","They","EXPERIMENT","They","They","STAR","TRIANGLE","DIAMOND","CIRCLE","Bottom","m",1.100197042,1,1100.197042,"They","Group-Stranger"
"365",2,1,37,"Female",23,"r","Hungarian","Match","You","EXPERIMENT","You","You","STAR","TRIANGLE","DIAMOND","CIRCLE","Bottom","m",1.616744685,1,1616.744685,"You","Stranger"
"366",2,1,38,"Female",23,"r","Hungarian","Mismatch","Self","EXPERIMENT","We","Self","STAR","TRIANGLE","DIAMOND","CIRCLE","Top","n",1.116801733,1,1116.801733,"Self","Self"
"367",2,1,39,"Female",23,"r","Hungarian","Match","You","EXPERIMENT","You","You","STAR","TRIANGLE","DIAMOND","CIRCLE","Top","m",0.916836396,1,916.836396,"You","Stranger"
"368",2,1,40,"Female",23,"r","Hungarian","Match","Self","EXPERIMENT","Self","Self","STAR","TRIANGLE","DIAMOND","CIRCLE","Top","m",1.200173394,1,1200.173394,"Self","Self"
"369",2,1,41,"Female",23,"r","Hungarian","Match","We","EXPERIMENT","We","We","STAR","TRIANGLE","DIAMOND","CIRCLE","Top","m",1.000148443,1,1000.148443,"We","Group-Self"
"370",2,1,42,"Female",23,"r","Hungarian","Match","We","EXPERIMENT","We","We","STAR","TRIANGLE","DIAMOND","CIRCLE","Bottom","m",0.983512564,1,983.512564,"We","Group-Self"
"371",2,1,43,"Female",23,"r","Hungarian","Mismatch","Self","EXPERIMENT","You","Self","STAR","TRIANGLE","DIAMOND","CIRCLE","Top","n",0.966843522,1,966.843522,"Self","Self"
"372",2,1,44,"Female",23,"r","Hungarian","Mismatch","They","EXPERIMENT","You","They","STAR","TRIANGLE","DIAMOND","CIRCLE","Bottom","m",0.983518486,0,983.518486,"They","Group-Stranger"
"373",2,1,45,"Female",23,"r","Hungarian","Mismatch","We","EXPERIMENT","Self","We","STAR","TRIANGLE","DIAMOND","CIRCLE","Top","n",1.133492883,1,1133.492883,"We","Group-Self"
"374",2,1,46,"Female",23,"r","Hungarian","Mismatch","They","EXPERIMENT","Self","They","STAR","TRIANGLE","DIAMOND","CIRCLE","Bottom","n",1.1834704,1,1183.4704,"They","Group-Stranger"
"375",2,1,47,"Female",23,"r","Hungarian","Match","You","EXPERIMENT","You","You","STAR","TRIANGLE","DIAMOND","CIRCLE","Bottom","m",1.100144535,1,1100.144535,"You","Stranger"
"376",2,1,48,"Female",23,"r","Hungarian","Match","They","EXPERIMENT","They","They","STAR","TRIANGLE","DIAMOND","CIRCLE","Bottom","m",1.116797785,1,1116.797785,"They","Group-Stranger"
"377",2,1,49,"Female",23,"r","Hungarian","Mismatch","They","EXPERIMENT","You","They","STAR","TRIANGLE","DIAMOND","CIRCLE","Top","n",0.950206458,1,950.206458,"They","Group-Stranger"
"378",2,1,50,"Female",23,"r","Hungarian","Mismatch","They","EXPERIMENT","You","They","STAR","TRIANGLE","DIAMOND","CIRCLE","Top","n",0.866832033,1,866.832033,"They","Group-Stranger"
"379",2,1,51,"Female",23,"r","Hungarian","Mismatch","They","EXPERIMENT","Self","They","STAR","TRIANGLE","DIAMOND","CIRCLE","Bottom","n",1.300145798,1,1300.145798,"They","Group-Stranger"
"380",2,1,52,"Female",23,"r","Hungarian","Match","They","EXPERIMENT","They","They","STAR","TRIANGLE","DIAMOND","CIRCLE","Top","m",1.050172545,1,1050.172545,"They","Group-Stranger"
"381",2,1,53,"Female",23,"r","Hungarian","Mismatch","We","EXPERIMENT","They","We","STAR","TRIANGLE","DIAMOND","CIRCLE","Top","n",1.166817544,1,1166.817544,"We","Group-Self"
"382",2,1,54,"Female",23,"r","Hungarian","Mismatch","You","EXPERIMENT","They","You","STAR","TRIANGLE","DIAMOND","CIRCLE","Top","n",1.41680422,1,1416.80422,"You","Stranger"
"383",2,1,55,"Female",23,"r","Hungarian","Match","They","EXPERIMENT","They","They","STAR","TRIANGLE","DIAMOND","CIRCLE","Bottom","n",1.333470459,0,1333.470459,"They","Group-Stranger"
"384",2,1,56,"Female",23,"r","Hungarian","Mismatch","We","EXPERIMENT","They","We","STAR","TRIANGLE","DIAMOND","CIRCLE","Bottom","n",1.11681634,1,1116.81634,"We","Group-Self"
"385",2,1,57,"Female",23,"r","Hungarian","Match","Self","EXPERIMENT","Self","Self","STAR","TRIANGLE","DIAMOND","CIRCLE","Top","m",1.250132355,1,1250.132355,"Self","Self"
"386",2,1,58,"Female",23,"r","Hungarian","Mismatch","We","EXPERIMENT","Self","We","STAR","TRIANGLE","DIAMOND","CIRCLE","Top","n",0.916854951,1,916.854951,"We","Group-Self"
"387",2,1,59,"Female",23,"r","Hungarian","Mismatch","You","EXPERIMENT","We","You","STAR","TRIANGLE","DIAMOND","CIRCLE","Top","n",1.233519769,1,1233.519769,"You","Stranger"
"388",2,1,60,"Female",23,"r","Hungarian","Match","We","EXPERIMENT","We","We","STAR","TRIANGLE","DIAMOND","CIRCLE","Bottom","m",1.250137487,1,1250.137487,"We","Group-Self"
"389",2,1,61,"Female",23,"r","Hungarian","Match","We","EXPERIMENT","We","We","STAR","TRIANGLE","DIAMOND","CIRCLE","Top","m",0.950149213,1,950.149213,"We","Group-Self"
"390",2,1,62,"Female",23,"r","Hungarian","Mismatch","They","EXPERIMENT","We","They","STAR","TRIANGLE","DIAMOND","CIRCLE","Bottom","n",1.016806036,1,1016.806036,"They","Group-Stranger"
"391",2,1,63,"Female",23,"r","Hungarian","Mismatch","They","EXPERIMENT","We","They","STAR","TRIANGLE","DIAMOND","CIRCLE","Top","n",1.200153259,1,1200.153259,"They","Group-Stranger"
"392",2,1,64,"Female",23,"r","Hungarian","Mismatch","They","EXPERIMENT","You","They","STAR","TRIANGLE","DIAMOND","CIRCLE","Bottom","n",1.183480664,1,1183.480664,"They","Group-Stranger"
"393",2,1,65,"Female",23,"r","Hungarian","Match","They","EXPERIMENT","They","They","STAR","TRIANGLE","DIAMOND","CIRCLE","Top","n",1.000155155,0,1000.155155,"They","Group-Stranger"
"394",2,1,66,"Female",23,"r","Hungarian","Mismatch","You","EXPERIMENT","We","You","STAR","TRIANGLE","DIAMOND","CIRCLE","Bottom","n",1.566868631,1,1566.868631,"You","Stranger"
"395",2,1,67,"Female",23,"r","Hungarian","Mismatch","They","EXPERIMENT","We","They","STAR","TRIANGLE","DIAMOND","CIRCLE","Bottom","n",0.916821788,1,916.821788,"They","Group-Stranger"
"396",2,1,68,"Female",23,"r","Hungarian","Mismatch","Self","EXPERIMENT","You","Self","STAR","TRIANGLE","DIAMOND","CIRCLE","Top","n",1.100134665,1,1100.134665,"Self","Self"
"397",2,1,69,"Female",23,"r","Hungarian","Match","They","EXPERIMENT","They","They","STAR","TRIANGLE","DIAMOND","CIRCLE","Bottom","m",1.166761089,1,1166.761089,"They","Group-Stranger"
"398",2,1,70,"Female",23,"r","Hungarian","Mismatch","You","EXPERIMENT","Self","You","STAR","TRIANGLE","DIAMOND","CIRCLE","Top","n",1.200148917,1,1200.148917,"You","Stranger"
"399",2,1,71,"Female",23,"r","Hungarian","Match","Self","EXPERIMENT","Self","Self","STAR","TRIANGLE","DIAMOND","CIRCLE","Top","m",1.200141021,1,1200.141021,"Self","Self"
"400",2,1,72,"Female",23,"r","Hungarian","Mismatch","Self","EXPERIMENT","You","Self","STAR","TRIANGLE","DIAMOND","CIRCLE","Bottom","n",1.08347944,1,1083.47944,"Self","Self"
"401",2,1,73,"Female",23,"r","Hungarian","Match","Self","EXPERIMENT","Self","Self","STAR","TRIANGLE","DIAMOND","CIRCLE","Top","m",1.233499239,1,1233.499239,"Self","Self"
"402",2,1,74,"Female",23,"r","Hungarian","Mismatch","We","EXPERIMENT","You","We","STAR","TRIANGLE","DIAMOND","CIRCLE","Bottom","n",1.166842022,1,1166.842022,"We","Group-Self"
"403",2,1,75,"Female",23,"r","Hungarian","Mismatch","Self","EXPERIMENT","They","Self","STAR","TRIANGLE","DIAMOND","CIRCLE","Top","n",1.350142264,1,1350.142264,"Self","Self"
"404",2,1,76,"Female",23,"r","Hungarian","Match","Self","EXPERIMENT","Self","Self","STAR","TRIANGLE","DIAMOND","CIRCLE","Bottom","m",0.883498312,1,883.498312,"Self","Self"
"405",2,1,77,"Female",23,"r","Hungarian","Match","We","EXPERIMENT","We","We","STAR","TRIANGLE","DIAMOND","CIRCLE","Top","m",1.100174539,1,1100.174539,"We","Group-Self"
"406",2,1,78,"Female",23,"r","Hungarian","Match","We","EXPERIMENT","We","We","STAR","TRIANGLE","DIAMOND","CIRCLE","Bottom","m",0.916819814,1,916.819814,"We","Group-Self"
"407",2,1,79,"Female",23,"r","Hungarian","Match","Self","EXPERIMENT","Self","Self","STAR","TRIANGLE","DIAMOND","CIRCLE","Bottom","m",1.700119899,1,1700.119899,"Self","Self"
"408",2,1,80,"Female",23,"r","Hungarian","Mismatch","Self","EXPERIMENT","You","Self","STAR","TRIANGLE","DIAMOND","CIRCLE","Bottom","n",0.916829684,1,916.829684,"Self","Self"
"409",2,1,81,"Female",23,"r","Hungarian","Match","You","EXPERIMENT","You","You","STAR","TRIANGLE","DIAMOND","CIRCLE","Bottom","m",1.350134763,1,1350.134763,"You","Stranger"
"410",2,1,82,"Female",23,"r","Hungarian","Match","Self","EXPERIMENT","Self","Self","STAR","TRIANGLE","DIAMOND","CIRCLE","Bottom","m",0.933516887,1,933.516887,"Self","Self"
"411",2,1,83,"Female",23,"r","Hungarian","Match","You","EXPERIMENT","You","You","STAR","TRIANGLE","DIAMOND","CIRCLE","Bottom","m",0.95016461,1,950.16461,"You","Stranger"
"412",2,1,84,"Female",23,"r","Hungarian","Match","Self","EXPERIMENT","Self","Self","STAR","TRIANGLE","DIAMOND","CIRCLE","Top","m",0.833493949,1,833.493949,"Self","Self"
"413",2,1,85,"Female",23,"r","Hungarian","Match","We","EXPERIMENT","We","We","STAR","TRIANGLE","DIAMOND","CIRCLE","Top","m",1.033456917,1,1033.456917,"We","Group-Self"
"414",2,1,86,"Female",23,"r","Hungarian","Mismatch","Self","EXPERIMENT","They","Self","STAR","TRIANGLE","DIAMOND","CIRCLE","Bottom","n",1.100182435,1,1100.182435,"Self","Self"
"415",2,1,87,"Female",23,"r","Hungarian","Match","They","EXPERIMENT","They","They","STAR","TRIANGLE","DIAMOND","CIRCLE","Top","m",1.183494877,1,1183.494877,"They","Group-Stranger"
"416",2,1,88,"Female",23,"r","Hungarian","Match","You","EXPERIMENT","You","You","STAR","TRIANGLE","DIAMOND","CIRCLE","Top","m",0.800187054,1,800.187054,"You","Stranger"
"417",2,1,89,"Female",23,"r","Hungarian","Match","We","EXPERIMENT","We","We","STAR","TRIANGLE","DIAMOND","CIRCLE","Bottom","m",0.783538541,1,783.538541,"We","Group-Self"
"418",2,1,90,"Female",23,"r","Hungarian","Match","We","EXPERIMENT","We","We","STAR","TRIANGLE","DIAMOND","CIRCLE","Top","m",0.850171282,1,850.171282,"We","Group-Self"
"419",2,1,91,"Female",23,"r","Hungarian","Match","We","EXPERIMENT","We","We","STAR","TRIANGLE","DIAMOND","CIRCLE","Bottom","m",0.833474604,1,833.474604,"We","Group-Self"
"420",2,1,92,"Female",23,"r","Hungarian","Match","You","EXPERIMENT","You","You","STAR","TRIANGLE","DIAMOND","CIRCLE","Top","m",0.90023289,1,900.23289,"You","Stranger"
"421",2,1,93,"Female",23,"r","Hungarian","Match","We","EXPERIMENT","We","We","STAR","TRIANGLE","DIAMOND","CIRCLE","Top","m",1.016821828,1,1016.821828,"We","Group-Self"
"422",2,1,94,"Female",23,"r","Hungarian","Match","They","EXPERIMENT","They","They","STAR","TRIANGLE","DIAMOND","CIRCLE","Bottom","m",1.133492488,1,1133.492488,"They","Group-Stranger"
"423",2,1,95,"Female",23,"r","Hungarian","Mismatch","You","EXPERIMENT","We","You","STAR","TRIANGLE","DIAMOND","CIRCLE","Bottom","n",1.233490554,1,1233.490554,"You","Stranger"
"424",2,1,96,"Female",23,"r","Hungarian","Mismatch","You","EXPERIMENT","They","You","STAR","TRIANGLE","DIAMOND","CIRCLE","Top","m",0.883526737,0,883.526737,"You","Stranger"
"425",2,2,1,"Female",23,"r","Hungarian","Mismatch","Self","EXPERIMENT","You","Self","STAR","TRIANGLE","DIAMOND","CIRCLE","Top","n",1.033459681,1,1033.459681,"Self","Self"
"426",2,2,2,"Female",23,"r","Hungarian","Match","They","EXPERIMENT","They","They","STAR","TRIANGLE","DIAMOND","CIRCLE","Top","m",1.016841568,1,1016.841568,"They","Group-Stranger"
"427",2,2,3,"Female",23,"r","Hungarian","Match","We","EXPERIMENT","We","We","STAR","TRIANGLE","DIAMOND","CIRCLE","Bottom","m",1.000150022,1,1000.150022,"We","Group-Self"
"428",2,2,4,"Female",23,"r","Hungarian","Mismatch","They","EXPERIMENT","You","They","STAR","TRIANGLE","DIAMOND","CIRCLE","Top","n",1.033505082,1,1033.505082,"They","Group-Stranger"
"429",2,2,5,"Female",23,"r","Hungarian","Mismatch","They","EXPERIMENT","You","They","STAR","TRIANGLE","DIAMOND","CIRCLE","Top","n",0.90014643,1,900.14643,"They","Group-Stranger"
"430",2,2,6,"Female",23,"r","Hungarian","Mismatch","Self","EXPERIMENT","They","Self","STAR","TRIANGLE","DIAMOND","CIRCLE","Bottom","n",1.050197417,1,1050.197417,"Self","Self"
"431",2,2,7,"Female",23,"r","Hungarian","Match","They","EXPERIMENT","They","They","STAR","TRIANGLE","DIAMOND","CIRCLE","Top","m",1.250134724,1,1250.134724,"They","Group-Stranger"
"432",2,2,8,"Female",23,"r","Hungarian","Match","Self","EXPERIMENT","Self","Self","STAR","TRIANGLE","DIAMOND","CIRCLE","Top","m",0.766827651,1,766.827651,"Self","Self"
"433",2,2,9,"Female",23,"r","Hungarian","Mismatch","We","EXPERIMENT","You","We","STAR","TRIANGLE","DIAMOND","CIRCLE","Top","n",1.150135079,1,1150.135079,"We","Group-Self"
"434",2,2,10,"Female",23,"r","Hungarian","Match","They","EXPERIMENT","They","They","STAR","TRIANGLE","DIAMOND","CIRCLE","Bottom","m",1.333481118,1,1333.481118,"They","Group-Stranger"
"435",2,2,11,"Female",23,"r","Hungarian","Match","We","EXPERIMENT","We","We","STAR","TRIANGLE","DIAMOND","CIRCLE","Top","m",0.816835567,1,816.835567,"We","Group-Self"
"436",2,2,12,"Female",23,"r","Hungarian","Match","You","EXPERIMENT","You","You","STAR","TRIANGLE","DIAMOND","CIRCLE","Bottom","m",1.200199056,1,1200.199056,"You","Stranger"
"437",2,2,13,"Female",23,"r","Hungarian","Mismatch","You","EXPERIMENT","We","You","STAR","TRIANGLE","DIAMOND","CIRCLE","Bottom","n",1.216824275,1,1216.824275,"You","Stranger"
"438",2,2,14,"Female",23,"r","Hungarian","Mismatch","You","EXPERIMENT","Self","You","STAR","TRIANGLE","DIAMOND","CIRCLE","Top","m",1.566810596,0,1566.810596,"You","Stranger"
"439",2,2,15,"Female",23,"r","Hungarian","Match","Self","EXPERIMENT","Self","Self","STAR","TRIANGLE","DIAMOND","CIRCLE","Top","m",1.033477842,1,1033.477842,"Self","Self"
"440",2,2,16,"Female",23,"r","Hungarian","Match","They","EXPERIMENT","They","They","STAR","TRIANGLE","DIAMOND","CIRCLE","Bottom","m",1.15016232,1,1150.16232,"They","Group-Stranger"
"441",2,2,17,"Female",23,"r","Hungarian","Mismatch","We","EXPERIMENT","You","We","STAR","TRIANGLE","DIAMOND","CIRCLE","Top","n",1.050188337,1,1050.188337,"We","Group-Self"
"442",2,2,18,"Female",23,"r","Hungarian","Mismatch","You","EXPERIMENT","They","You","STAR","TRIANGLE","DIAMOND","CIRCLE","Bottom","n",1.266811267,1,1266.811267,"You","Stranger"
"443",2,2,19,"Female",23,"r","Hungarian","Match","Self","EXPERIMENT","Self","Self","STAR","TRIANGLE","DIAMOND","CIRCLE","Bottom","m",0.766766853,1,766.766853,"Self","Self"
"444",2,2,20,"Female",23,"r","Hungarian","Mismatch","We","EXPERIMENT","Self","We","STAR","TRIANGLE","DIAMOND","CIRCLE","Top","n",0.900142876,1,900.142876,"We","Group-Self"
"445",2,2,21,"Female",23,"r","Hungarian","Mismatch","Self","EXPERIMENT","You","Self","STAR","TRIANGLE","DIAMOND","CIRCLE","Bottom","n",0.850174835,1,850.174835,"Self","Self"
"446",2,2,22,"Female",23,"r","Hungarian","Mismatch","They","EXPERIMENT","We","They","STAR","TRIANGLE","DIAMOND","CIRCLE","Bottom","n",1.016848674,1,1016.848674,"They","Group-Stranger"
"447",2,2,23,"Female",23,"r","Hungarian","Match","Self","EXPERIMENT","Self","Self","STAR","TRIANGLE","DIAMOND","CIRCLE","Top","m",1.03349916,1,1033.49916,"Self","Self"
"448",2,2,24,"Female",23,"r","Hungarian","Mismatch","We","EXPERIMENT","They","We","STAR","TRIANGLE","DIAMOND","CIRCLE","Bottom","n",1.000165814,1,1000.165814,"We","Group-Self"
"449",2,2,25,"Female",23,"r","Hungarian","Mismatch","You","EXPERIMENT","We","You","STAR","TRIANGLE","DIAMOND","CIRCLE","Bottom","n",0.933495568,1,933.495568,"You","Stranger"
"450",2,2,26,"Female",23,"r","Hungarian","Mismatch","We","EXPERIMENT","They","We","STAR","TRIANGLE","DIAMOND","CIRCLE","Top","n",0.966830494,1,966.830494,"We","Group-Self"
"451",2,2,27,"Female",23,"r","Hungarian","Match","We","EXPERIMENT","We","We","STAR","TRIANGLE","DIAMOND","CIRCLE","Top","n",1.100168617,0,1100.168617,"We","Group-Self"
"452",2,2,28,"Female",23,"r","Hungarian","Match","We","EXPERIMENT","We","We","STAR","TRIANGLE","DIAMOND","CIRCLE","Top","m",0.833518426,1,833.518426,"We","Group-Self"
"453",2,2,29,"Female",23,"r","Hungarian","Match","Self","EXPERIMENT","Self","Self","STAR","TRIANGLE","DIAMOND","CIRCLE","Top","m",0.816833987,1,816.833987,"Self","Self"
"454",2,2,30,"Female",23,"r","Hungarian","Mismatch","Self","EXPERIMENT","We","Self","STAR","TRIANGLE","DIAMOND","CIRCLE","Bottom","n",0.983496772,1,983.496772,"Self","Self"
"455",2,2,31,"Female",23,"r","Hungarian","Match","Self","EXPERIMENT","Self","Self","STAR","TRIANGLE","DIAMOND","CIRCLE","Bottom","m",0.916617284,1,916.617284,"Self","Self"
"456",2,2,32,"Female",23,"r","Hungarian","Mismatch","They","EXPERIMENT","We","They","STAR","TRIANGLE","DIAMOND","CIRCLE","Top","n",1.200102726,1,1200.102726,"They","Group-Stranger"
"457",2,2,33,"Female",23,"r","Hungarian","Match","You","EXPERIMENT","You","You","STAR","TRIANGLE","DIAMOND","CIRCLE","Top","m",0.883486468,1,883.486468,"You","Stranger"
"458",2,2,34,"Female",23,"r","Hungarian","Match","They","EXPERIMENT","They","They","STAR","TRIANGLE","DIAMOND","CIRCLE","Bottom","m",1.100159537,1,1100.159537,"They","Group-Stranger"
"459",2,2,35,"Female",23,"r","Hungarian","Match","They","EXPERIMENT","They","They","STAR","TRIANGLE","DIAMOND","CIRCLE","Top","m",0.983498351,1,983.498351,"They","Group-Stranger"
"460",2,2,36,"Female",23,"r","Hungarian","Match","Self","EXPERIMENT","Self","Self","STAR","TRIANGLE","DIAMOND","CIRCLE","Bottom","m",0.866839534,1,866.839534,"Self","Self"
"461",2,2,37,"Female",23,"r","Hungarian","Mismatch","We","EXPERIMENT","Self","We","STAR","TRIANGLE","DIAMOND","CIRCLE","Top","n",1.083471939,1,1083.471939,"We","Group-Self"
"462",2,2,38,"Female",23,"r","Hungarian","Mismatch","We","EXPERIMENT","You","We","STAR","TRIANGLE","DIAMOND","CIRCLE","Bottom","n",0.950161846,1,950.161846,"We","Group-Self"
"463",2,2,39,"Female",23,"r","Hungarian","Match","They","EXPERIMENT","They","They","STAR","TRIANGLE","DIAMOND","CIRCLE","Bottom","m",0.766822124,1,766.822124,"They","Group-Stranger"
"464",2,2,40,"Female",23,"r","Hungarian","Mismatch","We","EXPERIMENT","Self","We","STAR","TRIANGLE","DIAMOND","CIRCLE","Bottom","n",1.15010389,1,1150.10389,"We","Group-Self"
"465",2,2,41,"Female",23,"r","Hungarian","Match","You","EXPERIMENT","You","You","STAR","TRIANGLE","DIAMOND","CIRCLE","Top","m",0.883488837,1,883.488837,"You","Stranger"
"466",2,2,42,"Female",23,"r","Hungarian","Mismatch","They","EXPERIMENT","You","They","STAR","TRIANGLE","DIAMOND","CIRCLE","Bottom","n",1.033483369,1,1033.483369,"They","Group-Stranger"
"467",2,2,43,"Female",23,"r","Hungarian","Match","They","EXPERIMENT","They","They","STAR","TRIANGLE","DIAMOND","CIRCLE","Top","m",0.883512524,1,883.512524,"They","Group-Stranger"
"468",2,2,44,"Female",23,"r","Hungarian","Match","Self","EXPERIMENT","Self","Self","STAR","TRIANGLE","DIAMOND","CIRCLE","Top","m",0.933491225,1,933.491225,"Self","Self"
"469",2,2,45,"Female",23,"r","Hungarian","Match","They","EXPERIMENT","They","They","STAR","TRIANGLE","DIAMOND","CIRCLE","Bottom","m",1.450164412,1,1450.164412,"They","Group-Stranger"
"470",2,2,46,"Female",23,"r","Hungarian","Mismatch","You","EXPERIMENT","They","You","STAR","TRIANGLE","DIAMOND","CIRCLE","Top","n",1.133502753,1,1133.502753,"You","Stranger"
"471",2,2,47,"Female",23,"r","Hungarian","Match","They","EXPERIMENT","They","They","STAR","TRIANGLE","DIAMOND","CIRCLE","Bottom","m",0.783566967,1,783.566967,"They","Group-Stranger"
"472",2,2,48,"Female",23,"r","Hungarian","Mismatch","Self","EXPERIMENT","You","Self","STAR","TRIANGLE","DIAMOND","CIRCLE","Bottom","n",0.95014566,1,950.14566,"Self","Self"
"473",2,2,49,"Female",23,"r","Hungarian","Match","Self","EXPERIMENT","Self","Self","STAR","TRIANGLE","DIAMOND","CIRCLE","Bottom","m",0.88349239,1,883.49239,"Self","Self"
"474",2,2,50,"Female",23,"r","Hungarian","Mismatch","They","EXPERIMENT","Self","They","STAR","TRIANGLE","DIAMOND","CIRCLE","Top","n",1.100173749,1,1100.173749,"They","Group-Stranger"
"475",2,2,51,"Female",23,"r","Hungarian","Match","They","EXPERIMENT","They","They","STAR","TRIANGLE","DIAMOND","CIRCLE","Top","m",0.900168933,1,900.168933,"They","Group-Stranger"
"476",2,2,52,"Female",23,"r","Hungarian","Match","Self","EXPERIMENT","Self","Self","STAR","TRIANGLE","DIAMOND","CIRCLE","Bottom","m",0.833505793,1,833.505793,"Self","Self"
"477",2,2,53,"Female",23,"r","Hungarian","Mismatch","Self","EXPERIMENT","They","Self","STAR","TRIANGLE","DIAMOND","CIRCLE","Top","n",1.050155569,1,1050.155569,"Self","Self"
"478",2,2,54,"Female",23,"r","Hungarian","Mismatch","You","EXPERIMENT","We","You","STAR","TRIANGLE","DIAMOND","CIRCLE","Top","n",1.266782052,1,1266.782052,"You","Stranger"
"479",2,2,55,"Female",23,"r","Hungarian","Mismatch","Self","EXPERIMENT","We","Self","STAR","TRIANGLE","DIAMOND","CIRCLE","Top","n",1.466800686,1,1466.800686,"Self","Self"
"480",2,2,56,"Female",23,"r","Hungarian","Mismatch","Self","EXPERIMENT","They","Self","STAR","TRIANGLE","DIAMOND","CIRCLE","Top","n",0.966829309,1,966.829309,"Self","Self"
"481",2,2,57,"Female",23,"r","Hungarian","Mismatch","They","EXPERIMENT","We","They","STAR","TRIANGLE","DIAMOND","CIRCLE","Bottom","n",1.033512189,1,1033.512189,"They","Group-Stranger"
"482",2,2,58,"Female",23,"r","Hungarian","Mismatch","They","EXPERIMENT","You","They","STAR","TRIANGLE","DIAMOND","CIRCLE","Bottom","n",0.883478967,1,883.478967,"They","Group-Stranger"
"483",2,2,59,"Female",23,"r","Hungarian","Mismatch","We","EXPERIMENT","They","We","STAR","TRIANGLE","DIAMOND","CIRCLE","Bottom","n",0.966821808,1,966.821808,"We","Group-Self"
"484",2,2,60,"Female",23,"r","Hungarian","Match","Self","EXPERIMENT","Self","Self","STAR","TRIANGLE","DIAMOND","CIRCLE","Bottom","m",0.833507767,1,833.507767,"Self","Self"
"485",2,2,61,"Female",23,"r","Hungarian","Mismatch","We","EXPERIMENT","You","We","STAR","TRIANGLE","DIAMOND","CIRCLE","Bottom","n",0.933479381,1,933.479381,"We","Group-Self"
"486",2,2,62,"Female",23,"r","Hungarian","Mismatch","We","EXPERIMENT","They","We","STAR","TRIANGLE","DIAMOND","CIRCLE","Top","n",1.316817998,1,1316.817998,"We","Group-Self"
"487",2,2,63,"Female",23,"r","Hungarian","Match","You","EXPERIMENT","You","You","STAR","TRIANGLE","DIAMOND","CIRCLE","Top","m",1.050171756,1,1050.171756,"You","Stranger"
"488",2,2,64,"Female",23,"r","Hungarian","Match","We","EXPERIMENT","We","We","STAR","TRIANGLE","DIAMOND","CIRCLE","Top","m",0.966814702,1,966.814702,"We","Group-Self"
"489",2,2,65,"Female",23,"r","Hungarian","Mismatch","They","EXPERIMENT","We","They","STAR","TRIANGLE","DIAMOND","CIRCLE","Top","n",1.083467597,1,1083.467597,"They","Group-Stranger"
"490",2,2,66,"Female",23,"r","Hungarian","Match","We","EXPERIMENT","We","We","STAR","TRIANGLE","DIAMOND","CIRCLE","Bottom","m",1.266782842,1,1266.782842,"We","Group-Self"
"491",2,2,67,"Female",23,"r","Hungarian","Match","You","EXPERIMENT","You","You","STAR","TRIANGLE","DIAMOND","CIRCLE","Bottom","m",0.883504234,1,883.504234,"You","Stranger"
"492",2,2,68,"Female",23,"r","Hungarian","Match","You","EXPERIMENT","You","You","STAR","TRIANGLE","DIAMOND","CIRCLE","Bottom","m",0.783490771,1,783.490771,"You","Stranger"
"493",2,2,69,"Female",23,"r","Hungarian","Match","You","EXPERIMENT","You","You","STAR","TRIANGLE","DIAMOND","CIRCLE","Top","m",0.866824532,1,866.824532,"You","Stranger"
"494",2,2,70,"Female",23,"r","Hungarian","Mismatch","You","EXPERIMENT","They","You","STAR","TRIANGLE","DIAMOND","CIRCLE","Top","n",0.916873901,1,916.873901,"You","Stranger"
"495",2,2,71,"Female",23,"r","Hungarian","Mismatch","You","EXPERIMENT","Self","You","STAR","TRIANGLE","DIAMOND","CIRCLE","Bottom","n",1.26682548,1,1266.82548,"You","Stranger"
"496",2,2,72,"Female",23,"r","Hungarian","Match","We","EXPERIMENT","We","We","STAR","TRIANGLE","DIAMOND","CIRCLE","Bottom","m",1.050158727,1,1050.158727,"We","Group-Self"
"497",2,2,73,"Female",23,"r","Hungarian","Match","Self","EXPERIMENT","Self","Self","STAR","TRIANGLE","DIAMOND","CIRCLE","Top","m",1.116796995,1,1116.796995,"Self","Self"
"498",2,2,74,"Female",23,"r","Hungarian","Match","You","EXPERIMENT","You","You","STAR","TRIANGLE","DIAMOND","CIRCLE","Top","m",0.78346353,1,783.46353,"You","Stranger"
"499",2,2,75,"Female",23,"r","Hungarian","Mismatch","They","EXPERIMENT","Self","They","STAR","TRIANGLE","DIAMOND","CIRCLE","Bottom","n",1.299959849,1,1299.959849,"They","Group-Stranger"
"500",2,2,76,"Female",23,"r","Hungarian","Match","We","EXPERIMENT","We","We","STAR","TRIANGLE","DIAMOND","CIRCLE","Bottom","m",1.050161096,1,1050.161096,"We","Group-Self"
"501",2,2,77,"Female",23,"r","Hungarian","Mismatch","We","EXPERIMENT","Self","We","STAR","TRIANGLE","DIAMOND","CIRCLE","Bottom","m",1.083532738,0,1083.532738,"We","Group-Self"
"502",2,2,78,"Female",23,"r","Hungarian","Mismatch","You","EXPERIMENT","They","You","STAR","TRIANGLE","DIAMOND","CIRCLE","Bottom","n",0.900178013,1,900.178013,"You","Stranger"
"503",2,2,79,"Female",23,"r","Hungarian","Match","You","EXPERIMENT","You","You","STAR","TRIANGLE","DIAMOND","CIRCLE","Bottom","m",0.800166525,1,800.166525,"You","Stranger"
"504",2,2,80,"Female",23,"r","Hungarian","Match","You","EXPERIMENT","You","You","STAR","TRIANGLE","DIAMOND","CIRCLE","Bottom","m",1.116838843,1,1116.838843,"You","Stranger"
"505",2,2,81,"Female",23,"r","Hungarian","Mismatch","Self","EXPERIMENT","You","Self","STAR","TRIANGLE","DIAMOND","CIRCLE","Top","n",0.950112892,1,950.112892,"Self","Self"
"506",2,2,82,"Female",23,"r","Hungarian","Mismatch","Self","EXPERIMENT","They","Self","STAR","TRIANGLE","DIAMOND","CIRCLE","Bottom","n",0.96681865,1,966.81865,"Self","Self"
"507",2,2,83,"Female",23,"r","Hungarian","Mismatch","You","EXPERIMENT","We","You","STAR","TRIANGLE","DIAMOND","CIRCLE","Top","n",1.066833297,1,1066.833297,"You","Stranger"
"508",2,2,84,"Female",23,"r","Hungarian","Mismatch","They","EXPERIMENT","Self","They","STAR","TRIANGLE","DIAMOND","CIRCLE","Top","n",0.866846246,1,866.846246,"They","Group-Stranger"
"509",2,2,85,"Female",23,"r","Hungarian","Match","We","EXPERIMENT","We","We","STAR","TRIANGLE","DIAMOND","CIRCLE","Top","m",0.950182376,1,950.182376,"We","Group-Self"
"510",2,2,86,"Female",23,"r","Hungarian","Match","You","EXPERIMENT","You","You","STAR","TRIANGLE","DIAMOND","CIRCLE","Top","m",1.433483132,1,1433.483132,"You","Stranger"
"511",2,2,87,"Female",23,"r","Hungarian","Mismatch","Self","EXPERIMENT","We","Self","STAR","TRIANGLE","DIAMOND","CIRCLE","Bottom","n",1.00017292,1,1000.17292,"Self","Self"
"512",2,2,88,"Female",23,"r","Hungarian","Match","We","EXPERIMENT","We","We","STAR","TRIANGLE","DIAMOND","CIRCLE","Bottom","m",0.850178783,1,850.178783,"We","Group-Self"
"513",2,2,89,"Female",23,"r","Hungarian","Match","We","EXPERIMENT","We","We","STAR","TRIANGLE","DIAMOND","CIRCLE","Bottom","m",0.96681707,1,966.81707,"We","Group-Self"
"514",2,2,90,"Female",23,"r","Hungarian","Match","They","EXPERIMENT","They","They","STAR","TRIANGLE","DIAMOND","CIRCLE","Top","m",0.983479796,1,983.479796,"They","Group-Stranger"
"515",2,2,91,"Female",23,"r","Hungarian","Mismatch","You","EXPERIMENT","Self","You","STAR","TRIANGLE","DIAMOND","CIRCLE","Bottom","n",1.133523282,1,1133.523282,"You","Stranger"
"516",2,2,92,"Female",23,"r","Hungarian","Mismatch","Self","EXPERIMENT","We","Self","STAR","TRIANGLE","DIAMOND","CIRCLE","Top","n",0.933488856,1,933.488856,"Self","Self"
"517",2,2,93,"Female",23,"r","Hungarian","Match","You","EXPERIMENT","You","You","STAR","TRIANGLE","DIAMOND","CIRCLE","Bottom","m",0.716873822,1,716.873822,"You","Stranger"
"518",2,2,94,"Female",23,"r","Hungarian","Match","We","EXPERIMENT","We","We","STAR","TRIANGLE","DIAMOND","CIRCLE","Top","m",1.050162281,1,1050.162281,"We","Group-Self"
"519",2,2,95,"Female",23,"r","Hungarian","Mismatch","You","EXPERIMENT","Self","You","STAR","TRIANGLE","DIAMOND","CIRCLE","Top","n",1.000158313,1,1000.158313,"You","Stranger"
"520",2,2,96,"Female",23,"r","Hungarian","Mismatch","They","EXPERIMENT","Self","They","STAR","TRIANGLE","DIAMOND","CIRCLE","Bottom","n",1.133507885,1,1133.507885,"They","Group-Stranger"
"521",2,3,1,"Female",23,"r","Hungarian","Match","We","EXPERIMENT","We","We","STAR","TRIANGLE","DIAMOND","CIRCLE","Bottom","m",1.016822617,1,1016.822617,"We","Group-Self"
"522",2,3,2,"Female",23,"r","Hungarian","Match","You","EXPERIMENT","You","You","STAR","TRIANGLE","DIAMOND","CIRCLE","Bottom","m",0.666960263,1,666.960263,"You","Stranger"
"523",2,3,3,"Female",23,"r","Hungarian","Mismatch","Self","EXPERIMENT","You","Self","STAR","TRIANGLE","DIAMOND","CIRCLE","Bottom","n",0.71689751,1,716.89751,"Self","Self"
"524",2,3,4,"Female",23,"r","Hungarian","Match","Self","EXPERIMENT","Self","Self","STAR","TRIANGLE","DIAMOND","CIRCLE","Top","m",0.850168913,1,850.168913,"Self","Self"
"525",2,3,5,"Female",23,"r","Hungarian","Match","Self","EXPERIMENT","Self","Self","STAR","TRIANGLE","DIAMOND","CIRCLE","Bottom","m",0.783501431,1,783.501431,"Self","Self"
"526",2,3,6,"Female",23,"r","Hungarian","Match","We","EXPERIMENT","We","We","STAR","TRIANGLE","DIAMOND","CIRCLE","Bottom","m",0.816850174,1,816.850174,"We","Group-Self"
"527",2,3,7,"Female",23,"r","Hungarian","Match","We","EXPERIMENT","We","We","STAR","TRIANGLE","DIAMOND","CIRCLE","Bottom","m",0.900167748,1,900.167748,"We","Group-Self"
"528",2,3,8,"Female",23,"r","Hungarian","Match","They","EXPERIMENT","They","They","STAR","TRIANGLE","DIAMOND","CIRCLE","Top","m",1.116813577,1,1116.813577,"They","Group-Stranger"
"529",2,3,9,"Female",23,"r","Hungarian","Mismatch","You","EXPERIMENT","Self","You","STAR","TRIANGLE","DIAMOND","CIRCLE","Top","n",1.033488501,1,1033.488501,"You","Stranger"
"530",2,3,10,"Female",23,"r","Hungarian","Mismatch","We","EXPERIMENT","You","We","STAR","TRIANGLE","DIAMOND","CIRCLE","Top","n",1.066820663,1,1066.820663,"We","Group-Self"
"531",2,3,11,"Female",23,"r","Hungarian","Mismatch","We","EXPERIMENT","Self","We","STAR","TRIANGLE","DIAMOND","CIRCLE","Bottom","n",1.100171381,1,1100.171381,"We","Group-Self"
"532",2,3,12,"Female",23,"r","Hungarian","Mismatch","They","EXPERIMENT","You","They","STAR","TRIANGLE","DIAMOND","CIRCLE","Bottom","n",1.000170552,1,1000.170552,"They","Group-Stranger"
"533",2,3,13,"Female",23,"r","Hungarian","Match","You","EXPERIMENT","You","You","STAR","TRIANGLE","DIAMOND","CIRCLE","Top","m",0.916846266,1,916.846266,"You","Stranger"
"534",2,3,14,"Female",23,"r","Hungarian","Mismatch","We","EXPERIMENT","You","We","STAR","TRIANGLE","DIAMOND","CIRCLE","Bottom","n",0.766797252,1,766.797252,"We","Group-Self"
"535",2,3,15,"Female",23,"r","Hungarian","Mismatch","They","EXPERIMENT","Self","They","STAR","TRIANGLE","DIAMOND","CIRCLE","Bottom","n",1.083478651,1,1083.478651,"They","Group-Stranger"
"536",2,3,16,"Female",23,"r","Hungarian","Match","You","EXPERIMENT","You","You","STAR","TRIANGLE","DIAMOND","CIRCLE","Top","m",0.966874316,1,966.874316,"You","Stranger"
"537",2,3,17,"Female",23,"r","Hungarian","Mismatch","Self","EXPERIMENT","You","Self","STAR","TRIANGLE","DIAMOND","CIRCLE","Top","n",0.9502033,1,950.2033,"Self","Self"
"538",2,3,18,"Female",23,"r","Hungarian","Match","Self","EXPERIMENT","Self","Self","STAR","TRIANGLE","DIAMOND","CIRCLE","Bottom","m",1.016832092,1,1016.832092,"Self","Self"
"539",2,3,19,"Female",23,"r","Hungarian","Match","They","EXPERIMENT","They","They","STAR","TRIANGLE","DIAMOND","CIRCLE","Bottom","m",0.900178013,1,900.178013,"They","Group-Stranger"
"540",2,3,20,"Female",23,"r","Hungarian","Mismatch","We","EXPERIMENT","You","We","STAR","TRIANGLE","DIAMOND","CIRCLE","Bottom","n",0.916814287,1,916.814287,"We","Group-Self"
"541",2,3,21,"Female",23,"r","Hungarian","Match","You","EXPERIMENT","You","You","STAR","TRIANGLE","DIAMOND","CIRCLE","Bottom","m",0.783488007,1,783.488007,"You","Stranger"
"542",2,3,22,"Female",23,"r","Hungarian","Match","We","EXPERIMENT","We","We","STAR","TRIANGLE","DIAMOND","CIRCLE","Top","m",1.083496417,1,1083.496417,"We","Group-Self"
"543",2,3,23,"Female",23,"r","Hungarian","Mismatch","They","EXPERIMENT","We","They","STAR","TRIANGLE","DIAMOND","CIRCLE","Top","n",1.650115932,1,1650.115932,"They","Group-Stranger"
"544",2,3,24,"Female",23,"r","Hungarian","Match","Self","EXPERIMENT","Self","Self","STAR","TRIANGLE","DIAMOND","CIRCLE","Top","m",0.950156319,1,950.156319,"Self","Self"
"545",2,3,25,"Female",23,"r","Hungarian","Match","Self","EXPERIMENT","Self","Self","STAR","TRIANGLE","DIAMOND","CIRCLE","Bottom","m",0.816797666,1,816.797666,"Self","Self"
"546",2,3,26,"Female",23,"r","Hungarian","Mismatch","Self","EXPERIMENT","They","Self","STAR","TRIANGLE","DIAMOND","CIRCLE","Bottom","n",0.933327385,1,933.327385,"Self","Self"
"547",2,3,27,"Female",23,"r","Hungarian","Mismatch","You","EXPERIMENT","They","You","STAR","TRIANGLE","DIAMOND","CIRCLE","Bottom","n",0.933463589,1,933.463589,"You","Stranger"
"548",2,3,28,"Female",23,"r","Hungarian","Match","We","EXPERIMENT","We","We","STAR","TRIANGLE","DIAMOND","CIRCLE","Top","m",0.800150338,1,800.150338,"We","Group-Self"
"549",2,3,29,"Female",23,"r","Hungarian","Match","We","EXPERIMENT","We","We","STAR","TRIANGLE","DIAMOND","CIRCLE","Bottom","m",0.81685886,1,816.85886,"We","Group-Self"
"550",2,3,30,"Female",23,"r","Hungarian","Match","They","EXPERIMENT","They","They","STAR","TRIANGLE","DIAMOND","CIRCLE","Top","m",0.86679966,1,866.79966,"They","Group-Stranger"
"551",2,3,31,"Female",23,"r","Hungarian","Match","You","EXPERIMENT","You","You","STAR","TRIANGLE","DIAMOND","CIRCLE","Top","m",1.000161076,1,1000.161076,"You","Stranger"
"552",2,3,32,"Female",23,"r","Hungarian","Match","They","EXPERIMENT","They","They","STAR","TRIANGLE","DIAMOND","CIRCLE","Bottom","m",0.850206024,1,850.206024,"They","Group-Stranger"
"553",2,3,33,"Female",23,"r","Hungarian","Mismatch","Self","EXPERIMENT","We","Self","STAR","TRIANGLE","DIAMOND","CIRCLE","Bottom","n",0.91679968,1,916.79968,"Self","Self"
"554",2,3,34,"Female",23,"r","Hungarian","Match","We","EXPERIMENT","We","We","STAR","TRIANGLE","DIAMOND","CIRCLE","Top","m",1.000142521,1,1000.142521,"We","Group-Self"
"555",2,3,35,"Female",23,"r","Hungarian","Mismatch","You","EXPERIMENT","We","You","STAR","TRIANGLE","DIAMOND","CIRCLE","Top","n",0.933410292,1,933.410292,"You","Stranger"
"556",2,3,36,"Female",23,"r","Hungarian","Mismatch","Self","EXPERIMENT","You","Self","STAR","TRIANGLE","DIAMOND","CIRCLE","Top","n",0.900161037,1,900.161037,"Self","Self"
"557",2,3,37,"Female",23,"r","Hungarian","Mismatch","Self","EXPERIMENT","We","Self","STAR","TRIANGLE","DIAMOND","CIRCLE","Top","n",1.033514557,1,1033.514557,"Self","Self"
"558",2,3,38,"Female",23,"r","Hungarian","Match","They","EXPERIMENT","They","They","STAR","TRIANGLE","DIAMOND","CIRCLE","Bottom","m",0.916840344,1,916.840344,"They","Group-Stranger"
"559",2,3,39,"Female",23,"r","Hungarian","Match","We","EXPERIMENT","We","We","STAR","TRIANGLE","DIAMOND","CIRCLE","Bottom","m",0.883515288,1,883.515288,"We","Group-Self"
"560",2,3,40,"Female",23,"r","Hungarian","Mismatch","You","EXPERIMENT","They","You","STAR","TRIANGLE","DIAMOND","CIRCLE","Bottom","n",1.083475887,1,1083.475887,"You","Stranger"
"561",2,3,41,"Female",23,"r","Hungarian","Match","You","EXPERIMENT","You","You","STAR","TRIANGLE","DIAMOND","CIRCLE","Top","m",0.750134526,1,750.134526,"You","Stranger"
"562",2,3,42,"Female",23,"r","Hungarian","Match","You","EXPERIMENT","You","You","STAR","TRIANGLE","DIAMOND","CIRCLE","Bottom","m",0.933464774,1,933.464774,"You","Stranger"
"563",2,3,43,"Female",23,"r","Hungarian","Match","You","EXPERIMENT","You","You","STAR","TRIANGLE","DIAMOND","CIRCLE","Top","m",0.816907419,1,816.907419,"You","Stranger"
"564",2,3,44,"Female",23,"r","Hungarian","Match","They","EXPERIMENT","They","They","STAR","TRIANGLE","DIAMOND","CIRCLE","Bottom","m",0.816871888,1,816.871888,"They","Group-Stranger"
"565",2,3,45,"Female",23,"r","Hungarian","Mismatch","You","EXPERIMENT","We","You","STAR","TRIANGLE","DIAMOND","CIRCLE","Bottom","n",0.95016382,1,950.16382,"You","Stranger"
"566",2,3,46,"Female",23,"r","Hungarian","Match","They","EXPERIMENT","They","They","STAR","TRIANGLE","DIAMOND","CIRCLE","Top","m",0.933450561,1,933.450561,"They","Group-Stranger"
"567",2,3,47,"Female",23,"r","Hungarian","Match","You","EXPERIMENT","You","You","STAR","TRIANGLE","DIAMOND","CIRCLE","Top","m",0.733467458,1,733.467458,"You","Stranger"
"568",2,3,48,"Female",23,"r","Hungarian","Match","Self","EXPERIMENT","Self","Self","STAR","TRIANGLE","DIAMOND","CIRCLE","Top","m",0.816832408,1,816.832408,"Self","Self"
"569",2,3,49,"Female",23,"r","Hungarian","Match","Self","EXPERIMENT","Self","Self","STAR","TRIANGLE","DIAMOND","CIRCLE","Top","m",0.850171677,1,850.171677,"Self","Self"
"570",2,3,50,"Female",23,"r","Hungarian","Match","You","EXPERIMENT","You","You","STAR","TRIANGLE","DIAMOND","CIRCLE","Bottom","m",0.783476953,1,783.476953,"You","Stranger"
"571",2,3,51,"Female",23,"r","Hungarian","Mismatch","Self","EXPERIMENT","We","Self","STAR","TRIANGLE","DIAMOND","CIRCLE","Top","n",0.900159458,1,900.159458,"Self","Self"
"572",2,3,52,"Female",23,"r","Hungarian","Match","We","EXPERIMENT","We","We","STAR","TRIANGLE","DIAMOND","CIRCLE","Top","m",0.916805602,1,916.805602,"We","Group-Self"
"573",2,3,53,"Female",23,"r","Hungarian","Match","They","EXPERIMENT","They","They","STAR","TRIANGLE","DIAMOND","CIRCLE","Bottom","m",1.083337709,1,1083.337709,"They","Group-Stranger"
"574",2,3,54,"Female",23,"r","Hungarian","Mismatch","They","EXPERIMENT","Self","They","STAR","TRIANGLE","DIAMOND","CIRCLE","Bottom","n",1.016876309,1,1016.876309,"They","Group-Stranger"
"575",2,3,55,"Female",23,"r","Hungarian","Match","Self","EXPERIMENT","Self","Self","STAR","TRIANGLE","DIAMOND","CIRCLE","Bottom","m",0.966841153,1,966.841153,"Self","Self"
"576",2,3,56,"Female",23,"r","Hungarian","Mismatch","They","EXPERIMENT","You","They","STAR","TRIANGLE","DIAMOND","CIRCLE","Top","n",0.916861268,1,916.861268,"They","Group-Stranger"
"577",2,3,57,"Female",23,"r","Hungarian","Mismatch","Self","EXPERIMENT","You","Self","STAR","TRIANGLE","DIAMOND","CIRCLE","Bottom","n",0.966834047,1,966.834047,"Self","Self"
"578",2,3,58,"Female",23,"r","Hungarian","Match","They","EXPERIMENT","They","They","STAR","TRIANGLE","DIAMOND","CIRCLE","Bottom","m",0.766812254,1,766.812254,"They","Group-Stranger"
