"Subject","Block","Trial","Face_Gender","Shape","Label","Matching","Label_Identity","Origin_Identity","English_Identity","Standarlized_Identity","RT_ms","RT_sec","ACC"
1001,1,1,"M","shape1.jpg","Stranger","Nonmatching","Stranger","Self","Self","Self",430,0.43,1
1001,1,1,"F","shape1.jpg","Friend","Nonmatching","Friend","Self","Self","Self",1049,1.049,1
1001,1,2,"M","shape3.jpg","Friend","Nonmatching","Friend","Stranger","Stranger","Stranger",423,0.423,1
1001,1,2,"F","shape3.jpg","Friend","Nonmatching","Friend","Stranger","Stranger","Stranger",591,0.591,1
1001,1,3,"M","shape3.jpg","Stranger","Matching","Stranger","Stranger","Stranger","Stranger",567,0.567,1
1001,1,3,"F","shape1.jpg","Stranger","Nonmatching","Stranger","Self","Self","Self",541,0.541,1
1001,1,4,"M","shape3.jpg","Stranger","Matching","Stranger","Stranger","Stranger","Stranger",496,0.496,1
1001,1,4,"F","shape1.jpg","You","Matching","Self","Self","Self","Self",455,0.455,1
1001,1,5,"M","shape2.jpg","Friend","Matching","Friend","Friend","Friend","Close",518,0.518,1
1001,1,5,"F","shape3.jpg","Stranger","Matching","Stranger","Stranger","Stranger","Stranger",686,0.686,1
1001,1,6,"M","shape3.jpg","You","Nonmatching","Self","Stranger","Stranger","Stranger",631,0.631,1
1001,1,6,"F","shape2.jpg","Friend","Matching","Friend","Friend","Friend","Close",471,0.471,1
1001,1,7,"M","shape1.jpg","Stranger","Nonmatching","Stranger","Self","Self","Self",613,0.613,1
1001,1,7,"F","shape3.jpg","Stranger","Matching","Stranger","Stranger","Stranger","Stranger",976,0.976,1
1001,1,8,"M","shape3.jpg","Stranger","Matching","Stranger","Stranger","Stranger","Stranger",434,0.434,1
1001,1,8,"F","shape3.jpg","Stranger","Matching","Stranger","Stranger","Stranger","Stranger",655,0.655,1
1001,1,9,"M","shape3.jpg","Stranger","Matching","Stranger","Stranger","Stranger","Stranger",566,0.566,1
1001,1,9,"F","shape1.jpg","You","Matching","Self","Self","Self","Self",1761,1.761,1
1001,1,10,"M","shape2.jpg","Friend","Matching","Friend","Friend","Friend","Close",456,0.456,1
1001,1,10,"F","shape1.jpg","You","Matching","Self","Self","Self","Self",535,0.535,1
1001,1,11,"M","shape2.jpg","Stranger","Nonmatching","Stranger","Friend","Friend","Close",376,0.376,1
1001,1,11,"F","shape1.jpg","Friend","Nonmatching","Friend","Self","Self","Self",485,0.485,1
1001,1,12,"M","shape3.jpg","Friend","Nonmatching","Friend","Stranger","Stranger","Stranger",398,0.398,1
1001,1,12,"F","shape3.jpg","Friend","Nonmatching","Friend","Stranger","Stranger","Stranger",516,0.516,1
1001,1,13,"M","shape1.jpg","Friend","Nonmatching","Friend","Self","Self","Self",388,0.388,1
1001,1,13,"F","shape2.jpg","Stranger","Nonmatching","Stranger","Friend","Friend","Close",1233,1.233,1
1001,1,14,"M","shape2.jpg","You","Nonmatching","Self","Friend","Friend","Close",382,0.382,1
1001,1,14,"F","shape1.jpg","Friend","Nonmatching","Friend","Self","Self","Self",875,0.875,1
1001,1,15,"M","shape2.jpg","You","Nonmatching","Self","Friend","Friend","Close",380,0.38,1
1001,1,15,"F","shape2.jpg","Friend","Matching","Friend","Friend","Friend","Close",516,0.516,1
1001,1,16,"M","shape3.jpg","You","Nonmatching","Self","Stranger","Stranger","Stranger",510,0.51,1
1001,1,16,"F","shape3.jpg","Stranger","Matching","Stranger","Stranger","Stranger","Stranger",553,0.553,1
1001,1,17,"M","shape2.jpg","Friend","Matching","Friend","Friend","Friend","Close",668,0.668,1
1001,1,17,"F","shape3.jpg","Stranger","Matching","Stranger","Stranger","Stranger","Stranger",513,0.513,1
1001,1,18,"M","shape2.jpg","Stranger","Nonmatching","Stranger","Friend","Friend","Close",380,0.38,1
1001,1,18,"F","shape2.jpg","Friend","Matching","Friend","Friend","Friend","Close",552,0.552,1
1001,1,19,"M","shape1.jpg","Friend","Nonmatching","Friend","Self","Self","Self",356,0.356,1
1001,1,19,"F","shape2.jpg","Friend","Matching","Friend","Friend","Friend","Close",557,0.557,1
1001,1,20,"M","shape2.jpg","You","Nonmatching","Self","Friend","Friend","Close",408,0.408,1
1001,1,20,"F","shape1.jpg","Stranger","Nonmatching","Stranger","Self","Self","Self",424,0.424,1
1001,1,21,"M","shape2.jpg","You","Nonmatching","Self","Friend","Friend","Close",421,0.421,1
1001,1,21,"F","shape2.jpg","You","Nonmatching","Self","Friend","Friend","Close",960,0.96,1
1001,1,22,"M","shape3.jpg","Stranger","Matching","Stranger","Stranger","Stranger","Stranger",567,0.567,1
1001,1,22,"F","shape3.jpg","Stranger","Matching","Stranger","Stranger","Stranger","Stranger",557,0.557,1
1001,1,23,"M","shape1.jpg","Stranger","Nonmatching","Stranger","Self","Self","Self",347,0.347,1
1001,1,23,"F","shape1.jpg","Friend","Nonmatching","Friend","Self","Self","Self",490,0.49,1
1001,1,24,"M","shape2.jpg","Friend","Matching","Friend","Friend","Friend","Close",506,0.506,1
1001,1,24,"F","shape1.jpg","You","Matching","Self","Self","Self","Self",544,0.544,1
1001,1,25,"M","shape1.jpg","Friend","Nonmatching","Friend","Self","Self","Self",499,0.499,1
1001,1,25,"F","shape1.jpg","Stranger","Nonmatching","Stranger","Self","Self","Self",514,0.514,1
1001,1,26,"M","shape2.jpg","You","Nonmatching","Self","Friend","Friend","Close",379,0.379,1
1001,1,26,"F","shape3.jpg","You","Nonmatching","Self","Stranger","Stranger","Stranger",444,0.444,1
1001,1,27,"M","shape2.jpg","Stranger","Nonmatching","Stranger","Friend","Friend","Close",416,0.416,1
1001,1,27,"F","shape2.jpg","Friend","Matching","Friend","Friend","Friend","Close",796,0.796,1
1001,1,28,"M","shape2.jpg","Stranger","Nonmatching","Stranger","Friend","Friend","Close",427,0.427,1
1001,1,28,"F","shape3.jpg","Friend","Nonmatching","Friend","Stranger","Stranger","Stranger",546,0.546,1
1001,1,29,"M","shape1.jpg","You","Matching","Self","Self","Self","Self",453,0.453,1
1001,1,29,"F","shape2.jpg","You","Nonmatching","Self","Friend","Friend","Close",698,0.698,1
1001,1,30,"M","shape3.jpg","Stranger","Matching","Stranger","Stranger","Stranger","Stranger",471,0.471,1
1001,1,30,"F","shape1.jpg","Stranger","Nonmatching","Stranger","Self","Self","Self",556,0.556,1
1001,1,31,"M","shape2.jpg","Friend","Matching","Friend","Friend","Friend","Close",524,0.524,1
1001,1,31,"F","shape3.jpg","Stranger","Matching","Stranger","Stranger","Stranger","Stranger",975,0.975,1
1001,1,32,"M","shape1.jpg","Friend","Nonmatching","Friend","Self","Self","Self",358,0.358,1
1001,1,32,"F","shape1.jpg","Stranger","Nonmatching","Stranger","Self","Self","Self",529,0.529,1
1001,1,33,"M","shape3.jpg","Friend","Nonmatching","Friend","Stranger","Stranger","Stranger",436,0.436,1
1001,1,33,"F","shape2.jpg","You","Nonmatching","Self","Friend","Friend","Close",915,0.915,1
1001,1,34,"M","shape1.jpg","You","Matching","Self","Self","Self","Self",662,0.662,1
1001,1,34,"F","shape2.jpg","You","Nonmatching","Self","Friend","Friend","Close",506,0.506,1
1001,1,35,"M","shape1.jpg","You","Matching","Self","Self","Self","Self",406,0.406,1
1001,1,35,"F","shape1.jpg","Stranger","Nonmatching","Stranger","Self","Self","Self",681,0.681,1
1001,1,36,"M","shape1.jpg","You","Matching","Self","Self","Self","Self",409,0.409,1
1001,1,36,"F","shape3.jpg","Stranger","Matching","Stranger","Stranger","Stranger","Stranger",379,0.379,1
1001,1,37,"M","shape2.jpg","You","Nonmatching","Self","Friend","Friend","Close",504,0.504,1
1001,1,37,"F","shape2.jpg","Stranger","Nonmatching","Stranger","Friend","Friend","Close",730,0.73,1
1001,1,38,"M","shape1.jpg","You","Matching","Self","Self","Self","Self",765,0.765,1
1001,1,38,"F","shape2.jpg","You","Nonmatching","Self","Friend","Friend","Close",522,0.522,1
1001,1,39,"M","shape2.jpg","Friend","Matching","Friend","Friend","Friend","Close",350,0.35,1
1001,1,39,"F","shape2.jpg","Friend","Matching","Friend","Friend","Friend","Close",522,0.522,1
1001,1,40,"M","shape1.jpg","Stranger","Nonmatching","Stranger","Self","Self","Self",380,0.38,1
1001,1,40,"F","shape3.jpg","Stranger","Matching","Stranger","Stranger","Stranger","Stranger",458,0.458,1
1001,1,41,"M","shape2.jpg","Stranger","Nonmatching","Stranger","Friend","Friend","Close",548,0.548,1
1001,1,41,"F","shape3.jpg","Friend","Nonmatching","Friend","Stranger","Stranger","Stranger",598,0.598,1
1001,1,42,"M","shape3.jpg","You","Nonmatching","Self","Stranger","Stranger","Stranger",535,0.535,1
1001,1,42,"F","shape2.jpg","Friend","Matching","Friend","Friend","Friend","Close",1001,1.001,1
1001,1,43,"M","shape3.jpg","You","Nonmatching","Self","Stranger","Stranger","Stranger",444,0.444,1
1001,1,43,"F","shape2.jpg","Friend","Matching","Friend","Friend","Friend","Close",580,0.58,1
1001,1,44,"M","shape2.jpg","Friend","Matching","Friend","Friend","Friend","Close",339,0.339,1
1001,1,44,"F","shape3.jpg","You","Nonmatching","Self","Stranger","Stranger","Stranger",556,0.556,1
1001,1,45,"M","shape3.jpg","You","Nonmatching","Self","Stranger","Stranger","Stranger",373,0.373,1
1001,1,45,"F","shape3.jpg","Friend","Nonmatching","Friend","Stranger","Stranger","Stranger",517,0.517,1
1001,1,46,"M","shape1.jpg","You","Matching","Self","Self","Self","Self",418,0.418,1
1001,1,46,"F","shape1.jpg","You","Matching","Self","Self","Self","Self",617,0.617,1
1001,1,47,"M","shape1.jpg","Stranger","Nonmatching","Stranger","Self","Self","Self",432,0.432,1
1001,1,47,"F","shape2.jpg","Stranger","Nonmatching","Stranger","Friend","Friend","Close",903,0.903,1
1001,1,48,"M","shape3.jpg","Stranger","Matching","Stranger","Stranger","Stranger","Stranger",842,0.842,1
1001,1,48,"F","shape1.jpg","You","Matching","Self","Self","Self","Self",590,0.59,1
1001,1,49,"M","shape1.jpg","You","Matching","Self","Self","Self","Self",364,0.364,1
1001,1,49,"F","shape3.jpg","Stranger","Matching","Stranger","Stranger","Stranger","Stranger",885,0.885,1
1001,1,50,"M","shape1.jpg","Friend","Nonmatching","Friend","Self","Self","Self",423,0.423,1
1001,1,50,"F","shape3.jpg","You","Nonmatching","Self","Stranger","Stranger","Stranger",927,0.927,1
1001,1,51,"M","shape1.jpg","You","Matching","Self","Self","Self","Self",495,0.495,1
1001,1,51,"F","shape3.jpg","Friend","Nonmatching","Friend","Stranger","Stranger","Stranger",421,0.421,1
1001,1,52,"M","shape1.jpg","Friend","Nonmatching","Friend","Self","Self","Self",345,0.345,1
1001,1,52,"F","shape2.jpg","Stranger","Nonmatching","Stranger","Friend","Friend","Close",543,0.543,1
1001,1,53,"M","shape1.jpg","You","Matching","Self","Self","Self","Self",459,0.459,1
1001,1,53,"F","shape2.jpg","Friend","Matching","Friend","Friend","Friend","Close",605,0.605,1
1001,1,54,"M","shape3.jpg","Friend","Nonmatching","Friend","Stranger","Stranger","Stranger",409,0.409,1
1001,1,54,"F","shape2.jpg","Stranger","Nonmatching","Stranger","Friend","Friend","Close",925,0.925,1
1001,1,55,"M","shape1.jpg","Stranger","Nonmatching","Stranger","Self","Self","Self",503,0.503,1
1001,1,55,"F","shape2.jpg","Friend","Matching","Friend","Friend","Friend","Close",616,0.616,1
1001,1,56,"M","shape3.jpg","You","Nonmatching","Self","Stranger","Stranger","Stranger",399,0.399,1
1001,1,56,"F","shape2.jpg","Stranger","Nonmatching","Stranger","Friend","Friend","Close",650,0.65,1
1001,1,57,"M","shape3.jpg","Friend","Nonmatching","Friend","Stranger","Stranger","Stranger",450,0.45,1
1001,1,57,"F","shape1.jpg","You","Matching","Self","Self","Self","Self",398,0.398,1
1001,1,58,"M","shape2.jpg","Friend","Matching","Friend","Friend","Friend","Close",539,0.539,1
1001,1,58,"F","shape3.jpg","You","Nonmatching","Self","Stranger","Stranger","Stranger",588,0.588,1
1001,1,59,"M","shape3.jpg","Stranger","Matching","Stranger","Stranger","Stranger","Stranger",592,0.592,1
1001,1,59,"F","shape1.jpg","You","Matching","Self","Self","Self","Self",548,0.548,1
1001,1,60,"M","shape2.jpg","Friend","Matching","Friend","Friend","Friend","Close",459,0.459,1
1001,1,60,"F","shape3.jpg","Stranger","Matching","Stranger","Stranger","Stranger","Stranger",486,0.486,0
1001,1,61,"M","shape2.jpg","Friend","Matching","Friend","Friend","Friend","Close",430,0.43,1
1001,1,61,"F","shape1.jpg","Friend","Nonmatching","Friend","Self","Self","Self",876,0.876,1
1001,1,62,"M","shape1.jpg","You","Matching","Self","Self","Self","Self",406,0.406,1
1001,1,62,"F","shape1.jpg","You","Matching","Self","Self","Self","Self",961,0.961,1
1001,1,63,"M","shape3.jpg","Stranger","Matching","Stranger","Stranger","Stranger","Stranger",374,0.374,1
1001,1,63,"F","shape1.jpg","You","Matching","Self","Self","Self","Self",533,0.533,1
1001,1,64,"M","shape1.jpg","You","Matching","Self","Self","Self","Self",377,0.377,1
1001,1,64,"F","shape3.jpg","Stranger","Matching","Stranger","Stranger","Stranger","Stranger",725,0.725,1
1001,1,65,"M","shape2.jpg","Stranger","Nonmatching","Stranger","Friend","Friend","Close",682,0.682,1
1001,1,65,"F","shape1.jpg","You","Matching","Self","Self","Self","Self",447,0.447,1
1001,1,66,"M","shape3.jpg","Friend","Nonmatching","Friend","Stranger","Stranger","Stranger",975,0.975,1
1001,1,66,"F","shape2.jpg","Friend","Matching","Friend","Friend","Friend","Close",421,0.421,1
1001,1,67,"M","shape2.jpg","Friend","Matching","Friend","Friend","Friend","Close",494,0.494,1
1001,1,67,"F","shape3.jpg","You","Nonmatching","Self","Stranger","Stranger","Stranger",770,0.77,1
1001,1,68,"M","shape1.jpg","You","Matching","Self","Self","Self","Self",359,0.359,1
1001,1,68,"F","shape2.jpg","Friend","Matching","Friend","Friend","Friend","Close",497,0.497,1
1001,1,69,"M","shape3.jpg","Stranger","Matching","Stranger","Stranger","Stranger","Stranger",643,0.643,1
1001,1,69,"F","shape1.jpg","You","Matching","Self","Self","Self","Self",1048,1.048,1
1001,1,70,"M","shape3.jpg","Stranger","Matching","Stranger","Stranger","Stranger","Stranger",475,0.475,1
1001,1,70,"F","shape3.jpg","Friend","Nonmatching","Friend","Stranger","Stranger","Stranger",731,0.731,1
1001,1,71,"M","shape2.jpg","Friend","Matching","Friend","Friend","Friend","Close",435,0.435,1
1001,1,71,"F","shape1.jpg","Friend","Nonmatching","Friend","Self","Self","Self",932,0.932,1
1001,1,72,"M","shape2.jpg","Friend","Matching","Friend","Friend","Friend","Close",403,0.403,1
1001,1,72,"F","shape2.jpg","You","Nonmatching","Self","Friend","Friend","Close",612,0.612,1
1001,1,73,"M","shape2.jpg","Friend","Matching","Friend","Friend","Friend","Close",445,0.445,1
1001,1,73,"F","shape2.jpg","Friend","Matching","Friend","Friend","Friend","Close",426,0.426,1
1001,1,74,"M","shape3.jpg","Stranger","Matching","Stranger","Stranger","Stranger","Stranger",483,0.483,1
1001,1,74,"F","shape2.jpg","You","Nonmatching","Self","Friend","Friend","Close",848,0.848,1
1001,1,75,"M","shape1.jpg","You","Matching","Self","Self","Self","Self",658,0.658,1
1001,1,75,"F","shape1.jpg","Stranger","Nonmatching","Stranger","Self","Self","Self",837,0.837,1
1001,1,76,"M","shape3.jpg","You","Nonmatching","Self","Stranger","Stranger","Stranger",399,0.399,1
1001,1,76,"F","shape2.jpg","Stranger","Nonmatching","Stranger","Friend","Friend","Close",572,0.572,1
1001,1,77,"M","shape1.jpg","Friend","Nonmatching","Friend","Self","Self","Self",364,0.364,1
1001,1,77,"F","shape3.jpg","Stranger","Matching","Stranger","Stranger","Stranger","Stranger",462,0.462,1
1001,1,78,"M","shape2.jpg","You","Nonmatching","Self","Friend","Friend","Close",377,0.377,1
1001,1,78,"F","shape1.jpg","You","Matching","Self","Self","Self","Self",513,0.513,1
1001,1,79,"M","shape2.jpg","Stranger","Nonmatching","Stranger","Friend","Friend","Close",443,0.443,1
1001,1,79,"F","shape3.jpg","You","Nonmatching","Self","Stranger","Stranger","Stranger",450,0.45,1
1001,1,80,"M","shape3.jpg","Friend","Nonmatching","Friend","Stranger","Stranger","Stranger",499,0.499,1
1001,1,80,"F","shape2.jpg","Friend","Matching","Friend","Friend","Friend","Close",410,0.41,1
1001,1,81,"M","shape3.jpg","Stranger","Matching","Stranger","Stranger","Stranger","Stranger",629,0.629,1
1001,1,81,"F","shape3.jpg","You","Nonmatching","Self","Stranger","Stranger","Stranger",677,0.677,1
1001,1,82,"M","shape1.jpg","Stranger","Nonmatching","Stranger","Self","Self","Self",426,0.426,1
1001,1,82,"F","shape1.jpg","Friend","Nonmatching","Friend","Self","Self","Self",415,0.415,1
1001,1,83,"M","shape1.jpg","You","Matching","Self","Self","Self","Self",362,0.362,1
1001,1,83,"F","shape3.jpg","Stranger","Matching","Stranger","Stranger","Stranger","Stranger",493,0.493,1
1001,1,84,"M","shape3.jpg","Stranger","Matching","Stranger","Stranger","Stranger","Stranger",459,0.459,1
1001,1,84,"F","shape1.jpg","You","Matching","Self","Self","Self","Self",563,0.563,1
1001,2,85,"M","shape2.jpg","Stranger","Nonmatching","Stranger","Friend","Friend","Close",584,0.584,1
1001,2,85,"F","shape2.jpg","Friend","Matching","Friend","Friend","Friend","Close",584,0.584,1
1001,2,86,"M","shape2.jpg","You","Nonmatching","Self","Friend","Friend","Close",576,0.576,1
1001,2,86,"F","shape3.jpg","Stranger","Matching","Stranger","Stranger","Stranger","Stranger",440,0.44,1
1001,2,87,"M","shape2.jpg","Friend","Matching","Friend","Friend","Friend","Close",393,0.393,1
1001,2,87,"F","shape1.jpg","You","Matching","Self","Self","Self","Self",446,0.446,1
1001,2,88,"M","shape2.jpg","Stranger","Nonmatching","Stranger","Friend","Friend","Close",496,0.496,1
1001,2,88,"F","shape3.jpg","Friend","Nonmatching","Friend","Stranger","Stranger","Stranger",578,0.578,1
1001,2,89,"M","shape3.jpg","Friend","Nonmatching","Friend","Stranger","Stranger","Stranger",439,0.439,1
1001,2,89,"F","shape3.jpg","You","Nonmatching","Self","Stranger","Stranger","Stranger",835,0.835,1
1001,2,90,"M","shape3.jpg","Stranger","Matching","Stranger","Stranger","Stranger","Stranger",551,0.551,1
1001,2,90,"F","shape3.jpg","Friend","Nonmatching","Friend","Stranger","Stranger","Stranger",499,0.499,1
1001,2,91,"M","shape1.jpg","You","Matching","Self","Self","Self","Self",422,0.422,1
1001,2,91,"F","shape2.jpg","Stranger","Nonmatching","Stranger","Friend","Friend","Close",575,0.575,1
1001,2,92,"M","shape3.jpg","Friend","Nonmatching","Friend","Stranger","Stranger","Stranger",535,0.535,1
1001,2,92,"F","shape2.jpg","You","Nonmatching","Self","Friend","Friend","Close",517,0.517,1
1001,2,93,"M","shape3.jpg","You","Nonmatching","Self","Stranger","Stranger","Stranger",589,0.589,1
1001,2,93,"F","shape2.jpg","Friend","Matching","Friend","Friend","Friend","Close",572,0.572,1
1001,2,94,"M","shape1.jpg","Stranger","Nonmatching","Stranger","Self","Self","Self",411,0.411,1
1001,2,94,"F","shape1.jpg","Friend","Nonmatching","Friend","Self","Self","Self",651,0.651,1
1001,2,95,"M","shape2.jpg","Friend","Matching","Friend","Friend","Friend","Close",461,0.461,1
1001,2,95,"F","shape2.jpg","Friend","Matching","Friend","Friend","Friend","Close",608,0.608,1
1001,2,96,"M","shape2.jpg","Friend","Matching","Friend","Friend","Friend","Close",449,0.449,1
1001,2,96,"F","shape1.jpg","You","Matching","Self","Self","Self","Self",562,0.562,1
1001,2,97,"M","shape2.jpg","Friend","Matching","Friend","Friend","Friend","Close",479,0.479,1
1001,2,97,"F","shape3.jpg","Stranger","Matching","Stranger","Stranger","Stranger","Stranger",550,0.55,1
1001,2,98,"M","shape1.jpg","You","Matching","Self","Self","Self","Self",663,0.663,1
1001,2,98,"F","shape1.jpg","You","Matching","Self","Self","Self","Self",544,0.544,1
1001,2,99,"M","shape3.jpg","Stranger","Matching","Stranger","Stranger","Stranger","Stranger",652,0.652,1
1001,2,99,"F","shape3.jpg","You","Nonmatching","Self","Stranger","Stranger","Stranger",741,0.741,1
1001,2,100,"M","shape1.jpg","You","Matching","Self","Self","Self","Self",524,0.524,1
1001,2,100,"F","shape1.jpg","You","Matching","Self","Self","Self","Self",423,0.423,1
1001,2,101,"M","shape2.jpg","Stranger","Nonmatching","Stranger","Friend","Friend","Close",584,0.584,1
1001,2,101,"F","shape3.jpg","Friend","Nonmatching","Friend","Stranger","Stranger","Stranger",539,0.539,1
1001,2,102,"M","shape1.jpg","You","Matching","Self","Self","Self","Self",378,0.378,1
1001,2,102,"F","shape3.jpg","Stranger","Matching","Stranger","Stranger","Stranger","Stranger",686,0.686,1
1001,2,103,"M","shape2.jpg","You","Nonmatching","Self","Friend","Friend","Close",474,0.474,1
1001,2,103,"F","shape1.jpg","Friend","Nonmatching","Friend","Self","Self","Self",438,0.438,1
1001,2,104,"M","shape1.jpg","You","Matching","Self","Self","Self","Self",421,0.421,1
1001,2,104,"F","shape1.jpg","Stranger","Nonmatching","Stranger","Self","Self","Self",426,0.426,1
1001,2,105,"M","shape3.jpg","Friend","Nonmatching","Friend","Stranger","Stranger","Stranger",492,0.492,1
1001,2,105,"F","shape3.jpg","You","Nonmatching","Self","Stranger","Stranger","Stranger",576,0.576,1
1001,2,106,"M","shape3.jpg","Friend","Nonmatching","Friend","Stranger","Stranger","Stranger",409,0.409,1
1001,2,106,"F","shape1.jpg","Stranger","Nonmatching","Stranger","Self","Self","Self",488,0.488,1
1001,2,107,"M","shape2.jpg","You","Nonmatching","Self","Friend","Friend","Close",454,0.454,1
1001,2,107,"F","shape1.jpg","You","Matching","Self","Self","Self","Self",559,0.559,1
1001,2,108,"M","shape1.jpg","Friend","Nonmatching","Friend","Self","Self","Self",553,0.553,1
1001,2,108,"F","shape2.jpg","Stranger","Nonmatching","Stranger","Friend","Friend","Close",537,0.537,1
1001,2,109,"M","shape1.jpg","You","Matching","Self","Self","Self","Self",340,0.34,1
1001,2,109,"F","shape1.jpg","You","Matching","Self","Self","Self","Self",536,0.536,1
1001,2,110,"M","shape1.jpg","Friend","Nonmatching","Friend","Self","Self","Self",501,0.501,1
1001,2,110,"F","shape3.jpg","Friend","Nonmatching","Friend","Stranger","Stranger","Stranger",429,0.429,1
1001,2,111,"M","shape1.jpg","Friend","Nonmatching","Friend","Self","Self","Self",426,0.426,1
1001,2,111,"F","shape2.jpg","Stranger","Nonmatching","Stranger","Friend","Friend","Close",866,0.866,1
1001,2,112,"M","shape2.jpg","You","Nonmatching","Self","Friend","Friend","Close",575,0.575,1
1001,2,112,"F","shape3.jpg","You","Nonmatching","Self","Stranger","Stranger","Stranger",443,0.443,1
1001,2,113,"M","shape1.jpg","Friend","Nonmatching","Friend","Self","Self","Self",547,0.547,1
1001,2,113,"F","shape3.jpg","Stranger","Matching","Stranger","Stranger","Stranger","Stranger",443,0.443,1
1001,2,114,"M","shape1.jpg","You","Matching","Self","Self","Self","Self",560,0.56,1
1001,2,114,"F","shape1.jpg","Friend","Nonmatching","Friend","Self","Self","Self",400,0.4,1
1001,2,115,"M","shape3.jpg","Stranger","Matching","Stranger","Stranger","Stranger","Stranger",535,0.535,1
1001,2,115,"F","shape1.jpg","You","Matching","Self","Self","Self","Self",489,0.489,1
1001,2,116,"M","shape2.jpg","Stranger","Nonmatching","Stranger","Friend","Friend","Close",801,0.801,1
1001,2,116,"F","shape3.jpg","Stranger","Matching","Stranger","Stranger","Stranger","Stranger",647,0.647,1
1001,2,117,"M","shape1.jpg","You","Matching","Self","Self","Self","Self",554,0.554,1
1001,2,117,"F","shape2.jpg","Friend","Matching","Friend","Friend","Friend","Close",521,0.521,1
1001,2,118,"M","shape2.jpg","Friend","Matching","Friend","Friend","Friend","Close",412,0.412,1
1001,2,118,"F","shape1.jpg","Stranger","Nonmatching","Stranger","Self","Self","Self",455,0.455,1
1001,2,119,"M","shape3.jpg","Stranger","Matching","Stranger","Stranger","Stranger","Stranger",494,0.494,1
1001,2,119,"F","shape2.jpg","Friend","Matching","Friend","Friend","Friend","Close",545,0.545,1
1001,2,120,"M","shape3.jpg","You","Nonmatching","Self","Stranger","Stranger","Stranger",452,0.452,1
1001,2,120,"F","shape2.jpg","You","Nonmatching","Self","Friend","Friend","Close",583,0.583,1
1001,2,121,"M","shape3.jpg","Stranger","Matching","Stranger","Stranger","Stranger","Stranger",358,0.358,1
1001,2,121,"F","shape2.jpg","You","Nonmatching","Self","Friend","Friend","Close",1001,1.001,1
1001,2,122,"M","shape1.jpg","You","Matching","Self","Self","Self","Self",466,0.466,1
1001,2,122,"F","shape3.jpg","Stranger","Matching","Stranger","Stranger","Stranger","Stranger",542,0.542,1
1001,2,123,"M","shape2.jpg","Friend","Matching","Friend","Friend","Friend","Close",648,0.648,1
1001,2,123,"F","shape1.jpg","You","Matching","Self","Self","Self","Self",449,0.449,1
1001,2,124,"M","shape2.jpg","You","Nonmatching","Self","Friend","Friend","Close",446,0.446,1
1001,2,124,"F","shape3.jpg","You","Nonmatching","Self","Stranger","Stranger","Stranger",483,0.483,1
1001,2,125,"M","shape3.jpg","You","Nonmatching","Self","Stranger","Stranger","Stranger",463,0.463,1
1001,2,125,"F","shape3.jpg","Stranger","Matching","Stranger","Stranger","Stranger","Stranger",584,0.584,0
1001,2,126,"M","shape2.jpg","Friend","Matching","Friend","Friend","Friend","Close",584,0.584,1
1001,2,126,"F","shape3.jpg","Friend","Nonmatching","Friend","Stranger","Stranger","Stranger",653,0.653,1
1001,2,127,"M","shape1.jpg","You","Matching","Self","Self","Self","Self",983,0.983,1
1001,2,127,"F","shape1.jpg","Friend","Nonmatching","Friend","Self","Self","Self",1011,1.011,1
1001,2,128,"M","shape2.jpg","You","Nonmatching","Self","Friend","Friend","Close",657,0.657,1
1001,2,128,"F","shape1.jpg","Stranger","Nonmatching","Stranger","Self","Self","Self",730,0.73,1
1001,2,129,"M","shape1.jpg","Friend","Nonmatching","Friend","Self","Self","Self",388,0.388,1
1001,2,129,"F","shape3.jpg","Stranger","Matching","Stranger","Stranger","Stranger","Stranger",506,0.506,1
1001,2,130,"M","shape3.jpg","Stranger","Matching","Stranger","Stranger","Stranger","Stranger",511,0.511,1
1001,2,130,"F","shape3.jpg","Stranger","Matching","Stranger","Stranger","Stranger","Stranger",1144,1.144,1
1001,2,131,"M","shape1.jpg","You","Matching","Self","Self","Self","Self",475,0.475,1
1001,2,131,"F","shape1.jpg","Stranger","Nonmatching","Stranger","Self","Self","Self",417,0.417,1
1001,2,132,"M","shape2.jpg","Friend","Matching","Friend","Friend","Friend","Close",512,0.512,1
1001,2,132,"F","shape2.jpg","You","Nonmatching","Self","Friend","Friend","Close",1246,1.246,1
1001,2,133,"M","shape3.jpg","Stranger","Matching","Stranger","Stranger","Stranger","Stranger",479,0.479,1
1001,2,133,"F","shape2.jpg","Friend","Matching","Friend","Friend","Friend","Close",474,0.474,1
1001,2,134,"M","shape3.jpg","Friend","Nonmatching","Friend","Stranger","Stranger","Stranger",762,0.762,1
1001,2,134,"F","shape1.jpg","You","Matching","Self","Self","Self","Self",456,0.456,1
1001,2,135,"M","shape2.jpg","Stranger","Nonmatching","Stranger","Friend","Friend","Close",557,0.557,1
1001,2,135,"F","shape2.jpg","You","Nonmatching","Self","Friend","Friend","Close",589,0.589,1
1001,2,136,"M","shape3.jpg","Friend","Nonmatching","Friend","Stranger","Stranger","Stranger",424,0.424,1
1001,2,136,"F","shape3.jpg","You","Nonmatching","Self","Stranger","Stranger","Stranger",468,0.468,1
1001,2,137,"M","shape1.jpg","Stranger","Nonmatching","Stranger","Self","Self","Self",426,0.426,1
1001,2,137,"F","shape2.jpg","Stranger","Nonmatching","Stranger","Friend","Friend","Close",838,0.838,1
1001,2,138,"M","shape2.jpg","Stranger","Nonmatching","Stranger","Friend","Friend","Close",545,0.545,1
1001,2,138,"F","shape2.jpg","Friend","Matching","Friend","Friend","Friend","Close",502,0.502,1
1001,2,139,"M","shape1.jpg","Friend","Nonmatching","Friend","Self","Self","Self",437,0.437,1
1001,2,139,"F","shape1.jpg","Stranger","Nonmatching","Stranger","Self","Self","Self",624,0.624,1
1001,2,140,"M","shape3.jpg","Stranger","Matching","Stranger","Stranger","Stranger","Stranger",645,0.645,1
1001,2,140,"F","shape2.jpg","You","Nonmatching","Self","Friend","Friend","Close",518,0.518,1
1001,2,141,"M","shape1.jpg","You","Matching","Self","Self","Self","Self",439,0.439,1
1001,2,141,"F","shape3.jpg","Stranger","Matching","Stranger","Stranger","Stranger","Stranger",722,0.722,1
1001,2,142,"M","shape3.jpg","Stranger","Matching","Stranger","Stranger","Stranger","Stranger",523,0.523,1
1001,2,142,"F","shape1.jpg","Friend","Nonmatching","Friend","Self","Self","Self",454,0.454,1
1001,2,143,"M","shape1.jpg","Friend","Nonmatching","Friend","Self","Self","Self",525,0.525,1
1001,2,143,"F","shape2.jpg","Stranger","Nonmatching","Stranger","Friend","Friend","Close",642,0.642,1
1001,2,144,"M","shape3.jpg","Stranger","Matching","Stranger","Stranger","Stranger","Stranger",501,0.501,1
1001,2,144,"F","shape1.jpg","You","Matching","Self","Self","Self","Self",684,0.684,1
1001,2,145,"M","shape2.jpg","Stranger","Nonmatching","Stranger","Friend","Friend","Close",435,0.435,1
1001,2,145,"F","shape1.jpg","Stranger","Nonmatching","Stranger","Self","Self","Self",378,0.378,1
1001,2,146,"M","shape2.jpg","Friend","Matching","Friend","Friend","Friend","Close",447,0.447,1
1001,2,146,"F","shape1.jpg","You","Matching","Self","Self","Self","Self",555,0.555,1
1001,2,147,"M","shape2.jpg","Friend","Matching","Friend","Friend","Friend","Close",376,0.376,1
1001,2,147,"F","shape3.jpg","You","Nonmatching","Self","Stranger","Stranger","Stranger",475,0.475,1
1001,2,148,"M","shape3.jpg","You","Nonmatching","Self","Stranger","Stranger","Stranger",431,0.431,1
1001,2,148,"F","shape2.jpg","Stranger","Nonmatching","Stranger","Friend","Friend","Close",583,0.583,1
1001,2,149,"M","shape1.jpg","Stranger","Nonmatching","Stranger","Self","Self","Self",391,0.391,1
1001,2,149,"F","shape3.jpg","Stranger","Matching","Stranger","Stranger","Stranger","Stranger",522,0.522,1
1001,2,150,"M","shape1.jpg","Stranger","Nonmatching","Stranger","Self","Self","Self",1021,1.021,1
1001,2,150,"F","shape3.jpg","Friend","Nonmatching","Friend","Stranger","Stranger","Stranger",537,0.537,1
1001,2,151,"M","shape1.jpg","You","Matching","Self","Self","Self","Self",680,0.68,1
1001,2,151,"F","shape1.jpg","You","Matching","Self","Self","Self","Self",704,0.704,1
1001,2,152,"M","shape3.jpg","Friend","Nonmatching","Friend","Stranger","Stranger","Stranger",425,0.425,1
1001,2,152,"F","shape2.jpg","You","Nonmatching","Self","Friend","Friend","Close",477,0.477,1
1001,2,153,"M","shape3.jpg","Stranger","Matching","Stranger","Stranger","Stranger","Stranger",478,0.478,1
1001,2,153,"F","shape2.jpg","Friend","Matching","Friend","Friend","Friend","Close",511,0.511,1
1001,2,154,"M","shape1.jpg","Stranger","Nonmatching","Stranger","Self","Self","Self",388,0.388,1
1001,2,154,"F","shape2.jpg","Friend","Matching","Friend","Friend","Friend","Close",473,0.473,1
1001,2,155,"M","shape2.jpg","You","Nonmatching","Self","Friend","Friend","Close",385,0.385,1
1001,2,155,"F","shape1.jpg","You","Matching","Self","Self","Self","Self",518,0.518,1
1001,2,156,"M","shape3.jpg","Stranger","Matching","Stranger","Stranger","Stranger","Stranger",573,0.573,1
1001,2,156,"F","shape3.jpg","Friend","Nonmatching","Friend","Stranger","Stranger","Stranger",479,0.479,1
1001,2,157,"M","shape2.jpg","Friend","Matching","Friend","Friend","Friend","Close",499,0.499,1
1001,2,157,"F","shape3.jpg","Stranger","Matching","Stranger","Stranger","Stranger","Stranger",440,0.44,1
1001,2,158,"M","shape1.jpg","You","Matching","Self","Self","Self","Self",468,0.468,1
1001,2,158,"F","shape2.jpg","Stranger","Nonmatching","Stranger","Friend","Friend","Close",651,0.651,1
1001,2,159,"M","shape3.jpg","You","Nonmatching","Self","Stranger","Stranger","Stranger",451,0.451,1
1001,2,159,"F","shape3.jpg","Stranger","Matching","Stranger","Stranger","Stranger","Stranger",821,0.821,1
1001,2,160,"M","shape3.jpg","Stranger","Matching","Stranger","Stranger","Stranger","Stranger",622,0.622,1
1001,2,160,"F","shape2.jpg","Friend","Matching","Friend","Friend","Friend","Close",407,0.407,1
1001,2,161,"M","shape2.jpg","Friend","Matching","Friend","Friend","Friend","Close",976,0.976,1
1001,2,161,"F","shape3.jpg","Stranger","Matching","Stranger","Stranger","Stranger","Stranger",554,0.554,1
1001,2,162,"M","shape3.jpg","Stranger","Matching","Stranger","Stranger","Stranger","Stranger",402,0.402,1
1001,2,162,"F","shape2.jpg","Friend","Matching","Friend","Friend","Friend","Close",515,0.515,1
1001,2,163,"M","shape1.jpg","Stranger","Nonmatching","Stranger","Self","Self","Self",362,0.362,1
1001,2,163,"F","shape2.jpg","Friend","Matching","Friend","Friend","Friend","Close",497,0.497,1
1001,2,164,"M","shape3.jpg","You","Nonmatching","Self","Stranger","Stranger","Stranger",418,0.418,1
1001,2,164,"F","shape2.jpg","Friend","Matching","Friend","Friend","Friend","Close",494,0.494,1
1001,2,165,"M","shape3.jpg","You","Nonmatching","Self","Stranger","Stranger","Stranger",417,0.417,1
1001,2,165,"F","shape1.jpg","You","Matching","Self","Self","Self","Self",920,0.92,1
1001,2,166,"M","shape2.jpg","Friend","Matching","Friend","Friend","Friend","Close",491,0.491,1
1001,2,166,"F","shape1.jpg","Friend","Nonmatching","Friend","Self","Self","Self",385,0.385,1
1001,2,167,"M","shape1.jpg","Stranger","Nonmatching","Stranger","Self","Self","Self",419,0.419,1
1001,2,167,"F","shape2.jpg","Friend","Matching","Friend","Friend","Friend","Close",526,0.526,1
1001,2,168,"M","shape2.jpg","Friend","Matching","Friend","Friend","Friend","Close",613,0.613,1
1001,2,168,"F","shape1.jpg","Friend","Nonmatching","Friend","Self","Self","Self",425,0.425,1
1001,3,169,"M","shape3.jpg","You","Nonmatching","Self","Stranger","Stranger","Stranger",498,0.498,1
1001,3,169,"F","shape1.jpg","You","Matching","Self","Self","Self","Self",460,0.46,1
1001,3,170,"M","shape3.jpg","You","Nonmatching","Self","Stranger","Stranger","Stranger",489,0.489,1
1001,3,170,"F","shape2.jpg","You","Nonmatching","Self","Friend","Friend","Close",481,0.481,1
1001,3,171,"M","shape2.jpg","You","Nonmatching","Self","Friend","Friend","Close",414,0.414,1
1001,3,171,"F","shape1.jpg","Friend","Nonmatching","Friend","Self","Self","Self",392,0.392,1
1001,3,172,"M","shape2.jpg","Friend","Matching","Friend","Friend","Friend","Close",318,0.318,1
1001,3,172,"F","shape2.jpg","Friend","Matching","Friend","Friend","Friend","Close",418,0.418,1
1001,3,173,"M","shape3.jpg","You","Nonmatching","Self","Stranger","Stranger","Stranger",459,0.459,1
1001,3,173,"F","shape3.jpg","Stranger","Matching","Stranger","Stranger","Stranger","Stranger",599,0.599,1
1001,3,174,"M","shape2.jpg","Friend","Matching","Friend","Friend","Friend","Close",524,0.524,1
1001,3,174,"F","shape3.jpg","Stranger","Matching","Stranger","Stranger","Stranger","Stranger",479,0.479,1
1001,3,175,"M","shape3.jpg","Stranger","Matching","Stranger","Stranger","Stranger","Stranger",442,0.442,1
1001,3,175,"F","shape2.jpg","Friend","Matching","Friend","Friend","Friend","Close",444,0.444,1
1001,3,176,"M","shape2.jpg","You","Nonmatching","Self","Friend","Friend","Close",390,0.39,1
1001,3,176,"F","shape3.jpg","Friend","Nonmatching","Friend","Stranger","Stranger","Stranger",621,0.621,1
1001,3,177,"M","shape3.jpg","Friend","Nonmatching","Friend","Stranger","Stranger","Stranger",426,0.426,1
1001,3,177,"F","shape3.jpg","Stranger","Matching","Stranger","Stranger","Stranger","Stranger",432,0.432,1
1001,3,178,"M","shape2.jpg","Stranger","Nonmatching","Stranger","Friend","Friend","Close",498,0.498,1
1001,3,178,"F","shape2.jpg","You","Nonmatching","Self","Friend","Friend","Close",535,0.535,1
1001,3,179,"M","shape1.jpg","You","Matching","Self","Self","Self","Self",474,0.474,1
1001,3,179,"F","shape1.jpg","Stranger","Nonmatching","Stranger","Self","Self","Self",431,0.431,1
1001,3,180,"M","shape3.jpg","Stranger","Matching","Stranger","Stranger","Stranger","Stranger",519,0.519,1
1001,3,180,"F","shape1.jpg","Friend","Nonmatching","Friend","Self","Self","Self",470,0.47,1
1001,3,181,"M","shape1.jpg","Friend","Nonmatching","Friend","Self","Self","Self",905,0.905,1
1001,3,181,"F","shape3.jpg","Stranger","Matching","Stranger","Stranger","Stranger","Stranger",558,0.558,1
1001,3,182,"M","shape2.jpg","Stranger","Nonmatching","Stranger","Friend","Friend","Close",432,0.432,1
1001,3,182,"F","shape3.jpg","Stranger","Matching","Stranger","Stranger","Stranger","Stranger",488,0.488,1
1001,3,183,"M","shape1.jpg","Stranger","Nonmatching","Stranger","Self","Self","Self",494,0.494,1
1001,3,183,"F","shape1.jpg","Friend","Nonmatching","Friend","Self","Self","Self",441,0.441,1
1001,3,184,"M","shape2.jpg","Stranger","Nonmatching","Stranger","Friend","Friend","Close",551,0.551,1
1001,3,184,"F","shape3.jpg","You","Nonmatching","Self","Stranger","Stranger","Stranger",549,0.549,1
1001,3,185,"M","shape2.jpg","Stranger","Nonmatching","Stranger","Friend","Friend","Close",1069,1.069,1
1001,3,185,"F","shape2.jpg","Stranger","Nonmatching","Stranger","Friend","Friend","Close",557,0.557,1
1001,3,186,"M","shape1.jpg","You","Matching","Self","Self","Self","Self",504,0.504,1
1001,3,186,"F","shape1.jpg","Friend","Nonmatching","Friend","Self","Self","Self",496,0.496,1
1001,3,187,"M","shape3.jpg","Friend","Nonmatching","Friend","Stranger","Stranger","Stranger",540,0.54,1
1001,3,187,"F","shape2.jpg","Stranger","Nonmatching","Stranger","Friend","Friend","Close",388,0.388,1
1001,3,188,"M","shape1.jpg","Friend","Nonmatching","Friend","Self","Self","Self",405,0.405,1
1001,3,188,"F","shape3.jpg","You","Nonmatching","Self","Stranger","Stranger","Stranger",519,0.519,1
1001,3,189,"M","shape3.jpg","Stranger","Matching","Stranger","Stranger","Stranger","Stranger",695,0.695,1
1001,3,189,"F","shape3.jpg","Friend","Nonmatching","Friend","Stranger","Stranger","Stranger",455,0.455,1
1001,3,190,"M","shape1.jpg","Friend","Nonmatching","Friend","Self","Self","Self",542,0.542,1
1001,3,190,"F","shape1.jpg","You","Matching","Self","Self","Self","Self",772,0.772,1
1001,3,191,"M","shape3.jpg","You","Nonmatching","Self","Stranger","Stranger","Stranger",449,0.449,1
1001,3,191,"F","shape1.jpg","Friend","Nonmatching","Friend","Self","Self","Self",385,0.385,1
1001,3,192,"M","shape3.jpg","Stranger","Matching","Stranger","Stranger","Stranger","Stranger",420,0.42,1
1001,3,192,"F","shape1.jpg","Stranger","Nonmatching","Stranger","Self","Self","Self",425,0.425,1
1001,3,193,"M","shape2.jpg","Friend","Matching","Friend","Friend","Friend","Close",628,0.628,1
1001,3,193,"F","shape3.jpg","Stranger","Matching","Stranger","Stranger","Stranger","Stranger",449,0.449,1
1001,3,194,"M","shape2.jpg","Friend","Matching","Friend","Friend","Friend","Close",466,0.466,1
1001,3,194,"F","shape1.jpg","You","Matching","Self","Self","Self","Self",539,0.539,1
1001,3,195,"M","shape1.jpg","Stranger","Nonmatching","Stranger","Self","Self","Self",366,0.366,1
1001,3,195,"F","shape1.jpg","You","Matching","Self","Self","Self","Self",460,0.46,1
1001,3,196,"M","shape3.jpg","You","Nonmatching","Self","Stranger","Stranger","Stranger",504,0.504,1
1001,3,196,"F","shape1.jpg","Stranger","Nonmatching","Stranger","Self","Self","Self",359,0.359,1
1001,3,197,"M","shape1.jpg","Stranger","Nonmatching","Stranger","Self","Self","Self",587,0.587,1
1001,3,197,"F","shape1.jpg","Stranger","Nonmatching","Stranger","Self","Self","Self",664,0.664,1
1001,3,198,"M","shape3.jpg","Stranger","Matching","Stranger","Stranger","Stranger","Stranger",1153,1.153,1
1001,3,198,"F","shape1.jpg","Stranger","Nonmatching","Stranger","Self","Self","Self",525,0.525,1
1001,3,199,"M","shape2.jpg","Friend","Matching","Friend","Friend","Friend","Close",513,0.513,1
1001,3,199,"F","shape2.jpg","Friend","Matching","Friend","Friend","Friend","Close",538,0.538,1
1001,3,200,"M","shape1.jpg","Friend","Nonmatching","Friend","Self","Self","Self",393,0.393,1
1001,3,200,"F","shape3.jpg","Friend","Nonmatching","Friend","Stranger","Stranger","Stranger",416,0.416,1
1001,3,201,"M","shape3.jpg","Stranger","Matching","Stranger","Stranger","Stranger","Stranger",458,0.458,1
1001,3,201,"F","shape2.jpg","Friend","Matching","Friend","Friend","Friend","Close",499,0.499,1
1001,3,202,"M","shape1.jpg","Stranger","Nonmatching","Stranger","Self","Self","Self",377,0.377,1
1001,3,202,"F","shape3.jpg","Friend","Nonmatching","Friend","Stranger","Stranger","Stranger",434,0.434,1
1001,3,203,"M","shape2.jpg","You","Nonmatching","Self","Friend","Friend","Close",475,0.475,1
1001,3,203,"F","shape2.jpg","Friend","Matching","Friend","Friend","Friend","Close",456,0.456,1
1001,3,204,"M","shape1.jpg","You","Matching","Self","Self","Self","Self",418,0.418,1
1001,3,204,"F","shape3.jpg","Stranger","Matching","Stranger","Stranger","Stranger","Stranger",550,0.55,1
1001,3,205,"M","shape2.jpg","You","Nonmatching","Self","Friend","Friend","Close",557,0.557,1
1001,3,205,"F","shape1.jpg","Stranger","Nonmatching","Stranger","Self","Self","Self",520,0.52,1
1001,3,206,"M","shape2.jpg","You","Nonmatching","Self","Friend","Friend","Close",585,0.585,1
1001,3,206,"F","shape1.jpg","Friend","Nonmatching","Friend","Self","Self","Self",439,0.439,1
1001,3,207,"M","shape2.jpg","Friend","Matching","Friend","Friend","Friend","Close",679,0.679,1
1001,3,207,"F","shape1.jpg","You","Matching","Self","Self","Self","Self",363,0.363,1
1001,3,208,"M","shape1.jpg","Stranger","Nonmatching","Stranger","Self","Self","Self",482,0.482,1
1001,3,208,"F","shape2.jpg","Stranger","Nonmatching","Stranger","Friend","Friend","Close",446,0.446,1
1001,3,209,"M","shape2.jpg","Friend","Matching","Friend","Friend","Friend","Close",527,0.527,1
1001,3,209,"F","shape3.jpg","Stranger","Matching","Stranger","Stranger","Stranger","Stranger",426,0.426,1
1001,3,210,"M","shape2.jpg","Friend","Matching","Friend","Friend","Friend","Close",529,0.529,1
1001,3,210,"F","shape3.jpg","Stranger","Matching","Stranger","Stranger","Stranger","Stranger",488,0.488,1
1001,3,211,"M","shape3.jpg","Stranger","Matching","Stranger","Stranger","Stranger","Stranger",574,0.574,1
1001,3,211,"F","shape1.jpg","You","Matching","Self","Self","Self","Self",488,0.488,1
1001,3,212,"M","shape2.jpg","You","Nonmatching","Self","Friend","Friend","Close",393,0.393,1
1001,3,212,"F","shape3.jpg","Stranger","Matching","Stranger","Stranger","Stranger","Stranger",442,0.442,1
1001,3,213,"M","shape2.jpg","You","Nonmatching","Self","Friend","Friend","Close",459,0.459,1
1001,3,213,"F","shape3.jpg","Friend","Nonmatching","Friend","Stranger","Stranger","Stranger",666,0.666,1
1001,3,214,"M","shape2.jpg","Stranger","Nonmatching","Stranger","Friend","Friend","Close",492,0.492,1
1001,3,214,"F","shape1.jpg","You","Matching","Self","Self","Self","Self",604,0.604,1
1001,3,215,"M","shape3.jpg","Stranger","Matching","Stranger","Stranger","Stranger","Stranger",648,0.648,1
1001,3,215,"F","shape3.jpg","You","Nonmatching","Self","Stranger","Stranger","Stranger",436,0.436,1
1001,3,216,"M","shape1.jpg","You","Matching","Self","Self","Self","Self",373,0.373,1
1001,3,216,"F","shape3.jpg","You","Nonmatching","Self","Stranger","Stranger","Stranger",544,0.544,1
1001,3,217,"M","shape3.jpg","Stranger","Matching","Stranger","Stranger","Stranger","Stranger",544,0.544,1
1001,3,217,"F","shape1.jpg","Stranger","Nonmatching","Stranger","Self","Self","Self",409,0.409,1
1001,3,218,"M","shape1.jpg","Friend","Nonmatching","Friend","Self","Self","Self",430,0.43,1
1001,3,218,"F","shape2.jpg","Stranger","Nonmatching","Stranger","Friend","Friend","Close",476,0.476,1
1001,3,219,"M","shape3.jpg","Stranger","Matching","Stranger","Stranger","Stranger","Stranger",516,0.516,1
1001,3,219,"F","shape3.jpg","You","Nonmatching","Self","Stranger","Stranger","Stranger",470,0.47,1
1001,3,220,"M","shape2.jpg","Friend","Matching","Friend","Friend","Friend","Close",452,0.452,1
1001,3,220,"F","shape1.jpg","You","Matching","Self","Self","Self","Self",392,0.392,1
1001,3,221,"M","shape1.jpg","You","Matching","Self","Self","Self","Self",446,0.446,1
1001,3,221,"F","shape2.jpg","Friend","Matching","Friend","Friend","Friend","Close",562,0.562,1
1001,3,222,"M","shape1.jpg","You","Matching","Self","Self","Self","Self",495,0.495,1
1001,3,222,"F","shape2.jpg","Stranger","Nonmatching","Stranger","Friend","Friend","Close",391,0.391,1
1001,3,223,"M","shape3.jpg","Stranger","Matching","Stranger","Stranger","Stranger","Stranger",410,0.41,1
1001,3,223,"F","shape2.jpg","Stranger","Nonmatching","Stranger","Friend","Friend","Close",425,0.425,1
1001,3,224,"M","shape1.jpg","Friend","Nonmatching","Friend","Self","Self","Self",396,0.396,1
1001,3,224,"F","shape1.jpg","You","Matching","Self","Self","Self","Self",458,0.458,1
1001,3,225,"M","shape3.jpg","Stranger","Matching","Stranger","Stranger","Stranger","Stranger",536,0.536,1
1001,3,225,"F","shape3.jpg","Stranger","Matching","Stranger","Stranger","Stranger","Stranger",489,0.489,1
1001,3,226,"M","shape3.jpg","You","Nonmatching","Self","Stranger","Stranger","Stranger",636,0.636,1
1001,3,226,"F","shape3.jpg","Stranger","Matching","Stranger","Stranger","Stranger","Stranger",663,0.663,1
1001,3,227,"M","shape3.jpg","Friend","Nonmatching","Friend","Stranger","Stranger","Stranger",566,0.566,1
1001,3,227,"F","shape2.jpg","Friend","Matching","Friend","Friend","Friend","Close",363,0.363,1
1001,3,228,"M","shape2.jpg","Friend","Matching","Friend","Friend","Friend","Close",498,0.498,1
1001,3,228,"F","shape2.jpg","Friend","Matching","Friend","Friend","Friend","Close",427,0.427,1
1001,3,229,"M","shape2.jpg","Friend","Matching","Friend","Friend","Friend","Close",463,0.463,1
1001,3,229,"F","shape3.jpg","Stranger","Matching","Stranger","Stranger","Stranger","Stranger",725,0.725,1
1001,3,230,"M","shape1.jpg","Stranger","Nonmatching","Stranger","Self","Self","Self",723,0.723,1
1001,3,230,"F","shape1.jpg","You","Matching","Self","Self","Self","Self",473,0.473,1
1001,3,231,"M","shape2.jpg","Friend","Matching","Friend","Friend","Friend","Close",693,0.693,1
1001,3,231,"F","shape1.jpg","You","Matching","Self","Self","Self","Self",482,0.482,1
1001,3,232,"M","shape3.jpg","Friend","Nonmatching","Friend","Stranger","Stranger","Stranger",589,0.589,1
1001,3,232,"F","shape2.jpg","Friend","Matching","Friend","Friend","Friend","Close",370,0.37,1
1001,3,233,"M","shape3.jpg","Stranger","Matching","Stranger","Stranger","Stranger","Stranger",795,0.795,1
1001,3,233,"F","shape1.jpg","You","Matching","Self","Self","Self","Self",450,0.45,1
1001,3,234,"M","shape1.jpg","You","Matching","Self","Self","Self","Self",515,0.515,1
1001,3,234,"F","shape3.jpg","You","Nonmatching","Self","Stranger","Stranger","Stranger",413,0.413,1
1001,3,235,"M","shape2.jpg","Friend","Matching","Friend","Friend","Friend","Close",477,0.477,1
1001,3,235,"F","shape2.jpg","Friend","Matching","Friend","Friend","Friend","Close",489,0.489,1
1001,3,236,"M","shape3.jpg","You","Nonmatching","Self","Stranger","Stranger","Stranger",418,0.418,1
1001,3,236,"F","shape2.jpg","Friend","Matching","Friend","Friend","Friend","Close",516,0.516,1
1001,3,237,"M","shape1.jpg","You","Matching","Self","Self","Self","Self",531,0.531,1
1001,3,237,"F","shape2.jpg","Friend","Matching","Friend","Friend","Friend","Close",411,0.411,1
1001,3,238,"M","shape3.jpg","Stranger","Matching","Stranger","Stranger","Stranger","Stranger",439,0.439,1
1001,3,238,"F","shape3.jpg","Stranger","Matching","Stranger","Stranger","Stranger","Stranger",520,0.52,1
1001,3,239,"M","shape3.jpg","Friend","Nonmatching","Friend","Stranger","Stranger","Stranger",442,0.442,1
1001,3,239,"F","shape1.jpg","You","Matching","Self","Self","Self","Self",355,0.355,1
1001,3,240,"M","shape1.jpg","You","Matching","Self","Self","Self","Self",421,0.421,1
1001,3,240,"F","shape1.jpg","You","Matching","Self","Self","Self","Self",529,0.529,1
1001,3,241,"M","shape1.jpg","Stranger","Nonmatching","Stranger","Self","Self","Self",441,0.441,1
1001,3,241,"F","shape3.jpg","Friend","Nonmatching","Friend","Stranger","Stranger","Stranger",605,0.605,1
1001,3,242,"M","shape3.jpg","Friend","Nonmatching","Friend","Stranger","Stranger","Stranger",541,0.541,1
1001,3,242,"F","shape2.jpg","You","Nonmatching","Self","Friend","Friend","Close",503,0.503,1
1001,3,243,"M","shape2.jpg","Friend","Matching","Friend","Friend","Friend","Close",457,0.457,1
1001,3,243,"F","shape2.jpg","You","Nonmatching","Self","Friend","Friend","Close",515,0.515,1
1001,3,244,"M","shape1.jpg","You","Matching","Self","Self","Self","Self",561,0.561,1
1001,3,244,"F","shape2.jpg","You","Nonmatching","Self","Friend","Friend","Close",843,0.843,1
1001,3,245,"M","shape1.jpg","You","Matching","Self","Self","Self","Self",439,0.439,1
1001,3,245,"F","shape2.jpg","Stranger","Nonmatching","Stranger","Friend","Friend","Close",929,0.929,1
1001,3,246,"M","shape3.jpg","Friend","Nonmatching","Friend","Stranger","Stranger","Stranger",451,0.451,1
1001,3,246,"F","shape1.jpg","Friend","Nonmatching","Friend","Self","Self","Self",477,0.477,1
1001,3,247,"M","shape1.jpg","You","Matching","Self","Self","Self","Self",454,0.454,1
1001,3,247,"F","shape3.jpg","You","Nonmatching","Self","Stranger","Stranger","Stranger",535,0.535,1
1001,3,248,"M","shape2.jpg","Stranger","Nonmatching","Stranger","Friend","Friend","Close",733,0.733,1
1001,3,248,"F","shape2.jpg","You","Nonmatching","Self","Friend","Friend","Close",480,0.48,1
1001,3,249,"M","shape2.jpg","Stranger","Nonmatching","Stranger","Friend","Friend","Close",504,0.504,1
1001,3,249,"F","shape2.jpg","You","Nonmatching","Self","Friend","Friend","Close",459,0.459,1
1001,3,250,"M","shape1.jpg","You","Matching","Self","Self","Self","Self",557,0.557,1
1001,3,250,"F","shape2.jpg","Friend","Matching","Friend","Friend","Friend","Close",399,0.399,1
1001,3,251,"M","shape1.jpg","You","Matching","Self","Self","Self","Self",780,0.78,1
1001,3,251,"F","shape2.jpg","Friend","Matching","Friend","Friend","Friend","Close",485,0.485,1
1001,3,252,"M","shape1.jpg","Friend","Nonmatching","Friend","Self","Self","Self",463,0.463,1
1001,3,252,"F","shape3.jpg","Friend","Nonmatching","Friend","Stranger","Stranger","Stranger",456,0.456,1
1001,4,253,"M","shape3.jpg","You","Nonmatching","Self","Stranger","Stranger","Stranger",515,0.515,1
1001,4,253,"F","shape1.jpg","You","Matching","Self","Self","Self","Self",393,0.393,1
1001,4,254,"M","shape1.jpg","You","Matching","Self","Self","Self","Self",429,0.429,1
1001,4,254,"F","shape3.jpg","Stranger","Matching","Stranger","Stranger","Stranger","Stranger",524,0.524,1
1001,4,255,"M","shape1.jpg","You","Matching","Self","Self","Self","Self",444,0.444,1
1001,4,255,"F","shape2.jpg","Friend","Matching","Friend","Friend","Friend","Close",395,0.395,1
1001,4,256,"M","shape1.jpg","You","Matching","Self","Self","Self","Self",475,0.475,1
1001,4,256,"F","shape2.jpg","Friend","Matching","Friend","Friend","Friend","Close",467,0.467,1
1001,4,257,"M","shape1.jpg","Friend","Nonmatching","Friend","Self","Self","Self",552,0.552,1
1001,4,257,"F","shape3.jpg","Stranger","Matching","Stranger","Stranger","Stranger","Stranger",659,0.659,1
1001,4,258,"M","shape2.jpg","You","Nonmatching","Self","Friend","Friend","Close",408,0.408,1
1001,4,258,"F","shape1.jpg","Friend","Nonmatching","Friend","Self","Self","Self",720,0.72,1
1001,4,259,"M","shape2.jpg","You","Nonmatching","Self","Friend","Friend","Close",429,0.429,1
1001,4,259,"F","shape3.jpg","Stranger","Matching","Stranger","Stranger","Stranger","Stranger",423,0.423,1
1001,4,260,"M","shape2.jpg","Stranger","Nonmatching","Stranger","Friend","Friend","Close",480,0.48,1
1001,4,260,"F","shape1.jpg","Friend","Nonmatching","Friend","Self","Self","Self",499,0.499,1
1001,4,261,"M","shape2.jpg","You","Nonmatching","Self","Friend","Friend","Close",671,0.671,1
1001,4,261,"F","shape1.jpg","You","Matching","Self","Self","Self","Self",476,0.476,1
1001,4,262,"M","shape1.jpg","You","Matching","Self","Self","Self","Self",392,0.392,1
1001,4,262,"F","shape3.jpg","Stranger","Matching","Stranger","Stranger","Stranger","Stranger",380,0.38,1
1001,4,263,"M","shape2.jpg","You","Nonmatching","Self","Friend","Friend","Close",446,0.446,1
1001,4,263,"F","shape2.jpg","You","Nonmatching","Self","Friend","Friend","Close",588,0.588,1
1001,4,264,"M","shape2.jpg","Friend","Matching","Friend","Friend","Friend","Close",449,0.449,1
1001,4,264,"F","shape1.jpg","Stranger","Nonmatching","Stranger","Self","Self","Self",430,0.43,1
1001,4,265,"M","shape3.jpg","Stranger","Matching","Stranger","Stranger","Stranger","Stranger",401,0.401,1
1001,4,265,"F","shape3.jpg","Stranger","Matching","Stranger","Stranger","Stranger","Stranger",474,0.474,1
1001,4,266,"M","shape3.jpg","Stranger","Matching","Stranger","Stranger","Stranger","Stranger",406,0.406,1
1001,4,266,"F","shape2.jpg","Stranger","Nonmatching","Stranger","Friend","Friend","Close",486,0.486,1
1001,4,267,"M","shape3.jpg","Stranger","Matching","Stranger","Stranger","Stranger","Stranger",371,0.371,1
1001,4,267,"F","shape3.jpg","You","Nonmatching","Self","Stranger","Stranger","Stranger",422,0.422,1
1001,4,268,"M","shape3.jpg","Stranger","Matching","Stranger","Stranger","Stranger","Stranger",484,0.484,1
1001,4,268,"F","shape3.jpg","Stranger","Matching","Stranger","Stranger","Stranger","Stranger",668,0.668,1
1001,4,269,"M","shape3.jpg","Stranger","Matching","Stranger","Stranger","Stranger","Stranger",464,0.464,1
1001,4,269,"F","shape2.jpg","You","Nonmatching","Self","Friend","Friend","Close",382,0.382,1
1001,4,270,"M","shape2.jpg","Friend","Matching","Friend","Friend","Friend","Close",430,0.43,1
1001,4,270,"F","shape3.jpg","You","Nonmatching","Self","Stranger","Stranger","Stranger",590,0.59,1
1001,4,271,"M","shape3.jpg","Friend","Nonmatching","Friend","Stranger","Stranger","Stranger",406,0.406,1
1001,4,271,"F","shape1.jpg","Stranger","Nonmatching","Stranger","Self","Self","Self",402,0.402,1
1001,4,272,"M","shape1.jpg","Friend","Nonmatching","Friend","Self","Self","Self",514,0.514,1
1001,4,272,"F","shape3.jpg","Stranger","Matching","Stranger","Stranger","Stranger","Stranger",512,0.512,1
1001,4,273,"M","shape3.jpg","Stranger","Matching","Stranger","Stranger","Stranger","Stranger",821,0.821,1
1001,4,273,"F","shape2.jpg","You","Nonmatching","Self","Friend","Friend","Close",687,0.687,1
1001,4,274,"M","shape2.jpg","Friend","Matching","Friend","Friend","Friend","Close",525,0.525,1
1001,4,274,"F","shape2.jpg","Friend","Matching","Friend","Friend","Friend","Close",765,0.765,1
1001,4,275,"M","shape1.jpg","You","Matching","Self","Self","Self","Self",430,0.43,1
1001,4,275,"F","shape2.jpg","Stranger","Nonmatching","Stranger","Friend","Friend","Close",466,0.466,1
1001,4,276,"M","shape3.jpg","Stranger","Matching","Stranger","Stranger","Stranger","Stranger",494,0.494,1
1001,4,276,"F","shape3.jpg","Friend","Nonmatching","Friend","Stranger","Stranger","Stranger",463,0.463,1
1001,4,277,"M","shape2.jpg","Friend","Matching","Friend","Friend","Friend","Close",614,0.614,1
1001,4,277,"F","shape1.jpg","You","Matching","Self","Self","Self","Self",516,0.516,1
1001,4,278,"M","shape2.jpg","Friend","Matching","Friend","Friend","Friend","Close",459,0.459,1
1001,4,278,"F","shape1.jpg","You","Matching","Self","Self","Self","Self",593,0.593,1
1001,4,279,"M","shape2.jpg","Stranger","Nonmatching","Stranger","Friend","Friend","Close",468,0.468,1
1001,4,279,"F","shape2.jpg","Stranger","Nonmatching","Stranger","Friend","Friend","Close",372,0.372,1
1001,4,280,"M","shape3.jpg","You","Nonmatching","Self","Stranger","Stranger","Stranger",507,0.507,1
1001,4,280,"F","shape3.jpg","You","Nonmatching","Self","Stranger","Stranger","Stranger",426,0.426,1
1001,4,281,"M","shape2.jpg","Stranger","Nonmatching","Stranger","Friend","Friend","Close",500,0.5,1
1001,4,281,"F","shape1.jpg","You","Matching","Self","Self","Self","Self",399,0.399,1
1001,4,282,"M","shape2.jpg","Stranger","Nonmatching","Stranger","Friend","Friend","Close",433,0.433,1
1001,4,282,"F","shape1.jpg","Stranger","Nonmatching","Stranger","Self","Self","Self",376,0.376,1
1001,4,283,"M","shape1.jpg","You","Matching","Self","Self","Self","Self",468,0.468,1
1001,4,283,"F","shape1.jpg","Friend","Nonmatching","Friend","Self","Self","Self",576,0.576,1
1001,4,284,"M","shape2.jpg","Friend","Matching","Friend","Friend","Friend","Close",534,0.534,1
1001,4,284,"F","shape2.jpg","Friend","Matching","Friend","Friend","Friend","Close",511,0.511,1
1001,4,285,"M","shape2.jpg","Friend","Matching","Friend","Friend","Friend","Close",463,0.463,1
1001,4,285,"F","shape3.jpg","Friend","Nonmatching","Friend","Stranger","Stranger","Stranger",378,0.378,1
1001,4,286,"M","shape1.jpg","Stranger","Nonmatching","Stranger","Self","Self","Self",461,0.461,1
1001,4,286,"F","shape2.jpg","Friend","Matching","Friend","Friend","Friend","Close",822,0.822,1
1001,4,287,"M","shape1.jpg","Friend","Nonmatching","Friend","Self","Self","Self",655,0.655,1
1001,4,287,"F","shape2.jpg","You","Nonmatching","Self","Friend","Friend","Close",433,0.433,1
1001,4,288,"M","shape3.jpg","Friend","Nonmatching","Friend","Stranger","Stranger","Stranger",428,0.428,1
1001,4,288,"F","shape1.jpg","Friend","Nonmatching","Friend","Self","Self","Self",397,0.397,1
1001,4,289,"M","shape3.jpg","You","Nonmatching","Self","Stranger","Stranger","Stranger",461,0.461,1
1001,4,289,"F","shape1.jpg","You","Matching","Self","Self","Self","Self",573,0.573,1
1001,4,290,"M","shape3.jpg","Stranger","Matching","Stranger","Stranger","Stranger","Stranger",704,0.704,1
1001,4,290,"F","shape2.jpg","Friend","Matching","Friend","Friend","Friend","Close",601,0.601,1
1001,4,291,"M","shape3.jpg","Friend","Nonmatching","Friend","Stranger","Stranger","Stranger",420,0.42,1
1001,4,291,"F","shape2.jpg","Friend","Matching","Friend","Friend","Friend","Close",536,0.536,1
1001,4,292,"M","shape1.jpg","Stranger","Nonmatching","Stranger","Self","Self","Self",370,0.37,1
1001,4,292,"F","shape3.jpg","Friend","Nonmatching","Friend","Stranger","Stranger","Stranger",427,0.427,1
1001,4,293,"M","shape3.jpg","Friend","Nonmatching","Friend","Stranger","Stranger","Stranger",486,0.486,1
1001,4,293,"F","shape3.jpg","Friend","Nonmatching","Friend","Stranger","Stranger","Stranger",471,0.471,1
1001,4,294,"M","shape1.jpg","You","Matching","Self","Self","Self","Self",581,0.581,1
1001,4,294,"F","shape3.jpg","You","Nonmatching","Self","Stranger","Stranger","Stranger",434,0.434,1
1001,4,295,"M","shape2.jpg","You","Nonmatching","Self","Friend","Friend","Close",415,0.415,1
1001,4,295,"F","shape3.jpg","Friend","Nonmatching","Friend","Stranger","Stranger","Stranger",393,0.393,1
1001,4,296,"M","shape1.jpg","You","Matching","Self","Self","Self","Self",774,0.774,1
1001,4,296,"F","shape1.jpg","You","Matching","Self","Self","Self","Self",443,0.443,1
1001,4,297,"M","shape1.jpg","Stranger","Nonmatching","Stranger","Self","Self","Self",417,0.417,1
1001,4,297,"F","shape1.jpg","Stranger","Nonmatching","Stranger","Self","Self","Self",380,0.38,1
1001,4,298,"M","shape1.jpg","Stranger","Nonmatching","Stranger","Self","Self","Self",469,0.469,1
1001,4,298,"F","shape3.jpg","You","Nonmatching","Self","Stranger","Stranger","Stranger",446,0.446,1
1001,4,299,"M","shape1.jpg","You","Matching","Self","Self","Self","Self",611,0.611,1
1001,4,299,"F","shape2.jpg","Stranger","Nonmatching","Stranger","Friend","Friend","Close",395,0.395,1
1001,4,300,"M","shape2.jpg","Friend","Matching","Friend","Friend","Friend","Close",500,0.5,1
1001,4,300,"F","shape1.jpg","You","Matching","Self","Self","Self","Self",550,0.55,1
1001,4,301,"M","shape1.jpg","You","Matching","Self","Self","Self","Self",459,0.459,1
1001,4,301,"F","shape1.jpg","You","Matching","Self","Self","Self","Self",497,0.497,1
1001,4,302,"M","shape1.jpg","You","Matching","Self","Self","Self","Self",451,0.451,1
1001,4,302,"F","shape1.jpg","You","Matching","Self","Self","Self","Self",483,0.483,1
1001,4,303,"M","shape1.jpg","Friend","Nonmatching","Friend","Self","Self","Self",377,0.377,1
1001,4,303,"F","shape2.jpg","Friend","Matching","Friend","Friend","Friend","Close",499,0.499,1
1001,4,304,"M","shape1.jpg","Stranger","Nonmatching","Stranger","Self","Self","Self",413,0.413,1
1001,4,304,"F","shape3.jpg","You","Nonmatching","Self","Stranger","Stranger","Stranger",395,0.395,1
1001,4,305,"M","shape3.jpg","Stranger","Matching","Stranger","Stranger","Stranger","Stranger",543,0.543,1
1001,4,305,"F","shape2.jpg","You","Nonmatching","Self","Friend","Friend","Close",406,0.406,1
1001,4,306,"M","shape1.jpg","Friend","Nonmatching","Friend","Self","Self","Self",450,0.45,1
1001,4,306,"F","shape2.jpg","Friend","Matching","Friend","Friend","Friend","Close",663,0.663,1
1001,4,307,"M","shape2.jpg","Stranger","Nonmatching","Stranger","Friend","Friend","Close",541,0.541,1
1001,4,307,"F","shape1.jpg","Friend","Nonmatching","Friend","Self","Self","Self",429,0.429,1
1001,4,308,"M","shape2.jpg","Friend","Matching","Friend","Friend","Friend","Close",732,0.732,1
1001,4,308,"F","shape1.jpg","You","Matching","Self","Self","Self","Self",690,0.69,1
1001,4,309,"M","shape3.jpg","Friend","Nonmatching","Friend","Stranger","Stranger","Stranger",458,0.458,1
1001,4,309,"F","shape3.jpg","Stranger","Matching","Stranger","Stranger","Stranger","Stranger",426,0.426,1
1001,4,310,"M","shape3.jpg","Stranger","Matching","Stranger","Stranger","Stranger","Stranger",364,0.364,1
1001,4,310,"F","shape3.jpg","You","Nonmatching","Self","Stranger","Stranger","Stranger",825,0.825,1
1001,4,311,"M","shape2.jpg","Friend","Matching","Friend","Friend","Friend","Close",399,0.399,1
1001,4,311,"F","shape2.jpg","Friend","Matching","Friend","Friend","Friend","Close",625,0.625,1
1001,4,312,"M","shape3.jpg","Stranger","Matching","Stranger","Stranger","Stranger","Stranger",514,0.514,1
1001,4,312,"F","shape3.jpg","Stranger","Matching","Stranger","Stranger","Stranger","Stranger",574,0.574,1
1001,4,313,"M","shape2.jpg","Stranger","Nonmatching","Stranger","Friend","Friend","Close",779,0.779,1
1001,4,313,"F","shape1.jpg","Stranger","Nonmatching","Stranger","Self","Self","Self",384,0.384,1
1001,4,314,"M","shape1.jpg","Stranger","Nonmatching","Stranger","Self","Self","Self",419,0.419,1
1001,4,314,"F","shape1.jpg","You","Matching","Self","Self","Self","Self",487,0.487,1
1001,4,315,"M","shape2.jpg","Stranger","Nonmatching","Stranger","Friend","Friend","Close",459,0.459,1
1001,4,315,"F","shape2.jpg","Stranger","Nonmatching","Stranger","Friend","Friend","Close",489,0.489,1
1001,4,316,"M","shape1.jpg","You","Matching","Self","Self","Self","Self",459,0.459,1
1001,4,316,"F","shape1.jpg","You","Matching","Self","Self","Self","Self",587,0.587,1
1001,4,317,"M","shape1.jpg","You","Matching","Self","Self","Self","Self",327,0.327,1
1001,4,317,"F","shape3.jpg","Stranger","Matching","Stranger","Stranger","Stranger","Stranger",560,0.56,1
1001,4,318,"M","shape2.jpg","You","Nonmatching","Self","Friend","Friend","Close",438,0.438,1
1001,4,318,"F","shape2.jpg","Stranger","Nonmatching","Stranger","Friend","Friend","Close",622,0.622,1
1001,4,319,"M","shape2.jpg","Friend","Matching","Friend","Friend","Friend","Close",400,0.4,1
1001,4,319,"F","shape3.jpg","Stranger","Matching","Stranger","Stranger","Stranger","Stranger",827,0.827,1
1001,4,320,"M","shape3.jpg","Stranger","Matching","Stranger","Stranger","Stranger","Stranger",384,0.384,1
1001,4,320,"F","shape2.jpg","You","Nonmatching","Self","Friend","Friend","Close",431,0.431,1
1001,4,321,"M","shape1.jpg","Friend","Nonmatching","Friend","Self","Self","Self",385,0.385,1
1001,4,321,"F","shape3.jpg","Friend","Nonmatching","Friend","Stranger","Stranger","Stranger",513,0.513,1
1001,4,322,"M","shape2.jpg","Friend","Matching","Friend","Friend","Friend","Close",537,0.537,1
1001,4,322,"F","shape2.jpg","Friend","Matching","Friend","Friend","Friend","Close",501,0.501,1
1001,4,323,"M","shape3.jpg","Friend","Nonmatching","Friend","Stranger","Stranger","Stranger",441,0.441,1
1001,4,323,"F","shape3.jpg","Stranger","Matching","Stranger","Stranger","Stranger","Stranger",403,0.403,1
1001,4,324,"M","shape2.jpg","Friend","Matching","Friend","Friend","Friend","Close",392,0.392,1
1001,4,324,"F","shape2.jpg","Stranger","Nonmatching","Stranger","Friend","Friend","Close",447,0.447,1
1001,4,325,"M","shape2.jpg","Friend","Matching","Friend","Friend","Friend","Close",711,0.711,1
1001,4,325,"F","shape2.jpg","Friend","Matching","Friend","Friend","Friend","Close",529,0.529,1
1001,4,326,"M","shape1.jpg","Stranger","Nonmatching","Stranger","Self","Self","Self",484,0.484,1
1001,4,326,"F","shape1.jpg","You","Matching","Self","Self","Self","Self",472,0.472,1
1001,4,327,"M","shape2.jpg","You","Nonmatching","Self","Friend","Friend","Close",487,0.487,1
1001,4,327,"F","shape2.jpg","Friend","Matching","Friend","Friend","Friend","Close",479,0.479,1
1001,4,328,"M","shape3.jpg","You","Nonmatching","Self","Stranger","Stranger","Stranger",675,0.675,1
1001,4,328,"F","shape3.jpg","Friend","Nonmatching","Friend","Stranger","Stranger","Stranger",384,0.384,1
1001,4,329,"M","shape1.jpg","Friend","Nonmatching","Friend","Self","Self","Self",436,0.436,1
1001,4,329,"F","shape1.jpg","Friend","Nonmatching","Friend","Self","Self","Self",569,0.569,1
1001,4,330,"M","shape3.jpg","Stranger","Matching","Stranger","Stranger","Stranger","Stranger",583,0.583,1
1001,4,330,"F","shape2.jpg","You","Nonmatching","Self","Friend","Friend","Close",470,0.47,1
1001,4,331,"M","shape3.jpg","Friend","Nonmatching","Friend","Stranger","Stranger","Stranger",543,0.543,1
1001,4,331,"F","shape2.jpg","Friend","Matching","Friend","Friend","Friend","Close",523,0.523,1
1001,4,332,"M","shape3.jpg","You","Nonmatching","Self","Stranger","Stranger","Stranger",463,0.463,1
1001,4,332,"F","shape1.jpg","Friend","Nonmatching","Friend","Self","Self","Self",511,0.511,1
1001,4,333,"M","shape1.jpg","You","Matching","Self","Self","Self","Self",395,0.395,1
1001,4,333,"F","shape1.jpg","Stranger","Nonmatching","Stranger","Self","Self","Self",437,0.437,1
1001,4,334,"M","shape3.jpg","You","Nonmatching","Self","Stranger","Stranger","Stranger",375,0.375,1
1001,4,334,"F","shape3.jpg","Stranger","Matching","Stranger","Stranger","Stranger","Stranger",457,0.457,1
1001,4,335,"M","shape3.jpg","Stranger","Matching","Stranger","Stranger","Stranger","Stranger",371,0.371,1
1001,4,335,"F","shape3.jpg","Stranger","Matching","Stranger","Stranger","Stranger","Stranger",446,0.446,1
1001,4,336,"M","shape3.jpg","You","Nonmatching","Self","Stranger","Stranger","Stranger",935,0.935,1
1001,4,336,"F","shape1.jpg","Stranger","Nonmatching","Stranger","Self","Self","Self",395,0.395,1
1002,1,1,"M","shape1.jpg","Stranger","Nonmatching","Stranger","Self","Self","Self",2048,2.048,1
1002,1,1,"F","shape2.jpg","Friend","Matching","Friend","Friend","Friend","Close",771,0.771,1
1002,1,2,"M","shape3.jpg","Friend","Nonmatching","Friend","Stranger","Stranger","Stranger",667,0.667,1
1002,1,2,"F","shape3.jpg","You","Nonmatching","Self","Stranger","Stranger","Stranger",629,0.629,1
1002,1,3,"M","shape3.jpg","You","Nonmatching","Self","Stranger","Stranger","Stranger",590,0.59,1
1002,1,3,"F","shape1.jpg","You","Matching","Self","Self","Self","Self",455,0.455,1
1002,1,4,"M","shape1.jpg","You","Matching","Self","Self","Self","Self",392,0.392,1
1002,1,4,"F","shape3.jpg","Stranger","Matching","Stranger","Stranger","Stranger","Stranger",369,0.369,1
1002,1,5,"M","shape2.jpg","You","Nonmatching","Self","Friend","Friend","Close",450,0.45,1
1002,1,5,"F","shape3.jpg","Friend","Nonmatching","Friend","Stranger","Stranger","Stranger",415,0.415,1
1002,1,6,"M","shape2.jpg","Friend","Matching","Friend","Friend","Friend","Close",341,0.341,1
1002,1,6,"F","shape2.jpg","Stranger","Nonmatching","Stranger","Friend","Friend","Close",423,0.423,1
1002,1,7,"M","shape2.jpg","Stranger","Nonmatching","Stranger","Friend","Friend","Close",387,0.387,1
1002,1,7,"F","shape2.jpg","Friend","Matching","Friend","Friend","Friend","Close",455,0.455,1
1002,1,8,"M","shape3.jpg","You","Nonmatching","Self","Stranger","Stranger","Stranger",386,0.386,1
1002,1,8,"F","shape1.jpg","Friend","Nonmatching","Friend","Self","Self","Self",427,0.427,1
1002,1,9,"M","shape1.jpg","Stranger","Nonmatching","Stranger","Self","Self","Self",531,0.531,1
1002,1,9,"F","shape3.jpg","Stranger","Matching","Stranger","Stranger","Stranger","Stranger",396,0.396,1
1002,1,10,"M","shape3.jpg","You","Nonmatching","Self","Stranger","Stranger","Stranger",392,0.392,1
1002,1,10,"F","shape1.jpg","You","Matching","Self","Self","Self","Self",383,0.383,1
1002,1,11,"M","shape3.jpg","Friend","Nonmatching","Friend","Stranger","Stranger","Stranger",451,0.451,1
1002,1,11,"F","shape3.jpg","Stranger","Matching","Stranger","Stranger","Stranger","Stranger",569,0.569,1
1002,1,12,"M","shape2.jpg","Stranger","Nonmatching","Stranger","Friend","Friend","Close",1096,1.096,1
1002,1,12,"F","shape2.jpg","Friend","Matching","Friend","Friend","Friend","Close",423,0.423,1
1002,1,13,"M","shape2.jpg","Friend","Matching","Friend","Friend","Friend","Close",352,0.352,1
1002,1,13,"F","shape3.jpg","You","Nonmatching","Self","Stranger","Stranger","Stranger",484,0.484,1
1002,1,14,"M","shape2.jpg","Stranger","Nonmatching","Stranger","Friend","Friend","Close",438,0.438,1
1002,1,14,"F","shape3.jpg","Stranger","Matching","Stranger","Stranger","Stranger","Stranger",397,0.397,1
1002,1,15,"M","shape1.jpg","Stranger","Nonmatching","Stranger","Self","Self","Self",366,0.366,1
1002,1,15,"F","shape2.jpg","You","Nonmatching","Self","Friend","Friend","Close",488,0.488,1
1002,1,16,"M","shape1.jpg","Friend","Nonmatching","Friend","Self","Self","Self",713,0.713,1
1002,1,16,"F","shape2.jpg","Stranger","Nonmatching","Stranger","Friend","Friend","Close",480,0.48,1
1002,1,17,"M","shape1.jpg","Friend","Nonmatching","Friend","Self","Self","Self",594,0.594,1
1002,1,17,"F","shape2.jpg","Friend","Matching","Friend","Friend","Friend","Close",333,0.333,1
1002,1,18,"M","shape1.jpg","You","Matching","Self","Self","Self","Self",345,0.345,1
1002,1,18,"F","shape1.jpg","Friend","Nonmatching","Friend","Self","Self","Self",344,0.344,1
1002,1,19,"M","shape3.jpg","You","Nonmatching","Self","Stranger","Stranger","Stranger",369,0.369,1
1002,1,19,"F","shape1.jpg","You","Matching","Self","Self","Self","Self",596,0.596,1
1002,1,20,"M","shape2.jpg","You","Nonmatching","Self","Friend","Friend","Close",360,0.36,1
1002,1,20,"F","shape1.jpg","Stranger","Nonmatching","Stranger","Self","Self","Self",360,0.36,1
1002,1,21,"M","shape1.jpg","You","Matching","Self","Self","Self","Self",512,0.512,1
1002,1,21,"F","shape2.jpg","Stranger","Nonmatching","Stranger","Friend","Friend","Close",412,0.412,1
1002,1,22,"M","shape1.jpg","Friend","Nonmatching","Friend","Self","Self","Self",320,0.32,1
1002,1,22,"F","shape2.jpg","Friend","Matching","Friend","Friend","Friend","Close",412,0.412,1
1002,1,23,"M","shape3.jpg","Stranger","Matching","Stranger","Stranger","Stranger","Stranger",381,0.381,1
1002,1,23,"F","shape3.jpg","Stranger","Matching","Stranger","Stranger","Stranger","Stranger",372,0.372,1
1002,1,24,"M","shape1.jpg","Friend","Nonmatching","Friend","Self","Self","Self",414,0.414,1
1002,1,24,"F","shape3.jpg","Stranger","Matching","Stranger","Stranger","Stranger","Stranger",377,0.377,1
1002,1,25,"M","shape1.jpg","You","Matching","Self","Self","Self","Self",351,0.351,1
1002,1,25,"F","shape3.jpg","You","Nonmatching","Self","Stranger","Stranger","Stranger",617,0.617,1
1002,1,26,"M","shape1.jpg","You","Matching","Self","Self","Self","Self",384,0.384,1
1002,1,26,"F","shape1.jpg","You","Matching","Self","Self","Self","Self",419,0.419,1
1002,1,27,"M","shape1.jpg","Friend","Nonmatching","Friend","Self","Self","Self",393,0.393,1
1002,1,27,"F","shape1.jpg","You","Matching","Self","Self","Self","Self",363,0.363,1
1002,1,28,"M","shape1.jpg","You","Matching","Self","Self","Self","Self",465,0.465,1
1002,1,28,"F","shape2.jpg","Friend","Matching","Friend","Friend","Friend","Close",385,0.385,1
1002,1,29,"M","shape3.jpg","Stranger","Matching","Stranger","Stranger","Stranger","Stranger",410,0.41,1
1002,1,29,"F","shape3.jpg","You","Nonmatching","Self","Stranger","Stranger","Stranger",398,0.398,1
1002,1,30,"M","shape1.jpg","You","Matching","Self","Self","Self","Self",472,0.472,1
1002,1,30,"F","shape3.jpg","Stranger","Matching","Stranger","Stranger","Stranger","Stranger",319,0.319,1
1002,1,31,"M","shape2.jpg","Friend","Matching","Friend","Friend","Friend","Close",389,0.389,1
1002,1,31,"F","shape2.jpg","Stranger","Nonmatching","Stranger","Friend","Friend","Close",476,0.476,1
1002,1,32,"M","shape3.jpg","Stranger","Matching","Stranger","Stranger","Stranger","Stranger",346,0.346,1
1002,1,32,"F","shape3.jpg","Stranger","Matching","Stranger","Stranger","Stranger","Stranger",407,0.407,1
1002,1,33,"M","shape3.jpg","Stranger","Matching","Stranger","Stranger","Stranger","Stranger",362,0.362,1
1002,1,33,"F","shape1.jpg","You","Matching","Self","Self","Self","Self",609,0.609,1
1002,1,34,"M","shape2.jpg","Friend","Matching","Friend","Friend","Friend","Close",373,0.373,0
1002,1,34,"F","shape3.jpg","Stranger","Matching","Stranger","Stranger","Stranger","Stranger",342,0.342,1
1002,1,35,"M","shape3.jpg","Friend","Nonmatching","Friend","Stranger","Stranger","Stranger",659,0.659,1
1002,1,35,"F","shape1.jpg","Stranger","Nonmatching","Stranger","Self","Self","Self",478,0.478,1
1002,1,36,"M","shape1.jpg","You","Matching","Self","Self","Self","Self",391,0.391,1
1002,1,36,"F","shape1.jpg","You","Matching","Self","Self","Self","Self",396,0.396,1
1002,1,37,"M","shape3.jpg","Stranger","Matching","Stranger","Stranger","Stranger","Stranger",363,0.363,1
1002,1,37,"F","shape1.jpg","Friend","Nonmatching","Friend","Self","Self","Self",377,0.377,1
1002,1,38,"M","shape1.jpg","Friend","Nonmatching","Friend","Self","Self","Self",588,0.588,1
1002,1,38,"F","shape1.jpg","Stranger","Nonmatching","Stranger","Self","Self","Self",411,0.411,1
1002,1,39,"M","shape3.jpg","Stranger","Matching","Stranger","Stranger","Stranger","Stranger",347,0.347,1
1002,1,39,"F","shape2.jpg","Friend","Matching","Friend","Friend","Friend","Close",413,0.413,1
1002,1,40,"M","shape1.jpg","Stranger","Nonmatching","Stranger","Self","Self","Self",838,0.838,1
1002,1,40,"F","shape1.jpg","You","Matching","Self","Self","Self","Self",493,0.493,0
1002,1,41,"M","shape3.jpg","You","Nonmatching","Self","Stranger","Stranger","Stranger",431,0.431,1
1002,1,41,"F","shape1.jpg","Stranger","Nonmatching","Stranger","Self","Self","Self",575,0.575,1
1002,1,42,"M","shape2.jpg","You","Nonmatching","Self","Friend","Friend","Close",457,0.457,1
1002,1,42,"F","shape3.jpg","You","Nonmatching","Self","Stranger","Stranger","Stranger",432,0.432,1
1002,1,43,"M","shape1.jpg","You","Matching","Self","Self","Self","Self",357,0.357,1
1002,1,43,"F","shape1.jpg","Friend","Nonmatching","Friend","Self","Self","Self",426,0.426,1
1002,1,44,"M","shape3.jpg","Stranger","Matching","Stranger","Stranger","Stranger","Stranger",571,0.571,1
1002,1,44,"F","shape2.jpg","You","Nonmatching","Self","Friend","Friend","Close",437,0.437,1
1002,1,45,"M","shape2.jpg","Stranger","Nonmatching","Stranger","Friend","Friend","Close",563,0.563,0
1002,1,45,"F","shape1.jpg","Stranger","Nonmatching","Stranger","Self","Self","Self",430,0.43,1
1002,1,46,"M","shape2.jpg","Friend","Matching","Friend","Friend","Friend","Close",370,0.37,1
1002,1,46,"F","shape2.jpg","Friend","Matching","Friend","Friend","Friend","Close",346,0.346,1
1002,1,47,"M","shape3.jpg","Stranger","Matching","Stranger","Stranger","Stranger","Stranger",418,0.418,1
1002,1,47,"F","shape3.jpg","Stranger","Matching","Stranger","Stranger","Stranger","Stranger",318,0.318,1
1002,1,48,"M","shape3.jpg","Stranger","Matching","Stranger","Stranger","Stranger","Stranger",375,0.375,1
1002,1,48,"F","shape1.jpg","Friend","Nonmatching","Friend","Self","Self","Self",435,0.435,1
1002,1,49,"M","shape1.jpg","You","Matching","Self","Self","Self","Self",378,0.378,1
1002,1,49,"F","shape2.jpg","Friend","Matching","Friend","Friend","Friend","Close",407,0.407,1
1002,1,50,"M","shape2.jpg","Stranger","Nonmatching","Stranger","Friend","Friend","Close",420,0.42,1
1002,1,50,"F","shape3.jpg","Friend","Nonmatching","Friend","Stranger","Stranger","Stranger",380,0.38,1
1002,1,51,"M","shape3.jpg","Stranger","Matching","Stranger","Stranger","Stranger","Stranger",753,0.753,1
1002,1,51,"F","shape1.jpg","Friend","Nonmatching","Friend","Self","Self","Self",369,0.369,1
1002,1,52,"M","shape3.jpg","Stranger","Matching","Stranger","Stranger","Stranger","Stranger",678,0.678,0
1002,1,52,"F","shape2.jpg","Stranger","Nonmatching","Stranger","Friend","Friend","Close",385,0.385,1
1002,1,53,"M","shape1.jpg","You","Matching","Self","Self","Self","Self",433,0.433,1
1002,1,53,"F","shape3.jpg","Stranger","Matching","Stranger","Stranger","Stranger","Stranger",424,0.424,1
1002,1,54,"M","shape3.jpg","Stranger","Matching","Stranger","Stranger","Stranger","Stranger",677,0.677,1
1002,1,54,"F","shape1.jpg","Stranger","Nonmatching","Stranger","Self","Self","Self",608,0.608,1
1002,1,55,"M","shape2.jpg","Friend","Matching","Friend","Friend","Friend","Close",479,0.479,1
1002,1,55,"F","shape3.jpg","Friend","Nonmatching","Friend","Stranger","Stranger","Stranger",418,0.418,1
1002,1,56,"M","shape2.jpg","You","Nonmatching","Self","Friend","Friend","Close",465,0.465,1
1002,1,56,"F","shape1.jpg","Friend","Nonmatching","Friend","Self","Self","Self",792,0.792,1
1002,1,57,"M","shape3.jpg","Stranger","Matching","Stranger","Stranger","Stranger","Stranger",345,0.345,1
1002,1,57,"F","shape3.jpg","Stranger","Matching","Stranger","Stranger","Stranger","Stranger",387,0.387,1
1002,1,58,"M","shape3.jpg","Friend","Nonmatching","Friend","Stranger","Stranger","Stranger",427,0.427,1
1002,1,58,"F","shape2.jpg","You","Nonmatching","Self","Friend","Friend","Close",444,0.444,1
1002,1,59,"M","shape1.jpg","You","Matching","Self","Self","Self","Self",333,0.333,1
1002,1,59,"F","shape3.jpg","Friend","Nonmatching","Friend","Stranger","Stranger","Stranger",415,0.415,1
1002,1,60,"M","shape1.jpg","You","Matching","Self","Self","Self","Self",427,0.427,1
1002,1,60,"F","shape2.jpg","You","Nonmatching","Self","Friend","Friend","Close",858,0.858,1
1002,1,61,"M","shape2.jpg","Stranger","Nonmatching","Stranger","Friend","Friend","Close",452,0.452,1
1002,1,61,"F","shape1.jpg","Stranger","Nonmatching","Stranger","Self","Self","Self",513,0.513,1
1002,1,62,"M","shape2.jpg","Friend","Matching","Friend","Friend","Friend","Close",1022,1.022,1
1002,1,62,"F","shape2.jpg","Friend","Matching","Friend","Friend","Friend","Close",1049,1.049,1
1002,1,63,"M","shape1.jpg","Friend","Nonmatching","Friend","Self","Self","Self",431,0.431,1
1002,1,63,"F","shape3.jpg","Friend","Nonmatching","Friend","Stranger","Stranger","Stranger",423,0.423,1
1002,1,64,"M","shape1.jpg","Stranger","Nonmatching","Stranger","Self","Self","Self",399,0.399,1
1002,1,64,"F","shape1.jpg","You","Matching","Self","Self","Self","Self",427,0.427,1
1002,1,65,"M","shape2.jpg","Friend","Matching","Friend","Friend","Friend","Close",426,0.426,1
1002,1,65,"F","shape2.jpg","Friend","Matching","Friend","Friend","Friend","Close",402,0.402,1
1002,1,66,"M","shape3.jpg","Friend","Nonmatching","Friend","Stranger","Stranger","Stranger",527,0.527,1
1002,1,66,"F","shape3.jpg","Stranger","Matching","Stranger","Stranger","Stranger","Stranger",353,0.353,1
1002,1,67,"M","shape2.jpg","Friend","Matching","Friend","Friend","Friend","Close",388,0.388,1
1002,1,67,"F","shape3.jpg","You","Nonmatching","Self","Stranger","Stranger","Stranger",400,0.4,1
1002,1,68,"M","shape1.jpg","Stranger","Nonmatching","Stranger","Self","Self","Self",564,0.564,1
1002,1,68,"F","shape2.jpg","Friend","Matching","Friend","Friend","Friend","Close",610,0.61,1
1002,1,69,"M","shape2.jpg","Friend","Matching","Friend","Friend","Friend","Close",406,0.406,1
1002,1,69,"F","shape1.jpg","You","Matching","Self","Self","Self","Self",335,0.335,1
1002,1,70,"M","shape2.jpg","You","Nonmatching","Self","Friend","Friend","Close",367,0.367,1
1002,1,70,"F","shape2.jpg","You","Nonmatching","Self","Friend","Friend","Close",492,0.492,1
1002,1,71,"M","shape2.jpg","Friend","Matching","Friend","Friend","Friend","Close",420,0.42,1
1002,1,71,"F","shape1.jpg","You","Matching","Self","Self","Self","Self",348,0.348,1
1002,1,72,"M","shape2.jpg","Friend","Matching","Friend","Friend","Friend","Close",345,0.345,1
1002,1,72,"F","shape1.jpg","You","Matching","Self","Self","Self","Self",394,0.394,1
1002,1,73,"M","shape2.jpg","Stranger","Nonmatching","Stranger","Friend","Friend","Close",505,0.505,1
1002,1,73,"F","shape2.jpg","You","Nonmatching","Self","Friend","Friend","Close",604,0.604,1
1002,1,74,"M","shape3.jpg","Stranger","Matching","Stranger","Stranger","Stranger","Stranger",347,0.347,1
1002,1,74,"F","shape2.jpg","Friend","Matching","Friend","Friend","Friend","Close",392,0.392,1
1002,1,75,"M","shape2.jpg","Friend","Matching","Friend","Friend","Friend","Close",1025,1.025,1
1002,1,75,"F","shape1.jpg","You","Matching","Self","Self","Self","Self",437,0.437,1
1002,1,76,"M","shape1.jpg","Stranger","Nonmatching","Stranger","Self","Self","Self",922,0.922,1
1002,1,76,"F","shape3.jpg","Friend","Nonmatching","Friend","Stranger","Stranger","Stranger",543,0.543,1
1002,1,77,"M","shape2.jpg","You","Nonmatching","Self","Friend","Friend","Close",386,0.386,1
1002,1,77,"F","shape3.jpg","Friend","Nonmatching","Friend","Stranger","Stranger","Stranger",548,0.548,1
1002,1,78,"M","shape3.jpg","Friend","Nonmatching","Friend","Stranger","Stranger","Stranger",446,0.446,1
1002,1,78,"F","shape2.jpg","You","Nonmatching","Self","Friend","Friend","Close",580,0.58,1
1002,1,79,"M","shape3.jpg","You","Nonmatching","Self","Stranger","Stranger","Stranger",391,0.391,1
1002,1,79,"F","shape3.jpg","Stranger","Matching","Stranger","Stranger","Stranger","Stranger",950,0.95,1
1002,1,80,"M","shape2.jpg","You","Nonmatching","Self","Friend","Friend","Close",453,0.453,1
1002,1,80,"F","shape2.jpg","Friend","Matching","Friend","Friend","Friend","Close",1190,1.19,1
1002,1,81,"M","shape2.jpg","Friend","Matching","Friend","Friend","Friend","Close",397,0.397,1
1002,1,81,"F","shape1.jpg","You","Matching","Self","Self","Self","Self",427,0.427,1
1002,1,82,"M","shape3.jpg","Friend","Nonmatching","Friend","Stranger","Stranger","Stranger",468,0.468,1
1002,1,82,"F","shape2.jpg","Stranger","Nonmatching","Stranger","Friend","Friend","Close",548,0.548,1
1002,1,83,"M","shape3.jpg","You","Nonmatching","Self","Stranger","Stranger","Stranger",909,0.909,1
1002,1,83,"F","shape3.jpg","You","Nonmatching","Self","Stranger","Stranger","Stranger",735,0.735,1
1002,1,84,"M","shape1.jpg","You","Matching","Self","Self","Self","Self",549,0.549,1
1002,1,84,"F","shape2.jpg","Stranger","Nonmatching","Stranger","Friend","Friend","Close",459,0.459,1
1002,2,85,"M","shape3.jpg","Stranger","Matching","Stranger","Stranger","Stranger","Stranger",1336,1.336,1
1002,2,85,"F","shape2.jpg","Friend","Matching","Friend","Friend","Friend","Close",427,0.427,1
1002,2,86,"M","shape1.jpg","You","Matching","Self","Self","Self","Self",372,0.372,1
1002,2,86,"F","shape3.jpg","Stranger","Matching","Stranger","Stranger","Stranger","Stranger",513,0.513,1
1002,2,87,"M","shape1.jpg","You","Matching","Self","Self","Self","Self",335,0.335,1
1002,2,87,"F","shape2.jpg","Friend","Matching","Friend","Friend","Friend","Close",411,0.411,1
1002,2,88,"M","shape1.jpg","Friend","Nonmatching","Friend","Self","Self","Self",622,0.622,1
1002,2,88,"F","shape2.jpg","Stranger","Nonmatching","Stranger","Friend","Friend","Close",433,0.433,1
1002,2,89,"M","shape3.jpg","Stranger","Matching","Stranger","Stranger","Stranger","Stranger",560,0.56,1
1002,2,89,"F","shape2.jpg","Friend","Matching","Friend","Friend","Friend","Close",333,0.333,1
1002,2,90,"M","shape2.jpg","Friend","Matching","Friend","Friend","Friend","Close",481,0.481,1
1002,2,90,"F","shape2.jpg","You","Nonmatching","Self","Friend","Friend","Close",355,0.355,1
1002,2,91,"M","shape1.jpg","You","Matching","Self","Self","Self","Self",402,0.402,1
1002,2,91,"F","shape2.jpg","You","Nonmatching","Self","Friend","Friend","Close",439,0.439,1
1002,2,92,"M","shape1.jpg","You","Matching","Self","Self","Self","Self",313,0.313,1
1002,2,92,"F","shape3.jpg","You","Nonmatching","Self","Stranger","Stranger","Stranger",413,0.413,1
1002,2,93,"M","shape3.jpg","Friend","Nonmatching","Friend","Stranger","Stranger","Stranger",961,0.961,1
1002,2,93,"F","shape2.jpg","Friend","Matching","Friend","Friend","Friend","Close",395,0.395,1
1002,2,94,"M","shape1.jpg","You","Matching","Self","Self","Self","Self",274,0.274,1
1002,2,94,"F","shape2.jpg","You","Nonmatching","Self","Friend","Friend","Close",1194,1.194,1
1002,2,95,"M","shape2.jpg","You","Nonmatching","Self","Friend","Friend","Close",657,0.657,1
1002,2,95,"F","shape2.jpg","Stranger","Nonmatching","Stranger","Friend","Friend","Close",406,0.406,1
1002,2,96,"M","shape3.jpg","Stranger","Matching","Stranger","Stranger","Stranger","Stranger",418,0.418,1
1002,2,96,"F","shape3.jpg","You","Nonmatching","Self","Stranger","Stranger","Stranger",420,0.42,1
1002,2,97,"M","shape2.jpg","You","Nonmatching","Self","Friend","Friend","Close",474,0.474,0
1002,2,97,"F","shape3.jpg","You","Nonmatching","Self","Stranger","Stranger","Stranger",361,0.361,1
1002,2,98,"M","shape1.jpg","Stranger","Nonmatching","Stranger","Self","Self","Self",1011,1.011,1
1002,2,98,"F","shape2.jpg","Stranger","Nonmatching","Stranger","Friend","Friend","Close",329,0.329,1
1002,2,99,"M","shape2.jpg","Friend","Matching","Friend","Friend","Friend","Close",421,0.421,1
1002,2,99,"F","shape1.jpg","You","Matching","Self","Self","Self","Self",405,0.405,1
1002,2,100,"M","shape3.jpg","Friend","Nonmatching","Friend","Stranger","Stranger","Stranger",460,0.46,1
1002,2,100,"F","shape2.jpg","Stranger","Nonmatching","Stranger","Friend","Friend","Close",324,0.324,1
1002,2,101,"M","shape1.jpg","You","Matching","Self","Self","Self","Self",383,0.383,1
1002,2,101,"F","shape3.jpg","Friend","Nonmatching","Friend","Stranger","Stranger","Stranger",415,0.415,1
1002,2,102,"M","shape3.jpg","Friend","Nonmatching","Friend","Stranger","Stranger","Stranger",390,0.39,1
1002,2,102,"F","shape3.jpg","Friend","Nonmatching","Friend","Stranger","Stranger","Stranger",440,0.44,1
1002,2,103,"M","shape1.jpg","You","Matching","Self","Self","Self","Self",351,0.351,1
1002,2,103,"F","shape2.jpg","Friend","Matching","Friend","Friend","Friend","Close",471,0.471,1
1002,2,104,"M","shape2.jpg","Stranger","Nonmatching","Stranger","Friend","Friend","Close",379,0.379,1
1002,2,104,"F","shape3.jpg","Friend","Nonmatching","Friend","Stranger","Stranger","Stranger",382,0.382,1
1002,2,105,"M","shape3.jpg","You","Nonmatching","Self","Stranger","Stranger","Stranger",419,0.419,1
1002,2,105,"F","shape3.jpg","Stranger","Matching","Stranger","Stranger","Stranger","Stranger",380,0.38,1
1002,2,106,"M","shape2.jpg","Stranger","Nonmatching","Stranger","Friend","Friend","Close",689,0.689,1
1002,2,106,"F","shape2.jpg","You","Nonmatching","Self","Friend","Friend","Close",386,0.386,1
1002,2,107,"M","shape2.jpg","Stranger","Nonmatching","Stranger","Friend","Friend","Close",593,0.593,1
1002,2,107,"F","shape2.jpg","Friend","Matching","Friend","Friend","Friend","Close",434,0.434,1
1002,2,108,"M","shape2.jpg","Stranger","Nonmatching","Stranger","Friend","Friend","Close",890,0.89,1
1002,2,108,"F","shape1.jpg","You","Matching","Self","Self","Self","Self",288,0.288,1
1002,2,109,"M","shape2.jpg","Stranger","Nonmatching","Stranger","Friend","Friend","Close",660,0.66,1
1002,2,109,"F","shape1.jpg","You","Matching","Self","Self","Self","Self",222,0.222,0
1002,2,110,"M","shape1.jpg","You","Matching","Self","Self","Self","Self",361,0.361,0
1002,2,110,"F","shape1.jpg","Friend","Nonmatching","Friend","Self","Self","Self",369,0.369,1
1002,2,111,"M","shape3.jpg","Stranger","Matching","Stranger","Stranger","Stranger","Stranger",778,0.778,1
1002,2,111,"F","shape2.jpg","You","Nonmatching","Self","Friend","Friend","Close",439,0.439,1
1002,2,112,"M","shape1.jpg","Stranger","Nonmatching","Stranger","Self","Self","Self",399,0.399,1
1002,2,112,"F","shape3.jpg","Friend","Nonmatching","Friend","Stranger","Stranger","Stranger",518,0.518,1
1002,2,113,"M","shape3.jpg","Stranger","Matching","Stranger","Stranger","Stranger","Stranger",538,0.538,1
1002,2,113,"F","shape2.jpg","Friend","Matching","Friend","Friend","Friend","Close",640,0.64,1
1002,2,114,"M","shape1.jpg","Stranger","Nonmatching","Stranger","Self","Self","Self",502,0.502,1
1002,2,114,"F","shape3.jpg","You","Nonmatching","Self","Stranger","Stranger","Stranger",407,0.407,1
1002,2,115,"M","shape3.jpg","You","Nonmatching","Self","Stranger","Stranger","Stranger",487,0.487,1
1002,2,115,"F","shape1.jpg","You","Matching","Self","Self","Self","Self",478,0.478,1
1002,2,116,"M","shape2.jpg","Friend","Matching","Friend","Friend","Friend","Close",483,0.483,1
1002,2,116,"F","shape3.jpg","Stranger","Matching","Stranger","Stranger","Stranger","Stranger",539,0.539,1
1002,2,117,"M","shape3.jpg","Stranger","Matching","Stranger","Stranger","Stranger","Stranger",409,0.409,1
1002,2,117,"F","shape1.jpg","Friend","Nonmatching","Friend","Self","Self","Self",614,0.614,0
1002,2,118,"M","shape1.jpg","Friend","Nonmatching","Friend","Self","Self","Self",421,0.421,1
1002,2,118,"F","shape3.jpg","Stranger","Matching","Stranger","Stranger","Stranger","Stranger",416,0.416,1
1002,2,119,"M","shape3.jpg","Stranger","Matching","Stranger","Stranger","Stranger","Stranger",454,0.454,1
1002,2,119,"F","shape1.jpg","You","Matching","Self","Self","Self","Self",401,0.401,1
1002,2,120,"M","shape3.jpg","You","Nonmatching","Self","Stranger","Stranger","Stranger",426,0.426,1
1002,2,120,"F","shape3.jpg","Friend","Nonmatching","Friend","Stranger","Stranger","Stranger",434,0.434,1
1002,2,121,"M","shape2.jpg","Stranger","Nonmatching","Stranger","Friend","Friend","Close",432,0.432,1
1002,2,121,"F","shape3.jpg","Stranger","Matching","Stranger","Stranger","Stranger","Stranger",330,0.33,1
1002,2,122,"M","shape3.jpg","Friend","Nonmatching","Friend","Stranger","Stranger","Stranger",468,0.468,1
1002,2,122,"F","shape1.jpg","You","Matching","Self","Self","Self","Self",380,0.38,1
1002,2,123,"M","shape3.jpg","Stranger","Matching","Stranger","Stranger","Stranger","Stranger",644,0.644,1
1002,2,123,"F","shape1.jpg","Stranger","Nonmatching","Stranger","Self","Self","Self",856,0.856,1
1002,2,124,"M","shape2.jpg","Friend","Matching","Friend","Friend","Friend","Close",454,0.454,1
1002,2,124,"F","shape1.jpg","Stranger","Nonmatching","Stranger","Self","Self","Self",1537,1.537,0
1002,2,125,"M","shape2.jpg","Friend","Matching","Friend","Friend","Friend","Close",417,0.417,1
1002,2,125,"F","shape3.jpg","Stranger","Matching","Stranger","Stranger","Stranger","Stranger",465,0.465,1
1002,2,126,"M","shape2.jpg","You","Nonmatching","Self","Friend","Friend","Close",410,0.41,1
1002,2,126,"F","shape1.jpg","You","Matching","Self","Self","Self","Self",364,0.364,1
1002,2,127,"M","shape1.jpg","Stranger","Nonmatching","Stranger","Self","Self","Self",486,0.486,1
1002,2,127,"F","shape1.jpg","Stranger","Nonmatching","Stranger","Self","Self","Self",344,0.344,1
1002,2,128,"M","shape3.jpg","Friend","Nonmatching","Friend","Stranger","Stranger","Stranger",831,0.831,1
1002,2,128,"F","shape3.jpg","Stranger","Matching","Stranger","Stranger","Stranger","Stranger",1027,1.027,1
1002,2,129,"M","shape1.jpg","Stranger","Nonmatching","Stranger","Self","Self","Self",524,0.524,1
1002,2,129,"F","shape2.jpg","Friend","Matching","Friend","Friend","Friend","Close",854,0.854,1
1002,2,130,"M","shape3.jpg","Stranger","Matching","Stranger","Stranger","Stranger","Stranger",399,0.399,1
1002,2,130,"F","shape2.jpg","You","Nonmatching","Self","Friend","Friend","Close",596,0.596,1
1002,2,131,"M","shape2.jpg","Friend","Matching","Friend","Friend","Friend","Close",668,0.668,1
1002,2,131,"F","shape3.jpg","You","Nonmatching","Self","Stranger","Stranger","Stranger",438,0.438,1
1002,2,132,"M","shape2.jpg","Friend","Matching","Friend","Friend","Friend","Close",666,0.666,1
1002,2,132,"F","shape2.jpg","Friend","Matching","Friend","Friend","Friend","Close",307,0.307,1
1002,2,133,"M","shape2.jpg","Friend","Matching","Friend","Friend","Friend","Close",680,0.68,1
1002,2,133,"F","shape3.jpg","You","Nonmatching","Self","Stranger","Stranger","Stranger",400,0.4,1
1002,2,134,"M","shape3.jpg","Stranger","Matching","Stranger","Stranger","Stranger","Stranger",730,0.73,0
1002,2,134,"F","shape3.jpg","Stranger","Matching","Stranger","Stranger","Stranger","Stranger",378,0.378,1
1002,2,135,"M","shape1.jpg","You","Matching","Self","Self","Self","Self",488,0.488,1
1002,2,135,"F","shape3.jpg","Stranger","Matching","Stranger","Stranger","Stranger","Stranger",305,0.305,1
1002,2,136,"M","shape1.jpg","You","Matching","Self","Self","Self","Self",359,0.359,1
1002,2,136,"F","shape3.jpg","You","Nonmatching","Self","Stranger","Stranger","Stranger",325,0.325,1
1002,2,137,"M","shape3.jpg","Friend","Nonmatching","Friend","Stranger","Stranger","Stranger",672,0.672,1
1002,2,137,"F","shape2.jpg","Friend","Matching","Friend","Friend","Friend","Close",401,0.401,1
1002,2,138,"M","shape3.jpg","Stranger","Matching","Stranger","Stranger","Stranger","Stranger",930,0.93,0
1002,2,138,"F","shape2.jpg","Stranger","Nonmatching","Stranger","Friend","Friend","Close",498,0.498,1
1002,2,139,"M","shape1.jpg","You","Matching","Self","Self","Self","Self",358,0.358,1
1002,2,139,"F","shape3.jpg","Stranger","Matching","Stranger","Stranger","Stranger","Stranger",532,0.532,0
1002,2,140,"M","shape1.jpg","Friend","Nonmatching","Friend","Self","Self","Self",419,0.419,1
1002,2,140,"F","shape2.jpg","You","Nonmatching","Self","Friend","Friend","Close",0,0,0
1002,2,141,"M","shape2.jpg","Friend","Matching","Friend","Friend","Friend","Close",376,0.376,1
1002,2,141,"F","shape1.jpg","You","Matching","Self","Self","Self","Self",448,0.448,1
1002,2,142,"M","shape2.jpg","Friend","Matching","Friend","Friend","Friend","Close",865,0.865,1
1002,2,142,"F","shape1.jpg","You","Matching","Self","Self","Self","Self",536,0.536,1
1002,2,143,"M","shape1.jpg","You","Matching","Self","Self","Self","Self",372,0.372,1
1002,2,143,"F","shape2.jpg","Friend","Matching","Friend","Friend","Friend","Close",405,0.405,0
1002,2,144,"M","shape2.jpg","You","Nonmatching","Self","Friend","Friend","Close",816,0.816,1
1002,2,144,"F","shape1.jpg","Stranger","Nonmatching","Stranger","Self","Self","Self",386,0.386,1
1002,2,145,"M","shape1.jpg","Stranger","Nonmatching","Stranger","Self","Self","Self",598,0.598,1
1002,2,145,"F","shape3.jpg","Stranger","Matching","Stranger","Stranger","Stranger","Stranger",375,0.375,1
1002,2,146,"M","shape2.jpg","Friend","Matching","Friend","Friend","Friend","Close",352,0.352,1
1002,2,146,"F","shape2.jpg","Stranger","Nonmatching","Stranger","Friend","Friend","Close",462,0.462,1
1002,2,147,"M","shape3.jpg","You","Nonmatching","Self","Stranger","Stranger","Stranger",484,0.484,1
1002,2,147,"F","shape3.jpg","Friend","Nonmatching","Friend","Stranger","Stranger","Stranger",443,0.443,1
1002,2,148,"M","shape3.jpg","You","Nonmatching","Self","Stranger","Stranger","Stranger",413,0.413,1
1002,2,148,"F","shape1.jpg","You","Matching","Self","Self","Self","Self",311,0.311,1
1002,2,149,"M","shape1.jpg","Friend","Nonmatching","Friend","Self","Self","Self",410,0.41,1
1002,2,149,"F","shape3.jpg","Friend","Nonmatching","Friend","Stranger","Stranger","Stranger",419,0.419,1
1002,2,150,"M","shape2.jpg","Friend","Matching","Friend","Friend","Friend","Close",300,0.3,1
1002,2,150,"F","shape1.jpg","You","Matching","Self","Self","Self","Self",311,0.311,1
1002,2,151,"M","shape3.jpg","You","Nonmatching","Self","Stranger","Stranger","Stranger",514,0.514,1
1002,2,151,"F","shape1.jpg","You","Matching","Self","Self","Self","Self",403,0.403,1
1002,2,152,"M","shape1.jpg","Friend","Nonmatching","Friend","Self","Self","Self",551,0.551,1
1002,2,152,"F","shape3.jpg","Stranger","Matching","Stranger","Stranger","Stranger","Stranger",479,0.479,1
1002,2,153,"M","shape2.jpg","Friend","Matching","Friend","Friend","Friend","Close",600,0.6,1
1002,2,153,"F","shape1.jpg","Friend","Nonmatching","Friend","Self","Self","Self",2001,2.001,1
1002,2,154,"M","shape3.jpg","Friend","Nonmatching","Friend","Stranger","Stranger","Stranger",440,0.44,1
1002,2,154,"F","shape1.jpg","Friend","Nonmatching","Friend","Self","Self","Self",664,0.664,0
1002,2,155,"M","shape3.jpg","Stranger","Matching","Stranger","Stranger","Stranger","Stranger",992,0.992,1
1002,2,155,"F","shape1.jpg","Stranger","Nonmatching","Stranger","Self","Self","Self",512,0.512,1
1002,2,156,"M","shape3.jpg","You","Nonmatching","Self","Stranger","Stranger","Stranger",308,0.308,1
1002,2,156,"F","shape2.jpg","Friend","Matching","Friend","Friend","Friend","Close",1006,1.006,1
1002,2,157,"M","shape3.jpg","Stranger","Matching","Stranger","Stranger","Stranger","Stranger",638,0.638,1
1002,2,157,"F","shape1.jpg","Friend","Nonmatching","Friend","Self","Self","Self",448,0.448,0
1002,2,158,"M","shape1.jpg","Stranger","Nonmatching","Stranger","Self","Self","Self",1148,1.148,1
1002,2,158,"F","shape2.jpg","Stranger","Nonmatching","Stranger","Friend","Friend","Close",417,0.417,1
1002,2,159,"M","shape1.jpg","Friend","Nonmatching","Friend","Self","Self","Self",1552,1.552,1
1002,2,159,"F","shape2.jpg","Friend","Matching","Friend","Friend","Friend","Close",606,0.606,1
1002,2,160,"M","shape2.jpg","You","Nonmatching","Self","Friend","Friend","Close",811,0.811,1
1002,2,160,"F","shape1.jpg","Friend","Nonmatching","Friend","Self","Self","Self",421,0.421,1
1002,2,161,"M","shape2.jpg","You","Nonmatching","Self","Friend","Friend","Close",673,0.673,0
1002,2,161,"F","shape1.jpg","You","Matching","Self","Self","Self","Self",483,0.483,1
1002,2,162,"M","shape3.jpg","Stranger","Matching","Stranger","Stranger","Stranger","Stranger",372,0.372,1
1002,2,162,"F","shape1.jpg","Stranger","Nonmatching","Stranger","Self","Self","Self",383,0.383,1
1002,2,163,"M","shape2.jpg","Stranger","Nonmatching","Stranger","Friend","Friend","Close",468,0.468,1
1002,2,163,"F","shape3.jpg","Stranger","Matching","Stranger","Stranger","Stranger","Stranger",391,0.391,1
1002,2,164,"M","shape1.jpg","You","Matching","Self","Self","Self","Self",2139,2.139,1
1002,2,164,"F","shape1.jpg","Stranger","Nonmatching","Stranger","Self","Self","Self",417,0.417,1
1002,2,165,"M","shape2.jpg","You","Nonmatching","Self","Friend","Friend","Close",748,0.748,1
1002,2,165,"F","shape3.jpg","Stranger","Matching","Stranger","Stranger","Stranger","Stranger",730,0.73,1
1002,2,166,"M","shape1.jpg","Friend","Nonmatching","Friend","Self","Self","Self",69,0.069,0
1002,2,166,"F","shape1.jpg","You","Matching","Self","Self","Self","Self",716,0.716,1
1002,2,167,"M","shape1.jpg","You","Matching","Self","Self","Self","Self",1429,1.429,0
1002,2,167,"F","shape2.jpg","Friend","Matching","Friend","Friend","Friend","Close",386,0.386,1
1002,2,168,"M","shape2.jpg","Friend","Matching","Friend","Friend","Friend","Close",507,0.507,1
1002,2,168,"F","shape1.jpg","Friend","Nonmatching","Friend","Self","Self","Self",404,0.404,1
1002,3,169,"M","shape3.jpg","You","Nonmatching","Self","Stranger","Stranger","Stranger",0,0,0
1002,3,169,"F","shape3.jpg","Stranger","Matching","Stranger","Stranger","Stranger","Stranger",427,0.427,1
1002,3,170,"M","shape1.jpg","Stranger","Nonmatching","Stranger","Self","Self","Self",843,0.843,1
1002,3,170,"F","shape1.jpg","You","Matching","Self","Self","Self","Self",461,0.461,1
1002,3,171,"M","shape2.jpg","Friend","Matching","Friend","Friend","Friend","Close",411,0.411,1
1002,3,171,"F","shape1.jpg","Friend","Nonmatching","Friend","Self","Self","Self",398,0.398,1
1002,3,172,"M","shape1.jpg","Stranger","Nonmatching","Stranger","Self","Self","Self",370,0.37,1
1002,3,172,"F","shape3.jpg","You","Nonmatching","Self","Stranger","Stranger","Stranger",457,0.457,1
1002,3,173,"M","shape3.jpg","Stranger","Matching","Stranger","Stranger","Stranger","Stranger",535,0.535,1
1002,3,173,"F","shape3.jpg","Stranger","Matching","Stranger","Stranger","Stranger","Stranger",394,0.394,1
1002,3,174,"M","shape1.jpg","You","Matching","Self","Self","Self","Self",361,0.361,1
1002,3,174,"F","shape3.jpg","Stranger","Matching","Stranger","Stranger","Stranger","Stranger",398,0.398,1
1002,3,175,"M","shape2.jpg","Friend","Matching","Friend","Friend","Friend","Close",483,0.483,1
1002,3,175,"F","shape1.jpg","You","Matching","Self","Self","Self","Self",417,0.417,1
1002,3,176,"M","shape1.jpg","You","Matching","Self","Self","Self","Self",416,0.416,1
1002,3,176,"F","shape3.jpg","Friend","Nonmatching","Friend","Stranger","Stranger","Stranger",472,0.472,1
1002,3,177,"M","shape2.jpg","You","Nonmatching","Self","Friend","Friend","Close",526,0.526,1
1002,3,177,"F","shape2.jpg","Friend","Matching","Friend","Friend","Friend","Close",427,0.427,1
1002,3,178,"M","shape3.jpg","Friend","Nonmatching","Friend","Stranger","Stranger","Stranger",469,0.469,1
1002,3,178,"F","shape3.jpg","You","Nonmatching","Self","Stranger","Stranger","Stranger",385,0.385,1
1002,3,179,"M","shape3.jpg","Friend","Nonmatching","Friend","Stranger","Stranger","Stranger",449,0.449,1
1002,3,179,"F","shape2.jpg","Friend","Matching","Friend","Friend","Friend","Close",440,0.44,1
1002,3,180,"M","shape1.jpg","You","Matching","Self","Self","Self","Self",377,0.377,1
1002,3,180,"F","shape1.jpg","Friend","Nonmatching","Friend","Self","Self","Self",372,0.372,1
1002,3,181,"M","shape2.jpg","You","Nonmatching","Self","Friend","Friend","Close",596,0.596,0
1002,3,181,"F","shape1.jpg","Stranger","Nonmatching","Stranger","Self","Self","Self",405,0.405,1
1002,3,182,"M","shape3.jpg","Friend","Nonmatching","Friend","Stranger","Stranger","Stranger",621,0.621,1
1002,3,182,"F","shape3.jpg","You","Nonmatching","Self","Stranger","Stranger","Stranger",372,0.372,1
