"","Subject","Block","Trial","Matching","Origin_Identity","English_Identity","Standarlized_Identity","RT_ms","RT_sec","ACC","Face_Gender"
"1",2001,1,1,"Matching","Stranger","Stranger","Stranger",720,0.72,1,"F"
"2",2001,1,1,"Nonmatching","Self","Self","Self",747,0.747,1,"M"
"3",2001,1,2,"Nonmatching","Stranger","Stranger","Stranger",489,0.489,1,"F"
"4",2001,1,2,"Nonmatching","Self","Self","Self",695,0.695,1,"M"
"5",2001,1,3,"Matching","Friend","Friend","Close",427,0.427,1,"F"
"6",2001,1,3,"Matching","Stranger","Stranger","Stranger",501,0.501,1,"M"
"7",2001,1,4,"Matching","Friend","Friend","Close",518,0.518,1,"F"
"8",2001,1,4,"Matching","Stranger","Stranger","Stranger",594,0.594,1,"M"
"9",2001,1,5,"Nonmatching","Stranger","Stranger","Stranger",909,0.909,1,"F"
"10",2001,1,5,"Nonmatching","Self","Self","Self",527,0.527,1,"M"
"11",2001,1,6,"Nonmatching","Friend","Friend","Close",679,0.679,1,"F"
"12",2001,1,6,"Nonmatching","Stranger","Stranger","Stranger",411,0.411,1,"M"
"13",2001,1,7,"Nonmatching","Self","Self","Self",677,0.677,1,"F"
"14",2001,1,7,"Nonmatching","Self","Self","Self",448,0.448,1,"M"
"15",2001,1,8,"Nonmatching","Self","Self","Self",428,0.428,1,"F"
"16",2001,1,8,"Nonmatching","Self","Self","Self",440,0.44,1,"M"
"17",2001,1,9,"Nonmatching","Self","Self","Self",507,0.507,1,"F"
"18",2001,1,9,"Nonmatching","Self","Self","Self",506,0.506,1,"M"
"19",2001,1,10,"Nonmatching","Self","Self","Self",736,0.736,1,"F"
"20",2001,1,10,"Matching","Friend","Friend","Close",576,0.576,1,"M"
"21",2001,1,11,"Nonmatching","Friend","Friend","Close",597,0.597,1,"F"
"22",2001,1,11,"Nonmatching","Self","Self","Self",538,0.538,1,"M"
"23",2001,1,12,"Nonmatching","Friend","Friend","Close",547,0.547,1,"F"
"24",2001,1,12,"Nonmatching","Self","Self","Self",460,0.46,1,"M"
"25",2001,1,13,"Matching","Stranger","Stranger","Stranger",528,0.528,1,"F"
"26",2001,1,13,"Matching","Friend","Friend","Close",526,0.526,1,"M"
"27",2001,1,14,"Nonmatching","Self","Self","Self",627,0.627,1,"F"
"28",2001,1,14,"Matching","Friend","Friend","Close",649,0.649,1,"M"
"29",2001,1,15,"Matching","Friend","Friend","Close",373,0.373,1,"F"
"30",2001,1,15,"Matching","Stranger","Stranger","Stranger",401,0.401,0,"M"
"31",2001,1,16,"Matching","Friend","Friend","Close",443,0.443,1,"F"
"32",2001,1,16,"Matching","Friend","Friend","Close",539,0.539,1,"M"
"33",2001,1,17,"Matching","Stranger","Stranger","Stranger",506,0.506,1,"F"
"34",2001,1,17,"Nonmatching","Self","Self","Self",400,0.4,1,"M"
"35",2001,1,18,"Nonmatching","Stranger","Stranger","Stranger",546,0.546,1,"F"
"36",2001,1,18,"Nonmatching","Friend","Friend","Close",1233,1.233,1,"M"
"37",2001,1,19,"Nonmatching","Friend","Friend","Close",797,0.797,1,"F"
"38",2001,1,19,"Nonmatching","Stranger","Stranger","Stranger",503,0.503,1,"M"
"39",2001,1,20,"Nonmatching","Stranger","Stranger","Stranger",1675,1.675,1,"F"
"40",2001,1,20,"Nonmatching","Friend","Friend","Close",688,0.688,1,"M"
"41",2001,1,21,"Nonmatching","Friend","Friend","Close",672,0.672,1,"F"
"42",2001,1,21,"Nonmatching","Self","Self","Self",349,0.349,1,"M"
"43",2001,1,22,"Nonmatching","Self","Self","Self",457,0.457,1,"F"
"44",2001,1,22,"Nonmatching","Friend","Friend","Close",574,0.574,1,"M"
"45",2001,1,23,"Nonmatching","Self","Self","Self",557,0.557,1,"F"
"46",2001,1,23,"Nonmatching","Friend","Friend","Close",716,0.716,1,"M"
"47",2001,1,24,"Nonmatching","Self","Self","Self",438,0.438,1,"F"
"48",2001,1,24,"Nonmatching","Stranger","Stranger","Stranger",565,0.565,1,"M"
"49",2001,1,25,"Nonmatching","Friend","Friend","Close",431,0.431,1,"F"
"50",2001,1,25,"Matching","Stranger","Stranger","Stranger",642,0.642,1,"M"
"51",2001,1,26,"Matching","Stranger","Stranger","Stranger",650,0.65,1,"F"
"52",2001,1,26,"Matching","Friend","Friend","Close",566,0.566,1,"M"
"53",2001,1,27,"Nonmatching","Self","Self","Self",398,0.398,0,"F"
"54",2001,1,27,"Nonmatching","Stranger","Stranger","Stranger",446,0.446,1,"M"
"55",2001,1,28,"Matching","Friend","Friend","Close",373,0.373,1,"F"
"56",2001,1,28,"Nonmatching","Stranger","Stranger","Stranger",399,0.399,1,"M"
"57",2001,1,29,"Matching","Stranger","Stranger","Stranger",476,0.476,1,"F"
"58",2001,1,29,"Nonmatching","Self","Self","Self",513,0.513,1,"M"
"59",2001,1,30,"Nonmatching","Stranger","Stranger","Stranger",500,0.5,1,"F"
"60",2001,1,30,"Nonmatching","Self","Self","Self",577,0.577,1,"M"
"61",2001,1,31,"Nonmatching","Self","Self","Self",469,0.469,1,"F"
"62",2001,1,31,"Nonmatching","Friend","Friend","Close",533,0.533,1,"M"
"63",2001,1,32,"Matching","Stranger","Stranger","Stranger",739,0.739,1,"F"
"64",2001,1,32,"Matching","Friend","Friend","Close",602,0.602,1,"M"
"65",2001,1,33,"Nonmatching","Self","Self","Self",642,0.642,1,"F"
"66",2001,1,33,"Nonmatching","Self","Self","Self",548,0.548,1,"M"
"67",2001,1,34,"Nonmatching","Self","Self","Self",530,0.53,1,"F"
"68",2001,1,34,"Nonmatching","Friend","Friend","Close",626,0.626,1,"M"
"69",2001,1,35,"Nonmatching","Self","Self","Self",495,0.495,1,"F"
"70",2001,1,35,"Nonmatching","Friend","Friend","Close",601,0.601,1,"M"
"71",2001,1,36,"Matching","Stranger","Stranger","Stranger",548,0.548,1,"F"
"72",2001,1,36,"Matching","Friend","Friend","Close",472,0.472,1,"M"
"73",2001,1,37,"Nonmatching","Stranger","Stranger","Stranger",640,0.64,1,"F"
"74",2001,1,37,"Nonmatching","Self","Self","Self",398,0.398,1,"M"
"75",2001,1,38,"Nonmatching","Stranger","Stranger","Stranger",573,0.573,1,"F"
"76",2001,1,38,"Nonmatching","Self","Self","Self",640,0.64,1,"M"
"77",2001,1,39,"Nonmatching","Self","Self","Self",524,0.524,1,"F"
"78",2001,1,39,"Nonmatching","Stranger","Stranger","Stranger",404,0.404,1,"M"
"79",2001,1,40,"Nonmatching","Friend","Friend","Close",504,0.504,1,"F"
"80",2001,1,40,"Nonmatching","Friend","Friend","Close",643,0.643,1,"M"
"81",2001,1,41,"Matching","Friend","Friend","Close",385,0.385,1,"F"
"82",2001,1,41,"Nonmatching","Stranger","Stranger","Stranger",391,0.391,1,"M"
"83",2001,1,42,"Nonmatching","Friend","Friend","Close",408,0.408,1,"F"
"84",2001,1,42,"Nonmatching","Self","Self","Self",430,0.43,1,"M"
"85",2001,1,43,"Nonmatching","Friend","Friend","Close",699,0.699,1,"F"
"86",2001,1,43,"Nonmatching","Friend","Friend","Close",452,0.452,1,"M"
"87",2001,1,44,"Nonmatching","Stranger","Stranger","Stranger",631,0.631,1,"F"
"88",2001,1,44,"Nonmatching","Self","Self","Self",404,0.404,1,"M"
"89",2001,1,45,"Nonmatching","Stranger","Stranger","Stranger",684,0.684,1,"F"
"90",2001,1,45,"Matching","Friend","Friend","Close",511,0.511,1,"M"
"91",2001,1,46,"Matching","Friend","Friend","Close",371,0.371,1,"F"
"92",2001,1,46,"Matching","Friend","Friend","Close",607,0.607,1,"M"
"93",2001,1,47,"Matching","Friend","Friend","Close",350,0.35,1,"F"
"94",2001,1,47,"Matching","Stranger","Stranger","Stranger",850,0.85,1,"M"
"95",2001,1,48,"Nonmatching","Self","Self","Self",588,0.588,1,"F"
"96",2001,1,48,"Nonmatching","Self","Self","Self",474,0.474,1,"M"
"97",2001,1,49,"Nonmatching","Self","Self","Self",415,0.415,1,"F"
"98",2001,1,49,"Nonmatching","Stranger","Stranger","Stranger",530,0.53,1,"M"
"99",2001,1,50,"Nonmatching","Self","Self","Self",469,0.469,1,"F"
"100",2001,1,50,"Nonmatching","Self","Self","Self",433,0.433,1,"M"
"101",2001,1,51,"Matching","Friend","Friend","Close",404,0.404,1,"F"
"102",2001,1,51,"Nonmatching","Self","Self","Self",546,0.546,1,"M"
"103",2001,1,52,"Nonmatching","Self","Self","Self",770,0.77,1,"F"
"104",2001,1,52,"Nonmatching","Stranger","Stranger","Stranger",468,0.468,1,"M"
"105",2001,1,53,"Nonmatching","Self","Self","Self",372,0.372,1,"F"
"106",2001,1,53,"Nonmatching","Stranger","Stranger","Stranger",442,0.442,1,"M"
"107",2001,1,54,"Matching","Friend","Friend","Close",336,0.336,1,"F"
"108",2001,1,54,"Matching","Stranger","Stranger","Stranger",501,0.501,1,"M"
"109",2001,1,55,"Nonmatching","Friend","Friend","Close",442,0.442,1,"F"
"110",2001,1,55,"Matching","Friend","Friend","Close",604,0.604,1,"M"
"111",2001,1,56,"Matching","Stranger","Stranger","Stranger",652,0.652,1,"F"
"112",2001,1,56,"Nonmatching","Self","Self","Self",524,0.524,1,"M"
"113",2001,1,57,"Nonmatching","Stranger","Stranger","Stranger",427,0.427,1,"F"
"114",2001,1,57,"Nonmatching","Friend","Friend","Close",481,0.481,1,"M"
"115",2001,1,58,"Nonmatching","Self","Self","Self",450,0.45,1,"F"
"116",2001,1,58,"Matching","Stranger","Stranger","Stranger",476,0.476,1,"M"
"117",2001,1,59,"Nonmatching","Friend","Friend","Close",667,0.667,1,"F"
"118",2001,1,59,"Nonmatching","Self","Self","Self",435,0.435,0,"M"
"119",2001,1,60,"Matching","Stranger","Stranger","Stranger",492,0.492,1,"F"
"120",2001,1,60,"Matching","Stranger","Stranger","Stranger",437,0.437,1,"M"
"121",2001,1,61,"Nonmatching","Friend","Friend","Close",638,0.638,1,"F"
"122",2001,1,61,"Nonmatching","Stranger","Stranger","Stranger",447,0.447,1,"M"
"123",2001,1,62,"Nonmatching","Friend","Friend","Close",507,0.507,1,"F"
"124",2001,1,62,"Matching","Stranger","Stranger","Stranger",390,0.39,1,"M"
"125",2001,1,63,"Nonmatching","Friend","Friend","Close",678,0.678,1,"F"
"126",2001,1,63,"Nonmatching","Stranger","Stranger","Stranger",476,0.476,1,"M"
"127",2001,1,64,"Nonmatching","Self","Self","Self",539,0.539,1,"F"
"128",2001,1,64,"Matching","Stranger","Stranger","Stranger",536,0.536,1,"M"
"129",2001,1,65,"Matching","Stranger","Stranger","Stranger",416,0.416,1,"F"
"130",2001,1,65,"Nonmatching","Self","Self","Self",421,0.421,1,"M"
"131",2001,1,66,"Matching","Stranger","Stranger","Stranger",761,0.761,1,"F"
"132",2001,1,66,"Nonmatching","Self","Self","Self",337,0.337,1,"M"
"133",2001,1,67,"Nonmatching","Self","Self","Self",549,0.549,1,"F"
"134",2001,1,67,"Nonmatching","Stranger","Stranger","Stranger",586,0.586,1,"M"
"135",2001,1,68,"Nonmatching","Stranger","Stranger","Stranger",577,0.577,1,"F"
"136",2001,1,68,"Nonmatching","Friend","Friend","Close",619,0.619,1,"M"
"137",2001,1,69,"Matching","Stranger","Stranger","Stranger",631,0.631,1,"F"
"138",2001,1,69,"Matching","Friend","Friend","Close",531,0.531,1,"M"
"139",2001,1,70,"Matching","Friend","Friend","Close",377,0.377,1,"F"
"140",2001,1,70,"Matching","Stranger","Stranger","Stranger",405,0.405,1,"M"
"141",2001,1,71,"Nonmatching","Self","Self","Self",629,0.629,1,"F"
"142",2001,1,71,"Nonmatching","Self","Self","Self",662,0.662,1,"M"
"143",2001,1,72,"Matching","Friend","Friend","Close",454,0.454,1,"F"
"144",2001,1,72,"Nonmatching","Self","Self","Self",479,0.479,1,"M"
"145",2001,1,73,"Matching","Friend","Friend","Close",349,0.349,1,"F"
"146",2001,1,73,"Nonmatching","Stranger","Stranger","Stranger",444,0.444,1,"M"
"147",2001,1,74,"Matching","Friend","Friend","Close",360,0.36,1,"F"
"148",2001,1,74,"Nonmatching","Self","Self","Self",445,0.445,1,"M"
"149",2001,1,75,"Nonmatching","Self","Self","Self",468,0.468,1,"F"
"150",2001,1,75,"Matching","Friend","Friend","Close",681,0.681,1,"M"
"151",2001,1,76,"Nonmatching","Stranger","Stranger","Stranger",641,0.641,1,"F"
"152",2001,1,76,"Nonmatching","Self","Self","Self",537,0.537,1,"M"
"153",2001,1,77,"Nonmatching","Stranger","Stranger","Stranger",591,0.591,1,"F"
"154",2001,1,77,"Nonmatching","Friend","Friend","Close",585,0.585,1,"M"
"155",2001,1,78,"Nonmatching","Self","Self","Self",445,0.445,1,"F"
"156",2001,1,78,"Matching","Friend","Friend","Close",364,0.364,1,"M"
"157",2001,1,79,"Nonmatching","Self","Self","Self",499,0.499,1,"F"
"158",2001,1,79,"Matching","Stranger","Stranger","Stranger",384,0.384,1,"M"
"159",2001,1,80,"Nonmatching","Self","Self","Self",508,0.508,1,"F"
"160",2001,1,80,"Matching","Stranger","Stranger","Stranger",343,0.343,1,"M"
"161",2001,1,81,"Nonmatching","Self","Self","Self",491,0.491,1,"F"
"162",2001,1,81,"Nonmatching","Friend","Friend","Close",525,0.525,1,"M"
"163",2001,1,82,"Nonmatching","Stranger","Stranger","Stranger",459,0.459,1,"F"
"164",2001,1,82,"Matching","Friend","Friend","Close",579,0.579,1,"M"
"165",2001,1,83,"Matching","Stranger","Stranger","Stranger",353,0.353,1,"F"
"166",2001,1,83,"Matching","Stranger","Stranger","Stranger",375,0.375,1,"M"
"167",2001,1,84,"Matching","Stranger","Stranger","Stranger",423,0.423,1,"F"
"168",2001,1,84,"Nonmatching","Friend","Friend","Close",579,0.579,1,"M"
"169",2001,2,85,"Nonmatching","Self","Self","Self",659,0.659,1,"F"
"170",2001,2,85,"Nonmatching","Stranger","Stranger","Stranger",518,0.518,1,"M"
"171",2001,2,86,"Matching","Friend","Friend","Close",358,0.358,1,"F"
"172",2001,2,86,"Nonmatching","Self","Self","Self",659,0.659,1,"M"
"173",2001,2,87,"Nonmatching","Self","Self","Self",426,0.426,0,"F"
"174",2001,2,87,"Matching","Stranger","Stranger","Stranger",403,0.403,1,"M"
"175",2001,2,88,"Nonmatching","Self","Self","Self",568,0.568,1,"F"
"176",2001,2,88,"Nonmatching","Self","Self","Self",525,0.525,1,"M"
"177",2001,2,89,"Nonmatching","Friend","Friend","Close",567,0.567,1,"F"
"178",2001,2,89,"Matching","Stranger","Stranger","Stranger",426,0.426,1,"M"
"179",2001,2,90,"Nonmatching","Self","Self","Self",536,0.536,1,"F"
"180",2001,2,90,"Nonmatching","Friend","Friend","Close",751,0.751,1,"M"
"181",2001,2,91,"Matching","Friend","Friend","Close",428,0.428,1,"F"
"182",2001,2,91,"Nonmatching","Self","Self","Self",480,0.48,1,"M"
"183",2001,2,92,"Nonmatching","Self","Self","Self",507,0.507,1,"F"
"184",2001,2,92,"Matching","Stranger","Stranger","Stranger",359,0.359,1,"M"
"185",2001,2,93,"Nonmatching","Self","Self","Self",460,0.46,1,"F"
"186",2001,2,93,"Matching","Friend","Friend","Close",470,0.47,1,"M"
"187",2001,2,94,"Nonmatching","Friend","Friend","Close",576,0.576,1,"F"
"188",2001,2,94,"Nonmatching","Friend","Friend","Close",488,0.488,1,"M"
"189",2001,2,95,"Nonmatching","Self","Self","Self",520,0.52,1,"F"
"190",2001,2,95,"Nonmatching","Stranger","Stranger","Stranger",420,0.42,1,"M"
"191",2001,2,96,"Nonmatching","Friend","Friend","Close",684,0.684,1,"F"
"192",2001,2,96,"Nonmatching","Friend","Friend","Close",426,0.426,1,"M"
"193",2001,2,97,"Nonmatching","Self","Self","Self",474,0.474,1,"F"
"194",2001,2,97,"Nonmatching","Self","Self","Self",467,0.467,1,"M"
"195",2001,2,98,"Matching","Friend","Friend","Close",787,0.787,1,"F"
"196",2001,2,98,"Matching","Friend","Friend","Close",550,0.55,1,"M"
"197",2001,2,99,"Nonmatching","Friend","Friend","Close",428,0.428,1,"F"
"198",2001,2,99,"Nonmatching","Stranger","Stranger","Stranger",423,0.423,1,"M"
"199",2001,2,100,"Nonmatching","Stranger","Stranger","Stranger",536,0.536,1,"F"
"200",2001,2,100,"Nonmatching","Stranger","Stranger","Stranger",419,0.419,1,"M"
"201",2001,2,101,"Nonmatching","Self","Self","Self",556,0.556,1,"F"
"202",2001,2,101,"Matching","Stranger","Stranger","Stranger",328,0.328,1,"M"
"203",2001,2,102,"Nonmatching","Friend","Friend","Close",618,0.618,1,"F"
"204",2001,2,102,"Matching","Stranger","Stranger","Stranger",415,0.415,1,"M"
"205",2001,2,103,"Nonmatching","Friend","Friend","Close",422,0.422,1,"F"
"206",2001,2,103,"Nonmatching","Stranger","Stranger","Stranger",366,0.366,1,"M"
"207",2001,2,104,"Nonmatching","Stranger","Stranger","Stranger",558,0.558,1,"F"
"208",2001,2,104,"Matching","Stranger","Stranger","Stranger",404,0.404,1,"M"
"209",2001,2,105,"Matching","Friend","Friend","Close",388,0.388,1,"F"
"210",2001,2,105,"Matching","Friend","Friend","Close",533,0.533,1,"M"
"211",2001,2,106,"Nonmatching","Stranger","Stranger","Stranger",685,0.685,1,"F"
"212",2001,2,106,"Nonmatching","Stranger","Stranger","Stranger",617,0.617,1,"M"
"213",2001,2,107,"Nonmatching","Stranger","Stranger","Stranger",509,0.509,1,"F"
"214",2001,2,107,"Nonmatching","Self","Self","Self",539,0.539,1,"M"
"215",2001,2,108,"Nonmatching","Self","Self","Self",471,0.471,1,"F"
"216",2001,2,108,"Matching","Friend","Friend","Close",675,0.675,1,"M"
"217",2001,2,109,"Matching","Friend","Friend","Close",520,0.52,1,"F"
"218",2001,2,109,"Nonmatching","Self","Self","Self",507,0.507,1,"M"
"219",2001,2,110,"Nonmatching","Self","Self","Self",522,0.522,1,"F"
"220",2001,2,110,"Matching","Friend","Friend","Close",828,0.828,1,"M"
"221",2001,2,111,"Matching","Friend","Friend","Close",347,0.347,1,"F"
"222",2001,2,111,"Nonmatching","Friend","Friend","Close",594,0.594,1,"M"
"223",2001,2,112,"Nonmatching","Stranger","Stranger","Stranger",660,0.66,1,"F"
"224",2001,2,112,"Matching","Stranger","Stranger","Stranger",418,0.418,1,"M"
"225",2001,2,113,"Nonmatching","Friend","Friend","Close",458,0.458,1,"F"
"226",2001,2,113,"Nonmatching","Self","Self","Self",470,0.47,1,"M"
"227",2001,2,114,"Nonmatching","Self","Self","Self",485,0.485,1,"F"
"228",2001,2,114,"Nonmatching","Self","Self","Self",542,0.542,1,"M"
"229",2001,2,115,"Matching","Friend","Friend","Close",358,0.358,1,"F"
"230",2001,2,115,"Matching","Friend","Friend","Close",530,0.53,1,"M"
"231",2001,2,116,"Matching","Stranger","Stranger","Stranger",459,0.459,1,"F"
"232",2001,2,116,"Matching","Stranger","Stranger","Stranger",394,0.394,1,"M"
"233",2001,2,117,"Nonmatching","Stranger","Stranger","Stranger",467,0.467,1,"F"
"234",2001,2,117,"Nonmatching","Self","Self","Self",495,0.495,1,"M"
"235",2001,2,118,"Nonmatching","Friend","Friend","Close",473,0.473,1,"F"
"236",2001,2,118,"Nonmatching","Friend","Friend","Close",457,0.457,1,"M"
"237",2001,2,119,"Nonmatching","Self","Self","Self",407,0.407,1,"F"
"238",2001,2,119,"Nonmatching","Stranger","Stranger","Stranger",418,0.418,1,"M"
"239",2001,2,120,"Nonmatching","Stranger","Stranger","Stranger",472,0.472,1,"F"
"240",2001,2,120,"Nonmatching","Self","Self","Self",477,0.477,1,"M"
"241",2001,2,121,"Nonmatching","Self","Self","Self",477,0.477,1,"F"
"242",2001,2,121,"Matching","Friend","Friend","Close",585,0.585,1,"M"
"243",2001,2,122,"Nonmatching","Self","Self","Self",440,0.44,1,"F"
"244",2001,2,122,"Nonmatching","Friend","Friend","Close",625,0.625,1,"M"
"245",2001,2,123,"Nonmatching","Self","Self","Self",403,0.403,1,"F"
"246",2001,2,123,"Matching","Friend","Friend","Close",735,0.735,1,"M"
"247",2001,2,124,"Nonmatching","Self","Self","Self",346,0.346,1,"F"
"248",2001,2,124,"Nonmatching","Stranger","Stranger","Stranger",553,0.553,1,"M"
"249",2001,2,125,"Nonmatching","Self","Self","Self",437,0.437,1,"F"
"250",2001,2,125,"Nonmatching","Self","Self","Self",480,0.48,1,"M"
"251",2001,2,126,"Nonmatching","Self","Self","Self",495,0.495,1,"F"
"252",2001,2,126,"Nonmatching","Friend","Friend","Close",635,0.635,1,"M"
"253",2001,2,127,"Nonmatching","Stranger","Stranger","Stranger",481,0.481,1,"F"
"254",2001,2,127,"Matching","Stranger","Stranger","Stranger",524,0.524,1,"M"
"255",2001,2,128,"Matching","Stranger","Stranger","Stranger",579,0.579,1,"F"
"256",2001,2,128,"Nonmatching","Stranger","Stranger","Stranger",389,0.389,1,"M"
"257",2001,2,129,"Nonmatching","Self","Self","Self",457,0.457,1,"F"
"258",2001,2,129,"Nonmatching","Stranger","Stranger","Stranger",694,0.694,1,"M"
"259",2001,2,130,"Matching","Friend","Friend","Close",401,0.401,1,"F"
"260",2001,2,130,"Nonmatching","Stranger","Stranger","Stranger",405,0.405,1,"M"
"261",2001,2,131,"Nonmatching","Self","Self","Self",527,0.527,1,"F"
"262",2001,2,131,"Matching","Friend","Friend","Close",614,0.614,1,"M"
"263",2001,2,132,"Matching","Stranger","Stranger","Stranger",517,0.517,1,"F"
"264",2001,2,132,"Matching","Stranger","Stranger","Stranger",502,0.502,1,"M"
"265",2001,2,133,"Matching","Friend","Friend","Close",527,0.527,1,"F"
"266",2001,2,133,"Nonmatching","Self","Self","Self",439,0.439,1,"M"
"267",2001,2,134,"Matching","Stranger","Stranger","Stranger",407,0.407,1,"F"
"268",2001,2,134,"Matching","Stranger","Stranger","Stranger",585,0.585,1,"M"
"269",2001,2,135,"Nonmatching","Friend","Friend","Close",592,0.592,1,"F"
"270",2001,2,135,"Nonmatching","Friend","Friend","Close",778,0.778,1,"M"
"271",2001,2,136,"Nonmatching","Self","Self","Self",442,0.442,1,"F"
"272",2001,2,136,"Nonmatching","Friend","Friend","Close",480,0.48,1,"M"
"273",2001,2,137,"Matching","Friend","Friend","Close",549,0.549,1,"F"
"274",2001,2,137,"Nonmatching","Friend","Friend","Close",437,0.437,1,"M"
"275",2001,2,138,"Nonmatching","Friend","Friend","Close",384,0.384,1,"F"
"276",2001,2,138,"Nonmatching","Self","Self","Self",402,0.402,1,"M"
"277",2001,2,139,"Matching","Stranger","Stranger","Stranger",451,0.451,1,"F"
"278",2001,2,139,"Matching","Stranger","Stranger","Stranger",844,0.844,1,"M"
"279",2001,2,140,"Nonmatching","Friend","Friend","Close",405,0.405,1,"F"
"280",2001,2,140,"Nonmatching","Self","Self","Self",582,0.582,1,"M"
"281",2001,2,141,"Nonmatching","Self","Self","Self",342,0.342,1,"F"
"282",2001,2,141,"Matching","Friend","Friend","Close",533,0.533,1,"M"
"283",2001,2,142,"Matching","Stranger","Stranger","Stranger",603,0.603,1,"F"
"284",2001,2,142,"Nonmatching","Friend","Friend","Close",445,0.445,1,"M"
"285",2001,2,143,"Nonmatching","Self","Self","Self",378,0.378,1,"F"
"286",2001,2,143,"Nonmatching","Self","Self","Self",625,0.625,1,"M"
"287",2001,2,144,"Nonmatching","Self","Self","Self",433,0.433,1,"F"
"288",2001,2,144,"Nonmatching","Self","Self","Self",393,0.393,1,"M"
"289",2001,2,145,"Matching","Friend","Friend","Close",338,0.338,1,"F"
"290",2001,2,145,"Nonmatching","Friend","Friend","Close",535,0.535,1,"M"
"291",2001,2,146,"Matching","Friend","Friend","Close",323,0.323,1,"F"
"292",2001,2,146,"Matching","Friend","Friend","Close",481,0.481,1,"M"
"293",2001,2,147,"Nonmatching","Stranger","Stranger","Stranger",559,0.559,1,"F"
"294",2001,2,147,"Nonmatching","Self","Self","Self",456,0.456,1,"M"
"295",2001,2,148,"Matching","Stranger","Stranger","Stranger",600,0.6,1,"F"
"296",2001,2,148,"Matching","Stranger","Stranger","Stranger",407,0.407,1,"M"
"297",2001,2,149,"Matching","Stranger","Stranger","Stranger",342,0.342,1,"F"
"298",2001,2,149,"Matching","Friend","Friend","Close",440,0.44,1,"M"
"299",2001,2,150,"Matching","Stranger","Stranger","Stranger",309,0.309,1,"F"
"300",2001,2,150,"Nonmatching","Self","Self","Self",977,0.977,1,"M"
"301",2001,2,151,"Nonmatching","Stranger","Stranger","Stranger",461,0.461,1,"F"
"302",2001,2,151,"Nonmatching","Self","Self","Self",348,0.348,1,"M"
"303",2001,2,152,"Nonmatching","Stranger","Stranger","Stranger",634,0.634,1,"F"
"304",2001,2,152,"Matching","Stranger","Stranger","Stranger",661,0.661,1,"M"
"305",2001,2,153,"Nonmatching","Friend","Friend","Close",411,0.411,1,"F"
"306",2001,2,153,"Nonmatching","Stranger","Stranger","Stranger",432,0.432,1,"M"
"307",2001,2,154,"Matching","Stranger","Stranger","Stranger",495,0.495,1,"F"
"308",2001,2,154,"Nonmatching","Self","Self","Self",477,0.477,1,"M"
"309",2001,2,155,"Matching","Stranger","Stranger","Stranger",489,0.489,1,"F"
"310",2001,2,155,"Nonmatching","Self","Self","Self",422,0.422,1,"M"
"311",2001,2,156,"Nonmatching","Self","Self","Self",558,0.558,1,"F"
"312",2001,2,156,"Nonmatching","Self","Self","Self",528,0.528,1,"M"
"313",2001,2,157,"Matching","Stranger","Stranger","Stranger",556,0.556,1,"F"
"314",2001,2,157,"Nonmatching","Self","Self","Self",434,0.434,1,"M"
"315",2001,2,158,"Matching","Stranger","Stranger","Stranger",420,0.42,1,"F"
"316",2001,2,158,"Nonmatching","Self","Self","Self",525,0.525,1,"M"
"317",2001,2,159,"Nonmatching","Self","Self","Self",745,0.745,1,"F"
"318",2001,2,159,"Nonmatching","Stranger","Stranger","Stranger",1194,1.194,1,"M"
"319",2001,2,160,"Nonmatching","Friend","Friend","Close",610,0.61,1,"F"
"320",2001,2,160,"Matching","Friend","Friend","Close",507,0.507,1,"M"
"321",2001,2,161,"Nonmatching","Stranger","Stranger","Stranger",626,0.626,1,"F"
"322",2001,2,161,"Nonmatching","Self","Self","Self",538,0.538,1,"M"
"323",2001,2,162,"Matching","Stranger","Stranger","Stranger",447,0.447,1,"F"
"324",2001,2,162,"Nonmatching","Stranger","Stranger","Stranger",423,0.423,1,"M"
"325",2001,2,163,"Nonmatching","Stranger","Stranger","Stranger",635,0.635,1,"F"
"326",2001,2,163,"Nonmatching","Self","Self","Self",518,0.518,1,"M"
"327",2001,2,164,"Nonmatching","Friend","Friend","Close",416,0.416,1,"F"
"328",2001,2,164,"Matching","Friend","Friend","Close",350,0.35,1,"M"
"329",2001,2,165,"Matching","Friend","Friend","Close",387,0.387,1,"F"
"330",2001,2,165,"Nonmatching","Self","Self","Self",580,0.58,1,"M"
"331",2001,2,166,"Matching","Friend","Friend","Close",484,0.484,1,"F"
"332",2001,2,166,"Nonmatching","Friend","Friend","Close",543,0.543,1,"M"
"333",2001,2,167,"Nonmatching","Self","Self","Self",548,0.548,1,"F"
"334",2001,2,167,"Nonmatching","Friend","Friend","Close",637,0.637,1,"M"
"335",2001,2,168,"Nonmatching","Stranger","Stranger","Stranger",588,0.588,1,"F"
"336",2001,2,168,"Nonmatching","Self","Self","Self",472,0.472,1,"M"
"337",2001,3,169,"Nonmatching","Self","Self","Self",397,0.397,1,"F"
"338",2001,3,169,"Nonmatching","Self","Self","Self",586,0.586,1,"M"
"339",2001,3,170,"Matching","Stranger","Stranger","Stranger",381,0.381,1,"F"
"340",2001,3,170,"Nonmatching","Friend","Friend","Close",501,0.501,1,"M"
"341",2001,3,171,"Nonmatching","Self","Self","Self",340,0.34,0,"F"
"342",2001,3,171,"Nonmatching","Friend","Friend","Close",512,0.512,1,"M"
"343",2001,3,172,"Nonmatching","Self","Self","Self",564,0.564,1,"F"
"344",2001,3,172,"Nonmatching","Stranger","Stranger","Stranger",497,0.497,1,"M"
"345",2001,3,173,"Nonmatching","Friend","Friend","Close",572,0.572,1,"F"
"346",2001,3,173,"Nonmatching","Self","Self","Self",370,0.37,1,"M"
"347",2001,3,174,"Matching","Stranger","Stranger","Stranger",358,0.358,1,"F"
"348",2001,3,174,"Matching","Stranger","Stranger","Stranger",616,0.616,1,"M"
"349",2001,3,175,"Nonmatching","Self","Self","Self",592,0.592,1,"F"
"350",2001,3,175,"Nonmatching","Stranger","Stranger","Stranger",500,0.5,1,"M"
"351",2001,3,176,"Matching","Friend","Friend","Close",433,0.433,1,"F"
"352",2001,3,176,"Matching","Stranger","Stranger","Stranger",350,0.35,1,"M"
"353",2001,3,177,"Nonmatching","Friend","Friend","Close",409,0.409,1,"F"
"354",2001,3,177,"Nonmatching","Self","Self","Self",578,0.578,1,"M"
"355",2001,3,178,"Nonmatching","Self","Self","Self",428,0.428,1,"F"
"356",2001,3,178,"Nonmatching","Stranger","Stranger","Stranger",389,0.389,1,"M"
"357",2001,3,179,"Nonmatching","Self","Self","Self",378,0.378,1,"F"
"358",2001,3,179,"Matching","Friend","Friend","Close",320,0.32,1,"M"
"359",2001,3,180,"Matching","Stranger","Stranger","Stranger",605,0.605,1,"F"
"360",2001,3,180,"Matching","Stranger","Stranger","Stranger",433,0.433,1,"M"
"361",2001,3,181,"Matching","Stranger","Stranger","Stranger",318,0.318,1,"F"
"362",2001,3,181,"Matching","Friend","Friend","Close",351,0.351,1,"M"
"363",2001,3,182,"Matching","Friend","Friend","Close",678,0.678,1,"F"
"364",2001,3,182,"Matching","Friend","Friend","Close",409,0.409,1,"M"
"365",2001,3,183,"Nonmatching","Self","Self","Self",632,0.632,1,"F"
"366",2001,3,183,"Nonmatching","Stranger","Stranger","Stranger",432,0.432,1,"M"
"367",2001,3,184,"Matching","Stranger","Stranger","Stranger",497,0.497,1,"F"
"368",2001,3,184,"Matching","Stranger","Stranger","Stranger",430,0.43,1,"M"
"369",2001,3,185,"Nonmatching","Self","Self","Self",452,0.452,1,"F"
"370",2001,3,185,"Nonmatching","Self","Self","Self",394,0.394,0,"M"
"371",2001,3,186,"Nonmatching","Self","Self","Self",629,0.629,1,"F"
"372",2001,3,186,"Nonmatching","Self","Self","Self",431,0.431,1,"M"
"373",2001,3,187,"Nonmatching","Self","Self","Self",540,0.54,1,"F"
"374",2001,3,187,"Nonmatching","Stranger","Stranger","Stranger",615,0.615,1,"M"
"375",2001,3,188,"Matching","Friend","Friend","Close",406,0.406,1,"F"
"376",2001,3,188,"Nonmatching","Friend","Friend","Close",476,0.476,1,"M"
"377",2001,3,189,"Nonmatching","Self","Self","Self",540,0.54,1,"F"
"378",2001,3,189,"Nonmatching","Self","Self","Self",536,0.536,1,"M"
"379",2001,3,190,"Matching","Friend","Friend","Close",583,0.583,1,"F"
"380",2001,3,190,"Nonmatching","Self","Self","Self",463,0.463,1,"M"
"381",2001,3,191,"Nonmatching","Self","Self","Self",506,0.506,1,"F"
"382",2001,3,191,"Matching","Stranger","Stranger","Stranger",383,0.383,1,"M"
"383",2001,3,192,"Matching","Friend","Friend","Close",459,0.459,1,"F"
"384",2001,3,192,"Nonmatching","Friend","Friend","Close",1362,1.362,1,"M"
"385",2001,3,193,"Nonmatching","Friend","Friend","Close",429,0.429,1,"F"
"386",2001,3,193,"Nonmatching","Self","Self","Self",610,0.61,1,"M"
"387",2001,3,194,"Matching","Stranger","Stranger","Stranger",399,0.399,1,"F"
"388",2001,3,194,"Nonmatching","Self","Self","Self",469,0.469,1,"M"
"389",2001,3,195,"Matching","Stranger","Stranger","Stranger",367,0.367,1,"F"
"390",2001,3,195,"Matching","Stranger","Stranger","Stranger",510,0.51,1,"M"
"391",2001,3,196,"Matching","Stranger","Stranger","Stranger",348,0.348,1,"F"
"392",2001,3,196,"Nonmatching","Stranger","Stranger","Stranger",426,0.426,1,"M"
"393",2001,3,197,"Nonmatching","Friend","Friend","Close",440,0.44,1,"F"
"394",2001,3,197,"Matching","Friend","Friend","Close",465,0.465,1,"M"
"395",2001,3,198,"Nonmatching","Stranger","Stranger","Stranger",781,0.781,1,"F"
"396",2001,3,198,"Nonmatching","Friend","Friend","Close",410,0.41,1,"M"
"397",2001,3,199,"Nonmatching","Self","Self","Self",556,0.556,1,"F"
"398",2001,3,199,"Nonmatching","Friend","Friend","Close",454,0.454,1,"M"
"399",2001,3,200,"Nonmatching","Friend","Friend","Close",635,0.635,1,"F"
"400",2001,3,200,"Nonmatching","Self","Self","Self",632,0.632,1,"M"
"401",2001,3,201,"Nonmatching","Self","Self","Self",697,0.697,1,"F"
"402",2001,3,201,"Nonmatching","Self","Self","Self",616,0.616,1,"M"
"403",2001,3,202,"Nonmatching","Stranger","Stranger","Stranger",889,0.889,1,"F"
"404",2001,3,202,"Nonmatching","Friend","Friend","Close",516,0.516,1,"M"
"405",2001,3,203,"Matching","Friend","Friend","Close",584,0.584,1,"F"
"406",2001,3,203,"Nonmatching","Friend","Friend","Close",488,0.488,1,"M"
"407",2001,3,204,"Nonmatching","Self","Self","Self",455,0.455,1,"F"
"408",2001,3,204,"Matching","Stranger","Stranger","Stranger",406,0.406,1,"M"
"409",2001,3,205,"Nonmatching","Friend","Friend","Close",588,0.588,1,"F"
"410",2001,3,205,"Matching","Friend","Friend","Close",456,0.456,1,"M"
"411",2001,3,206,"Matching","Stranger","Stranger","Stranger",585,0.585,1,"F"
"412",2001,3,206,"Matching","Friend","Friend","Close",539,0.539,1,"M"
"413",2001,3,207,"Nonmatching","Self","Self","Self",476,0.476,1,"F"
"414",2001,3,207,"Nonmatching","Self","Self","Self",495,0.495,1,"M"
"415",2001,3,208,"Matching","Stranger","Stranger","Stranger",374,0.374,1,"F"
"416",2001,3,208,"Nonmatching","Stranger","Stranger","Stranger",607,0.607,1,"M"
"417",2001,3,209,"Nonmatching","Stranger","Stranger","Stranger",503,0.503,1,"F"
"418",2001,3,209,"Nonmatching","Friend","Friend","Close",511,0.511,1,"M"
"419",2001,3,210,"Nonmatching","Self","Self","Self",338,0.338,1,"F"
"420",2001,3,210,"Nonmatching","Self","Self","Self",485,0.485,1,"M"
"421",2001,3,211,"Nonmatching","Self","Self","Self",621,0.621,1,"F"
"422",2001,3,211,"Matching","Friend","Friend","Close",479,0.479,1,"M"
"423",2001,3,212,"Nonmatching","Stranger","Stranger","Stranger",1433,1.433,1,"F"
"424",2001,3,212,"Nonmatching","Self","Self","Self",447,0.447,1,"M"
"425",2001,3,213,"Matching","Friend","Friend","Close",518,0.518,1,"F"
"426",2001,3,213,"Nonmatching","Self","Self","Self",449,0.449,1,"M"
"427",2001,3,214,"Nonmatching","Self","Self","Self",618,0.618,1,"F"
"428",2001,3,214,"Matching","Friend","Friend","Close",394,0.394,1,"M"
"429",2001,3,215,"Matching","Friend","Friend","Close",403,0.403,1,"F"
"430",2001,3,215,"Nonmatching","Friend","Friend","Close",418,0.418,1,"M"
"431",2001,3,216,"Nonmatching","Friend","Friend","Close",513,0.513,1,"F"
"432",2001,3,216,"Matching","Stranger","Stranger","Stranger",625,0.625,1,"M"
"433",2001,3,217,"Nonmatching","Friend","Friend","Close",479,0.479,1,"F"
"434",2001,3,217,"Matching","Friend","Friend","Close",540,0.54,1,"M"
"435",2001,3,218,"Matching","Friend","Friend","Close",359,0.359,1,"F"
"436",2001,3,218,"Matching","Stranger","Stranger","Stranger",448,0.448,1,"M"
"437",2001,3,219,"Nonmatching","Self","Self","Self",619,0.619,1,"F"
"438",2001,3,219,"Nonmatching","Friend","Friend","Close",450,0.45,1,"M"
"439",2001,3,220,"Nonmatching","Stranger","Stranger","Stranger",543,0.543,1,"F"
"440",2001,3,220,"Matching","Stranger","Stranger","Stranger",676,0.676,1,"M"
"441",2001,3,221,"Matching","Stranger","Stranger","Stranger",482,0.482,1,"F"
"442",2001,3,221,"Nonmatching","Self","Self","Self",499,0.499,1,"M"
"443",2001,3,222,"Nonmatching","Friend","Friend","Close",855,0.855,1,"F"
"444",2001,3,222,"Matching","Friend","Friend","Close",410,0.41,1,"M"
"445",2001,3,223,"Nonmatching","Friend","Friend","Close",891,0.891,1,"F"
"446",2001,3,223,"Nonmatching","Self","Self","Self",468,0.468,1,"M"
"447",2001,3,224,"Matching","Stranger","Stranger","Stranger",481,0.481,1,"F"
"448",2001,3,224,"Nonmatching","Stranger","Stranger","Stranger",456,0.456,1,"M"
"449",2001,3,225,"Nonmatching","Self","Self","Self",499,0.499,1,"F"
"450",2001,3,225,"Nonmatching","Friend","Friend","Close",475,0.475,1,"M"
"451",2001,3,226,"Nonmatching","Self","Self","Self",595,0.595,1,"F"
"452",2001,3,226,"Matching","Friend","Friend","Close",370,0.37,1,"M"
"453",2001,3,227,"Nonmatching","Self","Self","Self",507,0.507,1,"F"
"454",2001,3,227,"Nonmatching","Self","Self","Self",464,0.464,1,"M"
"455",2001,3,228,"Nonmatching","Friend","Friend","Close",481,0.481,1,"F"
"456",2001,3,228,"Matching","Stranger","Stranger","Stranger",379,0.379,1,"M"
"457",2001,3,229,"Matching","Friend","Friend","Close",339,0.339,1,"F"
"458",2001,3,229,"Nonmatching","Self","Self","Self",392,0.392,1,"M"
"459",2001,3,230,"Nonmatching","Stranger","Stranger","Stranger",794,0.794,1,"F"
"460",2001,3,230,"Nonmatching","Stranger","Stranger","Stranger",549,0.549,1,"M"
"461",2001,3,231,"Nonmatching","Friend","Friend","Close",455,0.455,1,"F"
"462",2001,3,231,"Nonmatching","Self","Self","Self",381,0.381,1,"M"
"463",2001,3,232,"Nonmatching","Self","Self","Self",539,0.539,1,"F"
"464",2001,3,232,"Nonmatching","Stranger","Stranger","Stranger",448,0.448,1,"M"
"465",2001,3,233,"Nonmatching","Stranger","Stranger","Stranger",528,0.528,1,"F"
"466",2001,3,233,"Matching","Stranger","Stranger","Stranger",440,0.44,1,"M"
"467",2001,3,234,"Nonmatching","Self","Self","Self",459,0.459,1,"F"
"468",2001,3,234,"Nonmatching","Self","Self","Self",402,0.402,1,"M"
"469",2001,3,235,"Nonmatching","Self","Self","Self",483,0.483,1,"F"
"470",2001,3,235,"Matching","Friend","Friend","Close",343,0.343,1,"M"
"471",2001,3,236,"Nonmatching","Stranger","Stranger","Stranger",789,0.789,1,"F"
"472",2001,3,236,"Matching","Stranger","Stranger","Stranger",427,0.427,0,"M"
"473",2001,3,237,"Nonmatching","Stranger","Stranger","Stranger",695,0.695,1,"F"
"474",2001,3,237,"Matching","Friend","Friend","Close",527,0.527,1,"M"
"475",2001,3,238,"Nonmatching","Stranger","Stranger","Stranger",544,0.544,1,"F"
"476",2001,3,238,"Nonmatching","Stranger","Stranger","Stranger",1252,1.252,1,"M"
"477",2001,3,239,"Nonmatching","Stranger","Stranger","Stranger",576,0.576,1,"F"
"478",2001,3,239,"Nonmatching","Self","Self","Self",556,0.556,1,"M"
"479",2001,3,240,"Nonmatching","Stranger","Stranger","Stranger",855,0.855,1,"F"
"480",2001,3,240,"Nonmatching","Stranger","Stranger","Stranger",816,0.816,1,"M"
"481",2001,3,241,"Nonmatching","Friend","Friend","Close",499,0.499,1,"F"
"482",2001,3,241,"Nonmatching","Self","Self","Self",532,0.532,1,"M"
"483",2001,3,242,"Matching","Stranger","Stranger","Stranger",474,0.474,1,"F"
"484",2001,3,242,"Nonmatching","Self","Self","Self",384,0.384,1,"M"
"485",2001,3,243,"Nonmatching","Stranger","Stranger","Stranger",508,0.508,1,"F"
"486",2001,3,243,"Nonmatching","Friend","Friend","Close",950,0.95,1,"M"
"487",2001,3,244,"Matching","Friend","Friend","Close",406,0.406,1,"F"
"488",2001,3,244,"Nonmatching","Stranger","Stranger","Stranger",429,0.429,1,"M"
"489",2001,3,245,"Matching","Stranger","Stranger","Stranger",452,0.452,1,"F"
"490",2001,3,245,"Nonmatching","Self","Self","Self",381,0.381,1,"M"
"491",2001,3,246,"Nonmatching","Self","Self","Self",372,0.372,1,"F"
"492",2001,3,246,"Nonmatching","Self","Self","Self",350,0.35,1,"M"
"493",2001,3,247,"Nonmatching","Self","Self","Self",399,0.399,1,"F"
"494",2001,3,247,"Nonmatching","Self","Self","Self",529,0.529,1,"M"
"495",2001,3,248,"Nonmatching","Friend","Friend","Close",752,0.752,1,"F"
"496",2001,3,248,"Matching","Friend","Friend","Close",484,0.484,1,"M"
"497",2001,3,249,"Matching","Friend","Friend","Close",945,0.945,1,"F"
"498",2001,3,249,"Nonmatching","Stranger","Stranger","Stranger",502,0.502,1,"M"
"499",2001,3,250,"Matching","Friend","Friend","Close",620,0.62,1,"F"
"500",2001,3,250,"Nonmatching","Friend","Friend","Close",481,0.481,1,"M"
"501",2001,3,251,"Nonmatching","Stranger","Stranger","Stranger",509,0.509,1,"F"
"502",2001,3,251,"Matching","Stranger","Stranger","Stranger",332,0.332,1,"M"
"503",2001,3,252,"Matching","Friend","Friend","Close",394,0.394,1,"F"
"504",2001,3,252,"Nonmatching","Self","Self","Self",600,0.6,1,"M"
"505",2001,4,253,"Nonmatching","Self","Self","Self",590,0.59,1,"F"
"506",2001,4,253,"Matching","Stranger","Stranger","Stranger",751,0.751,1,"M"
"507",2001,4,254,"Matching","Friend","Friend","Close",585,0.585,1,"F"
"508",2001,4,254,"Nonmatching","Stranger","Stranger","Stranger",463,0.463,1,"M"
"509",2001,4,255,"Nonmatching","Friend","Friend","Close",812,0.812,1,"F"
"510",2001,4,255,"Matching","Stranger","Stranger","Stranger",396,0.396,1,"M"
"511",2001,4,256,"Nonmatching","Stranger","Stranger","Stranger",645,0.645,1,"F"
"512",2001,4,256,"Matching","Stranger","Stranger","Stranger",362,0.362,1,"M"
"513",2001,4,257,"Matching","Stranger","Stranger","Stranger",852,0.852,1,"F"
"514",2001,4,257,"Nonmatching","Self","Self","Self",760,0.76,1,"M"
"515",2001,4,258,"Nonmatching","Self","Self","Self",514,0.514,1,"F"
"516",2001,4,258,"Nonmatching","Stranger","Stranger","Stranger",426,0.426,1,"M"
"517",2001,4,259,"Nonmatching","Friend","Friend","Close",509,0.509,1,"F"
"518",2001,4,259,"Matching","Stranger","Stranger","Stranger",368,0.368,1,"M"
"519",2001,4,260,"Nonmatching","Self","Self","Self",435,0.435,1,"F"
"520",2001,4,260,"Nonmatching","Self","Self","Self",425,0.425,1,"M"
"521",2001,4,261,"Nonmatching","Self","Self","Self",431,0.431,1,"F"
"522",2001,4,261,"Nonmatching","Self","Self","Self",403,0.403,1,"M"
"523",2001,4,262,"Nonmatching","Self","Self","Self",634,0.634,1,"F"
"524",2001,4,262,"Matching","Friend","Friend","Close",582,0.582,1,"M"
"525",2001,4,263,"Matching","Stranger","Stranger","Stranger",635,0.635,1,"F"
"526",2001,4,263,"Nonmatching","Stranger","Stranger","Stranger",437,0.437,1,"M"
"527",2001,4,264,"Nonmatching","Stranger","Stranger","Stranger",482,0.482,1,"F"
"528",2001,4,264,"Matching","Friend","Friend","Close",352,0.352,1,"M"
"529",2001,4,265,"Matching","Friend","Friend","Close",403,0.403,1,"F"
"530",2001,4,265,"Nonmatching","Stranger","Stranger","Stranger",428,0.428,1,"M"
"531",2001,4,266,"Matching","Stranger","Stranger","Stranger",497,0.497,1,"F"
"532",2001,4,266,"Nonmatching","Friend","Friend","Close",559,0.559,1,"M"
"533",2001,4,267,"Nonmatching","Self","Self","Self",479,0.479,1,"F"
"534",2001,4,267,"Nonmatching","Friend","Friend","Close",510,0.51,1,"M"
"535",2001,4,268,"Nonmatching","Self","Self","Self",572,0.572,1,"F"
"536",2001,4,268,"Nonmatching","Self","Self","Self",318,0.318,1,"M"
"537",2001,4,269,"Nonmatching","Friend","Friend","Close",392,0.392,1,"F"
"538",2001,4,269,"Nonmatching","Self","Self","Self",394,0.394,1,"M"
"539",2001,4,270,"Matching","Stranger","Stranger","Stranger",331,0.331,1,"F"
"540",2001,4,270,"Nonmatching","Self","Self","Self",604,0.604,1,"M"
"541",2001,4,271,"Nonmatching","Self","Self","Self",1142,1.142,1,"F"
"542",2001,4,271,"Matching","Friend","Friend","Close",468,0.468,1,"M"
"543",2001,4,272,"Matching","Friend","Friend","Close",695,0.695,1,"F"
"544",2001,4,272,"Matching","Stranger","Stranger","Stranger",419,0.419,1,"M"
"545",2001,4,273,"Matching","Friend","Friend","Close",365,0.365,1,"F"
"546",2001,4,273,"Nonmatching","Stranger","Stranger","Stranger",464,0.464,1,"M"
"547",2001,4,274,"Nonmatching","Self","Self","Self",431,0.431,1,"F"
"548",2001,4,274,"Nonmatching","Stranger","Stranger","Stranger",430,0.43,1,"M"
"549",2001,4,275,"Nonmatching","Friend","Friend","Close",437,0.437,1,"F"
"550",2001,4,275,"Matching","Friend","Friend","Close",536,0.536,1,"M"
"551",2001,4,276,"Matching","Stranger","Stranger","Stranger",643,0.643,1,"F"
"552",2001,4,276,"Matching","Friend","Friend","Close",422,0.422,1,"M"
"553",2001,4,277,"Nonmatching","Stranger","Stranger","Stranger",624,0.624,1,"F"
"554",2001,4,277,"Nonmatching","Friend","Friend","Close",424,0.424,1,"M"
"555",2001,4,278,"Nonmatching","Self","Self","Self",621,0.621,1,"F"
"556",2001,4,278,"Nonmatching","Stranger","Stranger","Stranger",466,0.466,1,"M"
"557",2001,4,279,"Nonmatching","Friend","Friend","Close",412,0.412,1,"F"
"558",2001,4,279,"Matching","Friend","Friend","Close",372,0.372,1,"M"
"559",2001,4,280,"Nonmatching","Stranger","Stranger","Stranger",790,0.79,1,"F"
"560",2001,4,280,"Matching","Stranger","Stranger","Stranger",927,0.927,1,"M"
"561",2001,4,281,"Nonmatching","Stranger","Stranger","Stranger",468,0.468,1,"F"
"562",2001,4,281,"Nonmatching","Friend","Friend","Close",455,0.455,1,"M"
"563",2001,4,282,"Matching","Friend","Friend","Close",412,0.412,1,"F"
"564",2001,4,282,"Matching","Friend","Friend","Close",676,0.676,1,"M"
"565",2001,4,283,"Nonmatching","Stranger","Stranger","Stranger",513,0.513,1,"F"
"566",2001,4,283,"Matching","Stranger","Stranger","Stranger",511,0.511,1,"M"
"567",2001,4,284,"Nonmatching","Self","Self","Self",393,0.393,1,"F"
"568",2001,4,284,"Nonmatching","Self","Self","Self",450,0.45,1,"M"
"569",2001,4,285,"Nonmatching","Self","Self","Self",409,0.409,1,"F"
"570",2001,4,285,"Nonmatching","Self","Self","Self",403,0.403,1,"M"
"571",2001,4,286,"Matching","Friend","Friend","Close",434,0.434,1,"F"
"572",2001,4,286,"Nonmatching","Self","Self","Self",510,0.51,1,"M"
"573",2001,4,287,"Matching","Stranger","Stranger","Stranger",997,0.997,1,"F"
"574",2001,4,287,"Nonmatching","Self","Self","Self",469,0.469,1,"M"
"575",2001,4,288,"Nonmatching","Friend","Friend","Close",632,0.632,1,"F"
"576",2001,4,288,"Nonmatching","Friend","Friend","Close",442,0.442,1,"M"
"577",2001,4,289,"Nonmatching","Self","Self","Self",667,0.667,1,"F"
"578",2001,4,289,"Nonmatching","Self","Self","Self",556,0.556,1,"M"
"579",2001,4,290,"Matching","Stranger","Stranger","Stranger",435,0.435,1,"F"
"580",2001,4,290,"Matching","Stranger","Stranger","Stranger",626,0.626,1,"M"
"581",2001,4,291,"Matching","Stranger","Stranger","Stranger",366,0.366,1,"F"
"582",2001,4,291,"Nonmatching","Friend","Friend","Close",558,0.558,1,"M"
"583",2001,4,292,"Nonmatching","Friend","Friend","Close",455,0.455,1,"F"
"584",2001,4,292,"Nonmatching","Friend","Friend","Close",392,0.392,1,"M"
"585",2001,4,293,"Nonmatching","Self","Self","Self",377,0.377,1,"F"
"586",2001,4,293,"Nonmatching","Friend","Friend","Close",398,0.398,1,"M"
"587",2001,4,294,"Nonmatching","Self","Self","Self",363,0.363,1,"F"
"588",2001,4,294,"Nonmatching","Self","Self","Self",417,0.417,1,"M"
"589",2001,4,295,"Nonmatching","Stranger","Stranger","Stranger",638,0.638,1,"F"
"590",2001,4,295,"Nonmatching","Stranger","Stranger","Stranger",435,0.435,1,"M"
"591",2001,4,296,"Nonmatching","Friend","Friend","Close",593,0.593,1,"F"
"592",2001,4,296,"Matching","Stranger","Stranger","Stranger",431,0.431,1,"M"
"593",2001,4,297,"Nonmatching","Friend","Friend","Close",509,0.509,1,"F"
"594",2001,4,297,"Nonmatching","Self","Self","Self",611,0.611,1,"M"
"595",2001,4,298,"Nonmatching","Stranger","Stranger","Stranger",489,0.489,1,"F"
"596",2001,4,298,"Matching","Stranger","Stranger","Stranger",469,0.469,1,"M"
"597",2001,4,299,"Matching","Friend","Friend","Close",475,0.475,1,"F"
"598",2001,4,299,"Matching","Friend","Friend","Close",431,0.431,1,"M"
"599",2001,4,300,"Matching","Friend","Friend","Close",408,0.408,1,"F"
"600",2001,4,300,"Nonmatching","Self","Self","Self",439,0.439,1,"M"
"601",2001,4,301,"Matching","Stranger","Stranger","Stranger",424,0.424,1,"F"
"602",2001,4,301,"Nonmatching","Friend","Friend","Close",548,0.548,1,"M"
"603",2001,4,302,"Nonmatching","Self","Self","Self",528,0.528,1,"F"
"604",2001,4,302,"Nonmatching","Self","Self","Self",368,0.368,1,"M"
"605",2001,4,303,"Nonmatching","Friend","Friend","Close",1513,1.513,1,"F"
"606",2001,4,303,"Nonmatching","Stranger","Stranger","Stranger",459,0.459,1,"M"
"607",2001,4,304,"Matching","Stranger","Stranger","Stranger",367,0.367,1,"F"
"608",2001,4,304,"Nonmatching","Self","Self","Self",330,0.33,1,"M"
"609",2001,4,305,"Nonmatching","Self","Self","Self",396,0.396,1,"F"
"610",2001,4,305,"Nonmatching","Self","Self","Self",469,0.469,1,"M"
"611",2001,4,306,"Nonmatching","Self","Self","Self",413,0.413,1,"F"
"612",2001,4,306,"Nonmatching","Self","Self","Self",536,0.536,1,"M"
"613",2001,4,307,"Matching","Stranger","Stranger","Stranger",370,0.37,1,"F"
"614",2001,4,307,"Nonmatching","Stranger","Stranger","Stranger",713,0.713,1,"M"
"615",2001,4,308,"Nonmatching","Self","Self","Self",517,0.517,1,"F"
"616",2001,4,308,"Nonmatching","Stranger","Stranger","Stranger",433,0.433,1,"M"
"617",2001,4,309,"Nonmatching","Self","Self","Self",554,0.554,1,"F"
"618",2001,4,309,"Nonmatching","Friend","Friend","Close",500,0.5,1,"M"
"619",2001,4,310,"Matching","Friend","Friend","Close",347,0.347,1,"F"
"620",2001,4,310,"Nonmatching","Self","Self","Self",322,0.322,1,"M"
"621",2001,4,311,"Nonmatching","Stranger","Stranger","Stranger",629,0.629,1,"F"
"622",2001,4,311,"Matching","Stranger","Stranger","Stranger",361,0.361,1,"M"
"623",2001,4,312,"Nonmatching","Friend","Friend","Close",801,0.801,1,"F"
"624",2001,4,312,"Nonmatching","Self","Self","Self",426,0.426,1,"M"
"625",2001,4,313,"Nonmatching","Stranger","Stranger","Stranger",638,0.638,1,"F"
"626",2001,4,313,"Nonmatching","Self","Self","Self",407,0.407,1,"M"
"627",2001,4,314,"Nonmatching","Friend","Friend","Close",439,0.439,1,"F"
"628",2001,4,314,"Matching","Friend","Friend","Close",387,0.387,1,"M"
"629",2001,4,315,"Nonmatching","Self","Self","Self",420,0.42,1,"F"
"630",2001,4,315,"Nonmatching","Self","Self","Self",470,0.47,1,"M"
"631",2001,4,316,"Matching","Stranger","Stranger","Stranger",626,0.626,1,"F"
"632",2001,4,316,"Nonmatching","Stranger","Stranger","Stranger",401,0.401,1,"M"
"633",2001,4,317,"Nonmatching","Self","Self","Self",485,0.485,1,"F"
"634",2001,4,317,"Matching","Friend","Friend","Close",367,0.367,1,"M"
"635",2001,4,318,"Matching","Friend","Friend","Close",314,0.314,1,"F"
"636",2001,4,318,"Nonmatching","Stranger","Stranger","Stranger",444,0.444,1,"M"
"637",2001,4,319,"Nonmatching","Self","Self","Self",799,0.799,1,"F"
"638",2001,4,319,"Nonmatching","Self","Self","Self",439,0.439,1,"M"
"639",2001,4,320,"Matching","Friend","Friend","Close",483,0.483,1,"F"
"640",2001,4,320,"Matching","Stranger","Stranger","Stranger",434,0.434,1,"M"
"641",2001,4,321,"Nonmatching","Stranger","Stranger","Stranger",1113,1.113,1,"F"
"642",2001,4,321,"Nonmatching","Stranger","Stranger","Stranger",501,0.501,1,"M"
"643",2001,4,322,"Nonmatching","Stranger","Stranger","Stranger",536,0.536,1,"F"
"644",2001,4,322,"Matching","Friend","Friend","Close",323,0.323,1,"M"
"645",2001,4,323,"Nonmatching","Self","Self","Self",511,0.511,1,"F"
"646",2001,4,323,"Matching","Friend","Friend","Close",341,0.341,1,"M"
"647",2001,4,324,"Nonmatching","Self","Self","Self",349,0.349,1,"F"
"648",2001,4,324,"Nonmatching","Self","Self","Self",353,0.353,1,"M"
"649",2001,4,325,"Nonmatching","Friend","Friend","Close",418,0.418,1,"F"
"650",2001,4,325,"Nonmatching","Friend","Friend","Close",402,0.402,1,"M"
"651",2001,4,326,"Matching","Stranger","Stranger","Stranger",604,0.604,1,"F"
"652",2001,4,326,"Nonmatching","Friend","Friend","Close",357,0.357,1,"M"
"653",2001,4,327,"Nonmatching","Self","Self","Self",559,0.559,1,"F"
"654",2001,4,327,"Nonmatching","Self","Self","Self",599,0.599,1,"M"
"655",2001,4,328,"Nonmatching","Self","Self","Self",419,0.419,1,"F"
"656",2001,4,328,"Nonmatching","Self","Self","Self",411,0.411,1,"M"
"657",2001,4,329,"Nonmatching","Stranger","Stranger","Stranger",585,0.585,1,"F"
"658",2001,4,329,"Nonmatching","Friend","Friend","Close",551,0.551,1,"M"
"659",2001,4,330,"Nonmatching","Friend","Friend","Close",488,0.488,1,"F"
"660",2001,4,330,"Nonmatching","Self","Self","Self",385,0.385,1,"M"
"661",2001,4,331,"Matching","Friend","Friend","Close",587,0.587,1,"F"
"662",2001,4,331,"Matching","Stranger","Stranger","Stranger",360,0.36,1,"M"
"663",2001,4,332,"Matching","Friend","Friend","Close",362,0.362,1,"F"
"664",2001,4,332,"Nonmatching","Self","Self","Self",495,0.495,1,"M"
"665",2001,4,333,"Nonmatching","Self","Self","Self",421,0.421,1,"F"
"666",2001,4,333,"Matching","Friend","Friend","Close",382,0.382,1,"M"
"667",2001,4,334,"Nonmatching","Stranger","Stranger","Stranger",562,0.562,1,"F"
"668",2001,4,334,"Nonmatching","Friend","Friend","Close",518,0.518,1,"M"
"669",2001,4,335,"Matching","Friend","Friend","Close",443,0.443,1,"F"
"670",2001,4,335,"Matching","Stranger","Stranger","Stranger",460,0.46,1,"M"
"671",2001,4,336,"Matching","Stranger","Stranger","Stranger",423,0.423,1,"F"
"672",2001,4,336,"Matching","Friend","Friend","Close",485,0.485,1,"M"
"673",2002,1,1,"Nonmatching","Self","Self","Self",848,0.848,1,"F"
"674",2002,1,1,"Nonmatching","Stranger","Stranger","Stranger",777,0.777,1,"M"
"675",2002,1,2,"Nonmatching","Friend","Friend","Close",1004,1.004,1,"F"
"676",2002,1,2,"Nonmatching","Friend","Friend","Close",1029,1.029,1,"M"
"677",2002,1,3,"Nonmatching","Friend","Friend","Close",855,0.855,0,"F"
"678",2002,1,3,"Nonmatching","Self","Self","Self",637,0.637,1,"M"
"679",2002,1,4,"Nonmatching","Stranger","Stranger","Stranger",1225,1.225,1,"F"
"680",2002,1,4,"Matching","Friend","Friend","Close",822,0.822,0,"M"
"681",2002,1,5,"Matching","Stranger","Stranger","Stranger",641,0.641,1,"F"
"682",2002,1,5,"Nonmatching","Self","Self","Self",1146,1.146,1,"M"
"683",2002,1,6,"Nonmatching","Self","Self","Self",851,0.851,1,"F"
"684",2002,1,6,"Nonmatching","Self","Self","Self",655,0.655,1,"M"
"685",2002,1,7,"Nonmatching","Self","Self","Self",1113,1.113,1,"F"
"686",2002,1,7,"Nonmatching","Stranger","Stranger","Stranger",769,0.769,1,"M"
"687",2002,1,8,"Nonmatching","Friend","Friend","Close",835,0.835,1,"F"
"688",2002,1,8,"Nonmatching","Self","Self","Self",762,0.762,1,"M"
"689",2002,1,9,"Matching","Friend","Friend","Close",868,0.868,1,"F"
"690",2002,1,9,"Nonmatching","Friend","Friend","Close",737,0.737,1,"M"
"691",2002,1,10,"Nonmatching","Self","Self","Self",858,0.858,1,"F"
"692",2002,1,10,"Nonmatching","Stranger","Stranger","Stranger",1775,1.775,1,"M"
"693",2002,1,11,"Matching","Stranger","Stranger","Stranger",518,0.518,1,"F"
"694",2002,1,11,"Nonmatching","Stranger","Stranger","Stranger",990,0.99,1,"M"
"695",2002,1,12,"Nonmatching","Self","Self","Self",563,0.563,1,"F"
"696",2002,1,12,"Nonmatching","Stranger","Stranger","Stranger",879,0.879,1,"M"
"697",2002,1,13,"Nonmatching","Friend","Friend","Close",921,0.921,1,"F"
"698",2002,1,13,"Matching","Friend","Friend","Close",585,0.585,1,"M"
"699",2002,1,14,"Nonmatching","Self","Self","Self",730,0.73,1,"F"
"700",2002,1,14,"Matching","Friend","Friend","Close",852,0.852,1,"M"
"701",2002,1,15,"Nonmatching","Self","Self","Self",602,0.602,1,"F"
"702",2002,1,15,"Matching","Stranger","Stranger","Stranger",645,0.645,1,"M"
"703",2002,1,16,"Matching","Stranger","Stranger","Stranger",769,0.769,1,"F"
"704",2002,1,16,"Matching","Stranger","Stranger","Stranger",715,0.715,1,"M"
"705",2002,1,17,"Matching","Stranger","Stranger","Stranger",591,0.591,1,"F"
"706",2002,1,17,"Matching","Stranger","Stranger","Stranger",565,0.565,1,"M"
"707",2002,1,18,"Matching","Friend","Friend","Close",936,0.936,1,"F"
"708",2002,1,18,"Nonmatching","Friend","Friend","Close",1039,1.039,1,"M"
"709",2002,1,19,"Nonmatching","Stranger","Stranger","Stranger",739,0.739,1,"F"
"710",2002,1,19,"Nonmatching","Self","Self","Self",972,0.972,1,"M"
"711",2002,1,20,"Nonmatching","Self","Self","Self",598,0.598,1,"F"
"712",2002,1,20,"Nonmatching","Friend","Friend","Close",782,0.782,1,"M"
"713",2002,1,21,"Matching","Friend","Friend","Close",1472,1.472,1,"F"
"714",2002,1,21,"Nonmatching","Self","Self","Self",657,0.657,1,"M"
"715",2002,1,22,"Matching","Stranger","Stranger","Stranger",502,0.502,1,"F"
"716",2002,1,22,"Nonmatching","Self","Self","Self",517,0.517,1,"M"
"717",2002,1,23,"Matching","Friend","Friend","Close",784,0.784,1,"F"
"718",2002,1,23,"Matching","Friend","Friend","Close",819,0.819,1,"M"
"719",2002,1,24,"Nonmatching","Self","Self","Self",794,0.794,1,"F"
"720",2002,1,24,"Nonmatching","Stranger","Stranger","Stranger",715,0.715,1,"M"
"721",2002,1,25,"Nonmatching","Self","Self","Self",718,0.718,1,"F"
"722",2002,1,25,"Matching","Stranger","Stranger","Stranger",814,0.814,1,"M"
"723",2002,1,26,"Nonmatching","Friend","Friend","Close",941,0.941,1,"F"
"724",2002,1,26,"Nonmatching","Self","Self","Self",1013,1.013,1,"M"
"725",2002,1,27,"Nonmatching","Self","Self","Self",650,0.65,1,"F"
"726",2002,1,27,"Nonmatching","Stranger","Stranger","Stranger",883,0.883,1,"M"
"727",2002,1,28,"Nonmatching","Self","Self","Self",848,0.848,1,"F"
"728",2002,1,28,"Matching","Stranger","Stranger","Stranger",912,0.912,1,"M"
"729",2002,1,29,"Nonmatching","Stranger","Stranger","Stranger",1123,1.123,1,"F"
"730",2002,1,29,"Nonmatching","Friend","Friend","Close",1003,1.003,1,"M"
"731",2002,1,30,"Matching","Friend","Friend","Close",1181,1.181,1,"F"
"732",2002,1,30,"Nonmatching","Friend","Friend","Close",606,0.606,1,"M"
"733",2002,1,31,"Matching","Stranger","Stranger","Stranger",478,0.478,1,"F"
"734",2002,1,31,"Matching","Stranger","Stranger","Stranger",565,0.565,1,"M"
"735",2002,1,32,"Nonmatching","Friend","Friend","Close",764,0.764,1,"F"
"736",2002,1,32,"Nonmatching","Self","Self","Self",623,0.623,1,"M"
"737",2002,1,33,"Nonmatching","Self","Self","Self",622,0.622,1,"F"
"738",2002,1,33,"Nonmatching","Self","Self","Self",763,0.763,1,"M"
"739",2002,1,34,"Matching","Stranger","Stranger","Stranger",794,0.794,1,"F"
"740",2002,1,34,"Matching","Friend","Friend","Close",666,0.666,1,"M"
"741",2002,1,35,"Nonmatching","Stranger","Stranger","Stranger",675,0.675,1,"F"
"742",2002,1,35,"Matching","Friend","Friend","Close",467,0.467,1,"M"
"743",2002,1,36,"Matching","Friend","Friend","Close",1086,1.086,1,"F"
"744",2002,1,36,"Nonmatching","Friend","Friend","Close",543,0.543,1,"M"
"745",2002,1,37,"Nonmatching","Self","Self","Self",606,0.606,1,"F"
"746",2002,1,37,"Matching","Stranger","Stranger","Stranger",1033,1.033,1,"M"
"747",2002,1,38,"Nonmatching","Stranger","Stranger","Stranger",714,0.714,1,"F"
"748",2002,1,38,"Matching","Stranger","Stranger","Stranger",500,0.5,1,"M"
"749",2002,1,39,"Matching","Friend","Friend","Close",813,0.813,1,"F"
"750",2002,1,39,"Matching","Friend","Friend","Close",609,0.609,1,"M"
"751",2002,1,40,"Nonmatching","Self","Self","Self",834,0.834,1,"F"
"752",2002,1,40,"Matching","Stranger","Stranger","Stranger",574,0.574,1,"M"
"753",2002,1,41,"Nonmatching","Self","Self","Self",915,0.915,1,"F"
"754",2002,1,41,"Nonmatching","Self","Self","Self",987,0.987,1,"M"
"755",2002,1,42,"Matching","Friend","Friend","Close",873,0.873,1,"F"
"756",2002,1,42,"Nonmatching","Self","Self","Self",482,0.482,1,"M"
"757",2002,1,43,"Nonmatching","Self","Self","Self",1470,1.47,1,"F"
"758",2002,1,43,"Nonmatching","Self","Self","Self",950,0.95,1,"M"
"759",2002,1,44,"Nonmatching","Self","Self","Self",734,0.734,1,"F"
"760",2002,1,44,"Nonmatching","Self","Self","Self",634,0.634,1,"M"
"761",2002,1,45,"Nonmatching","Friend","Friend","Close",722,0.722,1,"F"
"762",2002,1,45,"Nonmatching","Self","Self","Self",789,0.789,1,"M"
"763",2002,1,46,"Nonmatching","Stranger","Stranger","Stranger",915,0.915,1,"F"
"764",2002,1,46,"Matching","Stranger","Stranger","Stranger",1178,1.178,1,"M"
"765",2002,1,47,"Nonmatching","Self","Self","Self",770,0.77,1,"F"
"766",2002,1,47,"Nonmatching","Stranger","Stranger","Stranger",1677,1.677,1,"M"
"767",2002,1,48,"Matching","Friend","Friend","Close",782,0.782,1,"F"
"768",2002,1,48,"Nonmatching","Self","Self","Self",588,0.588,1,"M"
"769",2002,1,49,"Matching","Stranger","Stranger","Stranger",566,0.566,1,"F"
"770",2002,1,49,"Matching","Friend","Friend","Close",754,0.754,1,"M"
"771",2002,1,50,"Nonmatching","Stranger","Stranger","Stranger",484,0.484,1,"F"
"772",2002,1,50,"Nonmatching","Self","Self","Self",701,0.701,1,"M"
"773",2002,1,51,"Nonmatching","Stranger","Stranger","Stranger",701,0.701,1,"F"
"774",2002,1,51,"Nonmatching","Friend","Friend","Close",897,0.897,1,"M"
"775",2002,1,52,"Nonmatching","Self","Self","Self",753,0.753,1,"F"
"776",2002,1,52,"Matching","Stranger","Stranger","Stranger",588,0.588,1,"M"
"777",2002,1,53,"Matching","Stranger","Stranger","Stranger",491,0.491,1,"F"
"778",2002,1,53,"Nonmatching","Friend","Friend","Close",663,0.663,1,"M"
"779",2002,1,54,"Matching","Stranger","Stranger","Stranger",545,0.545,1,"F"
"780",2002,1,54,"Nonmatching","Stranger","Stranger","Stranger",428,0.428,0,"M"
"781",2002,1,55,"Nonmatching","Friend","Friend","Close",584,0.584,1,"F"
"782",2002,1,55,"Nonmatching","Stranger","Stranger","Stranger",855,0.855,1,"M"
"783",2002,1,56,"Nonmatching","Self","Self","Self",773,0.773,1,"F"
"784",2002,1,56,"Matching","Friend","Friend","Close",709,0.709,1,"M"
"785",2002,1,57,"Matching","Friend","Friend","Close",783,0.783,1,"F"
"786",2002,1,57,"Nonmatching","Friend","Friend","Close",979,0.979,1,"M"
"787",2002,1,58,"Nonmatching","Self","Self","Self",712,0.712,1,"F"
"788",2002,1,58,"Matching","Stranger","Stranger","Stranger",1048,1.048,1,"M"
"789",2002,1,59,"Nonmatching","Stranger","Stranger","Stranger",1090,1.09,1,"F"
"790",2002,1,59,"Nonmatching","Self","Self","Self",731,0.731,1,"M"
"791",2002,1,60,"Nonmatching","Stranger","Stranger","Stranger",884,0.884,1,"F"
"792",2002,1,60,"Nonmatching","Self","Self","Self",798,0.798,1,"M"
"793",2002,1,61,"Matching","Friend","Friend","Close",551,0.551,1,"F"
"794",2002,1,61,"Nonmatching","Self","Self","Self",862,0.862,1,"M"
"795",2002,1,62,"Nonmatching","Friend","Friend","Close",645,0.645,1,"F"
"796",2002,1,62,"Nonmatching","Friend","Friend","Close",763,0.763,1,"M"
"797",2002,1,63,"Nonmatching","Stranger","Stranger","Stranger",836,0.836,1,"F"
"798",2002,1,63,"Nonmatching","Self","Self","Self",721,0.721,1,"M"
"799",2002,1,64,"Matching","Friend","Friend","Close",970,0.97,1,"F"
"800",2002,1,64,"Nonmatching","Self","Self","Self",790,0.79,1,"M"
"801",2002,1,65,"Matching","Friend","Friend","Close",563,0.563,1,"F"
"802",2002,1,65,"Nonmatching","Self","Self","Self",726,0.726,1,"M"
"803",2002,1,66,"Nonmatching","Self","Self","Self",537,0.537,1,"F"
"804",2002,1,66,"Nonmatching","Stranger","Stranger","Stranger",678,0.678,1,"M"
"805",2002,1,67,"Nonmatching","Self","Self","Self",557,0.557,1,"F"
"806",2002,1,67,"Nonmatching","Self","Self","Self",503,0.503,1,"M"
"807",2002,1,68,"Nonmatching","Friend","Friend","Close",811,0.811,1,"F"
"808",2002,1,68,"Matching","Friend","Friend","Close",1235,1.235,1,"M"
"809",2002,1,69,"Nonmatching","Stranger","Stranger","Stranger",1184,1.184,1,"F"
"810",2002,1,69,"Matching","Stranger","Stranger","Stranger",616,0.616,1,"M"
"811",2002,1,70,"Nonmatching","Stranger","Stranger","Stranger",736,0.736,1,"F"
"812",2002,1,70,"Nonmatching","Self","Self","Self",874,0.874,1,"M"
"813",2002,1,71,"Nonmatching","Friend","Friend","Close",832,0.832,1,"F"
"814",2002,1,71,"Matching","Friend","Friend","Close",680,0.68,1,"M"
"815",2002,1,72,"Matching","Stranger","Stranger","Stranger",841,0.841,1,"F"
"816",2002,1,72,"Nonmatching","Self","Self","Self",1110,1.11,1,"M"
"817",2002,1,73,"Nonmatching","Friend","Friend","Close",740,0.74,1,"F"
"818",2002,1,73,"Nonmatching","Friend","Friend","Close",823,0.823,1,"M"
"819",2002,1,74,"Matching","Stranger","Stranger","Stranger",781,0.781,1,"F"
"820",2002,1,74,"Nonmatching","Self","Self","Self",631,0.631,1,"M"
"821",2002,1,75,"Nonmatching","Self","Self","Self",897,0.897,1,"F"
"822",2002,1,75,"Nonmatching","Stranger","Stranger","Stranger",493,0.493,1,"M"
"823",2002,1,76,"Nonmatching","Self","Self","Self",475,0.475,1,"F"
"824",2002,1,76,"Matching","Friend","Friend","Close",716,0.716,1,"M"
"825",2002,1,77,"Nonmatching","Friend","Friend","Close",857,0.857,1,"F"
"826",2002,1,77,"Nonmatching","Friend","Friend","Close",700,0.7,1,"M"
"827",2002,1,78,"Matching","Stranger","Stranger","Stranger",749,0.749,1,"F"
"828",2002,1,78,"Nonmatching","Stranger","Stranger","Stranger",589,0.589,1,"M"
"829",2002,1,79,"Nonmatching","Stranger","Stranger","Stranger",1124,1.124,1,"F"
"830",2002,1,79,"Matching","Friend","Friend","Close",1355,1.355,1,"M"
"831",2002,1,80,"Matching","Stranger","Stranger","Stranger",512,0.512,1,"F"
"832",2002,1,80,"Nonmatching","Stranger","Stranger","Stranger",874,0.874,1,"M"
"833",2002,1,81,"Matching","Friend","Friend","Close",822,0.822,1,"F"
"834",2002,1,81,"Nonmatching","Friend","Friend","Close",776,0.776,1,"M"
"835",2002,1,82,"Nonmatching","Friend","Friend","Close",837,0.837,1,"F"
"836",2002,1,82,"Matching","Friend","Friend","Close",713,0.713,1,"M"
"837",2002,1,83,"Nonmatching","Self","Self","Self",678,0.678,1,"F"
"838",2002,1,83,"Matching","Stranger","Stranger","Stranger",927,0.927,1,"M"
"839",2002,1,84,"Nonmatching","Self","Self","Self",656,0.656,1,"F"
"840",2002,1,84,"Nonmatching","Self","Self","Self",456,0.456,1,"M"
"841",2002,2,85,"Nonmatching","Self","Self","Self",649,0.649,1,"F"
"842",2002,2,85,"Nonmatching","Self","Self","Self",661,0.661,1,"M"
"843",2002,2,86,"Nonmatching","Self","Self","Self",508,0.508,1,"F"
"844",2002,2,86,"Nonmatching","Friend","Friend","Close",685,0.685,1,"M"
"845",2002,2,87,"Nonmatching","Friend","Friend","Close",782,0.782,1,"F"
"846",2002,2,87,"Matching","Friend","Friend","Close",533,0.533,1,"M"
"847",2002,2,88,"Nonmatching","Self","Self","Self",571,0.571,1,"F"
"848",2002,2,88,"Matching","Stranger","Stranger","Stranger",837,0.837,1,"M"
"849",2002,2,89,"Nonmatching","Friend","Friend","Close",617,0.617,1,"F"
"850",2002,2,89,"Nonmatching","Self","Self","Self",431,0.431,1,"M"
"851",2002,2,90,"Matching","Stranger","Stranger","Stranger",656,0.656,1,"F"
"852",2002,2,90,"Nonmatching","Stranger","Stranger","Stranger",573,0.573,1,"M"
"853",2002,2,91,"Nonmatching","Self","Self","Self",986,0.986,1,"F"
"854",2002,2,91,"Matching","Stranger","Stranger","Stranger",515,0.515,1,"M"
"855",2002,2,92,"Nonmatching","Friend","Friend","Close",699,0.699,1,"F"
"856",2002,2,92,"Nonmatching","Friend","Friend","Close",805,0.805,1,"M"
"857",2002,2,93,"Nonmatching","Self","Self","Self",1113,1.113,1,"F"
"858",2002,2,93,"Nonmatching","Friend","Friend","Close",1014,1.014,1,"M"
"859",2002,2,94,"Nonmatching","Friend","Friend","Close",957,0.957,1,"F"
"860",2002,2,94,"Nonmatching","Friend","Friend","Close",1087,1.087,1,"M"
"861",2002,2,95,"Matching","Stranger","Stranger","Stranger",701,0.701,1,"F"
"862",2002,2,95,"Nonmatching","Friend","Friend","Close",720,0.72,0,"M"
"863",2002,2,96,"Nonmatching","Friend","Friend","Close",937,0.937,1,"F"
"864",2002,2,96,"Nonmatching","Self","Self","Self",427,0.427,1,"M"
"865",2002,2,97,"Nonmatching","Friend","Friend","Close",681,0.681,1,"F"
"866",2002,2,97,"Nonmatching","Self","Self","Self",447,0.447,1,"M"
"867",2002,2,98,"Nonmatching","Self","Self","Self",1169,1.169,1,"F"
"868",2002,2,98,"Nonmatching","Friend","Friend","Close",883,0.883,1,"M"
"869",2002,2,99,"Matching","Stranger","Stranger","Stranger",398,0.398,1,"F"
"870",2002,2,99,"Nonmatching","Stranger","Stranger","Stranger",640,0.64,1,"M"
"871",2002,2,100,"Nonmatching","Friend","Friend","Close",707,0.707,1,"F"
"872",2002,2,100,"Nonmatching","Friend","Friend","Close",1127,1.127,1,"M"
"873",2002,2,101,"Nonmatching","Friend","Friend","Close",757,0.757,1,"F"
"874",2002,2,101,"Nonmatching","Self","Self","Self",709,0.709,1,"M"
"875",2002,2,102,"Nonmatching","Self","Self","Self",591,0.591,1,"F"
"876",2002,2,102,"Nonmatching","Self","Self","Self",493,0.493,1,"M"
"877",2002,2,103,"Nonmatching","Self","Self","Self",652,0.652,1,"F"
"878",2002,2,103,"Nonmatching","Self","Self","Self",917,0.917,1,"M"
"879",2002,2,104,"Nonmatching","Self","Self","Self",501,0.501,1,"F"
"880",2002,2,104,"Nonmatching","Self","Self","Self",763,0.763,1,"M"
"881",2002,2,105,"Nonmatching","Self","Self","Self",675,0.675,1,"F"
"882",2002,2,105,"Nonmatching","Self","Self","Self",705,0.705,1,"M"
"883",2002,2,106,"Nonmatching","Self","Self","Self",536,0.536,1,"F"
"884",2002,2,106,"Matching","Stranger","Stranger","Stranger",988,0.988,1,"M"
"885",2002,2,107,"Nonmatching","Self","Self","Self",957,0.957,1,"F"
"886",2002,2,107,"Nonmatching","Self","Self","Self",2107,2.107,1,"M"
"887",2002,2,108,"Nonmatching","Stranger","Stranger","Stranger",723,0.723,1,"F"
"888",2002,2,108,"Nonmatching","Self","Self","Self",645,0.645,1,"M"
"889",2002,2,109,"Matching","Stranger","Stranger","Stranger",469,0.469,1,"F"
"890",2002,2,109,"Matching","Friend","Friend","Close",881,0.881,1,"M"
"891",2002,2,110,"Nonmatching","Self","Self","Self",657,0.657,1,"F"
"892",2002,2,110,"Nonmatching","Stranger","Stranger","Stranger",1422,1.422,1,"M"
"893",2002,2,111,"Nonmatching","Friend","Friend","Close",733,0.733,1,"F"
"894",2002,2,111,"Matching","Stranger","Stranger","Stranger",849,0.849,1,"M"
"895",2002,2,112,"Matching","Friend","Friend","Close",809,0.809,1,"F"
"896",2002,2,112,"Matching","Friend","Friend","Close",1434,1.434,1,"M"
"897",2002,2,113,"Nonmatching","Self","Self","Self",904,0.904,1,"F"
"898",2002,2,113,"Nonmatching","Stranger","Stranger","Stranger",992,0.992,1,"M"
"899",2002,2,114,"Nonmatching","Stranger","Stranger","Stranger",835,0.835,1,"F"
"900",2002,2,114,"Nonmatching","Self","Self","Self",713,0.713,1,"M"
"901",2002,2,115,"Matching","Friend","Friend","Close",785,0.785,1,"F"
"902",2002,2,115,"Matching","Stranger","Stranger","Stranger",803,0.803,1,"M"
"903",2002,2,116,"Nonmatching","Stranger","Stranger","Stranger",887,0.887,1,"F"
"904",2002,2,116,"Nonmatching","Friend","Friend","Close",655,0.655,1,"M"
"905",2002,2,117,"Matching","Stranger","Stranger","Stranger",1587,1.587,1,"F"
"906",2002,2,117,"Matching","Friend","Friend","Close",1297,1.297,1,"M"
"907",2002,2,118,"Matching","Stranger","Stranger","Stranger",595,0.595,1,"F"
"908",2002,2,118,"Matching","Friend","Friend","Close",997,0.997,1,"M"
"909",2002,2,119,"Nonmatching","Friend","Friend","Close",667,0.667,1,"F"
"910",2002,2,119,"Matching","Friend","Friend","Close",571,0.571,1,"M"
"911",2002,2,120,"Nonmatching","Stranger","Stranger","Stranger",930,0.93,1,"F"
"912",2002,2,120,"Matching","Friend","Friend","Close",500,0.5,1,"M"
"913",2002,2,121,"Matching","Stranger","Stranger","Stranger",442,0.442,1,"F"
"914",2002,2,121,"Nonmatching","Stranger","Stranger","Stranger",696,0.696,1,"M"
"915",2002,2,122,"Matching","Friend","Friend","Close",667,0.667,1,"F"
"916",2002,2,122,"Matching","Stranger","Stranger","Stranger",603,0.603,1,"M"
"917",2002,2,123,"Matching","Stranger","Stranger","Stranger",681,0.681,1,"F"
"918",2002,2,123,"Nonmatching","Friend","Friend","Close",939,0.939,1,"M"
"919",2002,2,124,"Nonmatching","Stranger","Stranger","Stranger",631,0.631,1,"F"
"920",2002,2,124,"Nonmatching","Self","Self","Self",658,0.658,1,"M"
"921",2002,2,125,"Nonmatching","Self","Self","Self",451,0.451,1,"F"
"922",2002,2,125,"Matching","Stranger","Stranger","Stranger",1108,1.108,1,"M"
"923",2002,2,126,"Nonmatching","Self","Self","Self",629,0.629,1,"F"
"924",2002,2,126,"Nonmatching","Self","Self","Self",1044,1.044,1,"M"
"925",2002,2,127,"Nonmatching","Friend","Friend","Close",773,0.773,1,"F"
"926",2002,2,127,"Matching","Friend","Friend","Close",991,0.991,1,"M"
"927",2002,2,128,"Nonmatching","Self","Self","Self",958,0.958,1,"F"
"928",2002,2,128,"Nonmatching","Self","Self","Self",515,0.515,1,"M"
"929",2002,2,129,"Nonmatching","Self","Self","Self",442,0.442,1,"F"
"930",2002,2,129,"Matching","Friend","Friend","Close",647,0.647,1,"M"
"931",2002,2,130,"Matching","Friend","Friend","Close",987,0.987,1,"F"
"932",2002,2,130,"Matching","Friend","Friend","Close",484,0.484,1,"M"
"933",2002,2,131,"Nonmatching","Stranger","Stranger","Stranger",1493,1.493,1,"F"
"934",2002,2,131,"Matching","Stranger","Stranger","Stranger",495,0.495,1,"M"
"935",2002,2,132,"Matching","Stranger","Stranger","Stranger",1083,1.083,1,"F"
"936",2002,2,132,"Matching","Stranger","Stranger","Stranger",488,0.488,1,"M"
"937",2002,2,133,"Matching","Friend","Friend","Close",773,0.773,1,"F"
"938",2002,2,133,"Nonmatching","Self","Self","Self",665,0.665,1,"M"
"939",2002,2,134,"Nonmatching","Self","Self","Self",697,0.697,1,"F"
"940",2002,2,134,"Matching","Friend","Friend","Close",916,0.916,1,"M"
"941",2002,2,135,"Nonmatching","Stranger","Stranger","Stranger",522,0.522,1,"F"
"942",2002,2,135,"Nonmatching","Stranger","Stranger","Stranger",971,0.971,1,"M"
"943",2002,2,136,"Matching","Friend","Friend","Close",642,0.642,1,"F"
"944",2002,2,136,"Nonmatching","Self","Self","Self",782,0.782,1,"M"
"945",2002,2,137,"Matching","Stranger","Stranger","Stranger",641,0.641,1,"F"
"946",2002,2,137,"Nonmatching","Self","Self","Self",1240,1.24,1,"M"
"947",2002,2,138,"Nonmatching","Stranger","Stranger","Stranger",641,0.641,1,"F"
"948",2002,2,138,"Nonmatching","Self","Self","Self",615,0.615,0,"M"
"949",2002,2,139,"Matching","Friend","Friend","Close",1074,1.074,1,"F"
"950",2002,2,139,"Matching","Friend","Friend","Close",691,0.691,1,"M"
"951",2002,2,140,"Nonmatching","Self","Self","Self",978,0.978,1,"F"
"952",2002,2,140,"Nonmatching","Self","Self","Self",550,0.55,1,"M"
"953",2002,2,141,"Nonmatching","Stranger","Stranger","Stranger",575,0.575,1,"F"
"954",2002,2,141,"Nonmatching","Stranger","Stranger","Stranger",673,0.673,1,"M"
"955",2002,2,142,"Nonmatching","Stranger","Stranger","Stranger",661,0.661,1,"F"
"956",2002,2,142,"Nonmatching","Self","Self","Self",515,0.515,1,"M"
"957",2002,2,143,"Nonmatching","Friend","Friend","Close",799,0.799,1,"F"
"958",2002,2,143,"Matching","Stranger","Stranger","Stranger",2050,2.05,1,"M"
"959",2002,2,144,"Matching","Friend","Friend","Close",727,0.727,1,"F"
"960",2002,2,144,"Nonmatching","Stranger","Stranger","Stranger",1040,1.04,1,"M"
"961",2002,2,145,"Nonmatching","Stranger","Stranger","Stranger",615,0.615,1,"F"
"962",2002,2,145,"Nonmatching","Stranger","Stranger","Stranger",805,0.805,1,"M"
"963",2002,2,146,"Matching","Stranger","Stranger","Stranger",725,0.725,1,"F"
"964",2002,2,146,"Nonmatching","Self","Self","Self",783,0.783,1,"M"
"965",2002,2,147,"Matching","Friend","Friend","Close",926,0.926,1,"F"
"966",2002,2,147,"Matching","Friend","Friend","Close",845,0.845,1,"M"
"967",2002,2,148,"Matching","Friend","Friend","Close",474,0.474,1,"F"
"968",2002,2,148,"Nonmatching","Friend","Friend","Close",1263,1.263,1,"M"
"969",2002,2,149,"Nonmatching","Stranger","Stranger","Stranger",720,0.72,1,"F"
"970",2002,2,149,"Nonmatching","Self","Self","Self",996,0.996,1,"M"
"971",2002,2,150,"Nonmatching","Self","Self","Self",714,0.714,1,"F"
"972",2002,2,150,"Nonmatching","Self","Self","Self",1341,1.341,1,"M"
"973",2002,2,151,"Nonmatching","Friend","Friend","Close",620,0.62,1,"F"
"974",2002,2,151,"Nonmatching","Stranger","Stranger","Stranger",760,0.76,1,"M"
"975",2002,2,152,"Matching","Friend","Friend","Close",708,0.708,1,"F"
"976",2002,2,152,"Nonmatching","Stranger","Stranger","Stranger",817,0.817,1,"M"
"977",2002,2,153,"Matching","Friend","Friend","Close",898,0.898,1,"F"
"978",2002,2,153,"Matching","Stranger","Stranger","Stranger",834,0.834,1,"M"
"979",2002,2,154,"Matching","Stranger","Stranger","Stranger",473,0.473,1,"F"
"980",2002,2,154,"Nonmatching","Friend","Friend","Close",822,0.822,1,"M"
"981",2002,2,155,"Nonmatching","Stranger","Stranger","Stranger",583,0.583,1,"F"
"982",2002,2,155,"Matching","Stranger","Stranger","Stranger",732,0.732,1,"M"
"983",2002,2,156,"Nonmatching","Self","Self","Self",609,0.609,1,"F"
"984",2002,2,156,"Nonmatching","Self","Self","Self",1048,1.048,1,"M"
"985",2002,2,157,"Nonmatching","Self","Self","Self",747,0.747,1,"F"
"986",2002,2,157,"Nonmatching","Friend","Friend","Close",902,0.902,1,"M"
"987",2002,2,158,"Nonmatching","Self","Self","Self",494,0.494,1,"F"
"988",2002,2,158,"Nonmatching","Stranger","Stranger","Stranger",1037,1.037,1,"M"
"989",2002,2,159,"Nonmatching","Self","Self","Self",418,0.418,1,"F"
"990",2002,2,159,"Nonmatching","Self","Self","Self",764,0.764,1,"M"
"991",2002,2,160,"Nonmatching","Friend","Friend","Close",610,0.61,1,"F"
"992",2002,2,160,"Matching","Friend","Friend","Close",756,0.756,1,"M"
"993",2002,2,161,"Matching","Stranger","Stranger","Stranger",525,0.525,1,"F"
"994",2002,2,161,"Nonmatching","Friend","Friend","Close",630,0.63,1,"M"
"995",2002,2,162,"Nonmatching","Self","Self","Self",564,0.564,1,"F"
"996",2002,2,162,"Nonmatching","Friend","Friend","Close",718,0.718,1,"M"
"997",2002,2,163,"Nonmatching","Self","Self","Self",587,0.587,1,"F"
"998",2002,2,163,"Matching","Stranger","Stranger","Stranger",935,0.935,1,"M"
"999",2002,2,164,"Matching","Stranger","Stranger","Stranger",503,0.503,1,"F"
"1000",2002,2,164,"Nonmatching","Self","Self","Self",803,0.803,1,"M"
"1001",2002,2,165,"Nonmatching","Stranger","Stranger","Stranger",491,0.491,1,"F"
"1002",2002,2,165,"Matching","Stranger","Stranger","Stranger",1783,1.783,0,"M"
"1003",2002,2,166,"Nonmatching","Self","Self","Self",350,0.35,1,"F"
"1004",2002,2,166,"Nonmatching","Self","Self","Self",827,0.827,1,"M"
"1005",2002,2,167,"Matching","Friend","Friend","Close",704,0.704,1,"F"
"1006",2002,2,167,"Nonmatching","Stranger","Stranger","Stranger",681,0.681,1,"M"
"1007",2002,2,168,"Matching","Friend","Friend","Close",573,0.573,1,"F"
"1008",2002,2,168,"Nonmatching","Stranger","Stranger","Stranger",1136,1.136,1,"M"
"1009",2002,3,169,"Nonmatching","Stranger","Stranger","Stranger",1892,1.892,0,"F"
"1010",2002,3,169,"Nonmatching","Self","Self","Self",570,0.57,1,"M"
"1011",2002,3,170,"Matching","Stranger","Stranger","Stranger",382,0.382,1,"F"
"1012",2002,3,170,"Matching","Stranger","Stranger","Stranger",544,0.544,1,"M"
"1013",2002,3,171,"Nonmatching","Self","Self","Self",429,0.429,1,"F"
"1014",2002,3,171,"Nonmatching","Self","Self","Self",864,0.864,1,"M"
"1015",2002,3,172,"Matching","Friend","Friend","Close",792,0.792,1,"F"
"1016",2002,3,172,"Matching","Stranger","Stranger","Stranger",812,0.812,1,"M"
"1017",2002,3,173,"Nonmatching","Friend","Friend","Close",754,0.754,1,"F"
"1018",2002,3,173,"Matching","Friend","Friend","Close",557,0.557,1,"M"
"1019",2002,3,174,"Nonmatching","Self","Self","Self",627,0.627,1,"F"
"1020",2002,3,174,"Matching","Stranger","Stranger","Stranger",564,0.564,1,"M"
"1021",2002,3,175,"Nonmatching","Stranger","Stranger","Stranger",688,0.688,1,"F"
"1022",2002,3,175,"Nonmatching","Self","Self","Self",763,0.763,1,"M"
"1023",2002,3,176,"Nonmatching","Stranger","Stranger","Stranger",972,0.972,1,"F"
"1024",2002,3,176,"Matching","Stranger","Stranger","Stranger",750,0.75,1,"M"
"1025",2002,3,177,"Nonmatching","Self","Self","Self",928,0.928,1,"F"
"1026",2002,3,177,"Nonmatching","Stranger","Stranger","Stranger",700,0.7,1,"M"
"1027",2002,3,178,"Nonmatching","Friend","Friend","Close",737,0.737,1,"F"
"1028",2002,3,178,"Matching","Friend","Friend","Close",582,0.582,1,"M"
"1029",2002,3,179,"Matching","Friend","Friend","Close",962,0.962,1,"F"
"1030",2002,3,179,"Matching","Friend","Friend","Close",811,0.811,1,"M"
"1031",2002,3,180,"Nonmatching","Stranger","Stranger","Stranger",696,0.696,1,"F"
"1032",2002,3,180,"Matching","Stranger","Stranger","Stranger",588,0.588,1,"M"
"1033",2002,3,181,"Nonmatching","Self","Self","Self",672,0.672,1,"F"
"1034",2002,3,181,"Nonmatching","Friend","Friend","Close",758,0.758,1,"M"
"1035",2002,3,182,"Matching","Stranger","Stranger","Stranger",723,0.723,1,"F"
"1036",2002,3,182,"Matching","Stranger","Stranger","Stranger",717,0.717,1,"M"
"1037",2002,3,183,"Matching","Stranger","Stranger","Stranger",603,0.603,1,"F"
"1038",2002,3,183,"Nonmatching","Stranger","Stranger","Stranger",567,0.567,1,"M"
"1039",2002,3,184,"Nonmatching","Friend","Friend","Close",740,0.74,1,"F"
"1040",2002,3,184,"Matching","Friend","Friend","Close",723,0.723,0,"M"
"1041",2002,3,185,"Matching","Stranger","Stranger","Stranger",454,0.454,1,"F"
"1042",2002,3,185,"Matching","Friend","Friend","Close",1383,1.383,1,"M"
"1043",2002,3,186,"Nonmatching","Friend","Friend","Close",739,0.739,1,"F"
"1044",2002,3,186,"Nonmatching","Stranger","Stranger","Stranger",798,0.798,1,"M"
"1045",2002,3,187,"Nonmatching","Friend","Friend","Close",718,0.718,1,"F"
"1046",2002,3,187,"Nonmatching","Stranger","Stranger","Stranger",834,0.834,1,"M"
"1047",2002,3,188,"Matching","Friend","Friend","Close",730,0.73,1,"F"
"1048",2002,3,188,"Matching","Stranger","Stranger","Stranger",916,0.916,1,"M"
"1049",2002,3,189,"Nonmatching","Self","Self","Self",422,0.422,1,"F"
"1050",2002,3,189,"Nonmatching","Friend","Friend","Close",1140,1.14,1,"M"
"1051",2002,3,190,"Nonmatching","Friend","Friend","Close",922,0.922,1,"F"
"1052",2002,3,190,"Nonmatching","Friend","Friend","Close",789,0.789,1,"M"
"1053",2002,3,191,"Nonmatching","Self","Self","Self",746,0.746,1,"F"
"1054",2002,3,191,"Nonmatching","Friend","Friend","Close",718,0.718,1,"M"
"1055",2002,3,192,"Nonmatching","Self","Self","Self",817,0.817,1,"F"
"1056",2002,3,192,"Matching","Stranger","Stranger","Stranger",553,0.553,1,"M"
"1057",2002,3,193,"Nonmatching","Self","Self","Self",930,0.93,1,"F"
"1058",2002,3,193,"Nonmatching","Self","Self","Self",656,0.656,1,"M"
"1059",2002,3,194,"Nonmatching","Stranger","Stranger","Stranger",620,0.62,1,"F"
"1060",2002,3,194,"Matching","Friend","Friend","Close",789,0.789,0,"M"
"1061",2002,3,195,"Matching","Friend","Friend","Close",793,0.793,1,"F"
"1062",2002,3,195,"Matching","Friend","Friend","Close",460,0.46,1,"M"
"1063",2002,3,196,"Nonmatching","Self","Self","Self",663,0.663,1,"F"
"1064",2002,3,196,"Nonmatching","Self","Self","Self",707,0.707,1,"M"
"1065",2002,3,197,"Nonmatching","Self","Self","Self",1112,1.112,1,"F"
"1066",2002,3,197,"Nonmatching","Self","Self","Self",657,0.657,1,"M"
"1067",2002,3,198,"Nonmatching","Friend","Friend","Close",720,0.72,1,"F"
"1068",2002,3,198,"Matching","Stranger","Stranger","Stranger",776,0.776,1,"M"
"1069",2002,3,199,"Nonmatching","Friend","Friend","Close",908,0.908,1,"F"
"1070",2002,3,199,"Matching","Friend","Friend","Close",1149,1.149,1,"M"
"1071",2002,3,200,"Matching","Friend","Friend","Close",705,0.705,1,"F"
"1072",2002,3,200,"Matching","Stranger","Stranger","Stranger",987,0.987,1,"M"
"1073",2002,3,201,"Matching","Friend","Friend","Close",682,0.682,1,"F"
"1074",2002,3,201,"Nonmatching","Self","Self","Self",765,0.765,1,"M"
"1075",2002,3,202,"Matching","Stranger","Stranger","Stranger",502,0.502,1,"F"
"1076",2002,3,202,"Nonmatching","Friend","Friend","Close",1210,1.21,1,"M"
"1077",2002,3,203,"Nonmatching","Stranger","Stranger","Stranger",604,0.604,1,"F"
"1078",2002,3,203,"Nonmatching","Self","Self","Self",750,0.75,1,"M"
"1079",2002,3,204,"Nonmatching","Self","Self","Self",1180,1.18,1,"F"
"1080",2002,3,204,"Nonmatching","Self","Self","Self",666,0.666,1,"M"
"1081",2002,3,205,"Matching","Stranger","Stranger","Stranger",808,0.808,1,"F"
"1082",2002,3,205,"Nonmatching","Self","Self","Self",542,0.542,1,"M"
"1083",2002,3,206,"Matching","Friend","Friend","Close",477,0.477,1,"F"
"1084",2002,3,206,"Nonmatching","Friend","Friend","Close",613,0.613,1,"M"
"1085",2002,3,207,"Nonmatching","Self","Self","Self",581,0.581,1,"F"
"1086",2002,3,207,"Nonmatching","Friend","Friend","Close",573,0.573,1,"M"
"1087",2002,3,208,"Matching","Stranger","Stranger","Stranger",632,0.632,1,"F"
"1088",2002,3,208,"Nonmatching","Self","Self","Self",674,0.674,1,"M"
"1089",2002,3,209,"Matching","Stranger","Stranger","Stranger",574,0.574,1,"F"
"1090",2002,3,209,"Nonmatching","Self","Self","Self",993,0.993,1,"M"
"1091",2002,3,210,"Nonmatching","Self","Self","Self",728,0.728,1,"F"
"1092",2002,3,210,"Matching","Stranger","Stranger","Stranger",751,0.751,1,"M"
"1093",2002,3,211,"Matching","Stranger","Stranger","Stranger",804,0.804,1,"F"
"1094",2002,3,211,"Matching","Stranger","Stranger","Stranger",461,0.461,1,"M"
"1095",2002,3,212,"Nonmatching","Stranger","Stranger","Stranger",825,0.825,1,"F"
"1096",2002,3,212,"Nonmatching","Friend","Friend","Close",1136,1.136,1,"M"
"1097",2002,3,213,"Nonmatching","Self","Self","Self",552,0.552,1,"F"
"1098",2002,3,213,"Nonmatching","Self","Self","Self",1122,1.122,1,"M"
"1099",2002,3,214,"Nonmatching","Self","Self","Self",638,0.638,1,"F"
"1100",2002,3,214,"Nonmatching","Friend","Friend","Close",800,0.8,1,"M"
"1101",2002,3,215,"Nonmatching","Stranger","Stranger","Stranger",608,0.608,1,"F"
"1102",2002,3,215,"Nonmatching","Friend","Friend","Close",859,0.859,1,"M"
"1103",2002,3,216,"Nonmatching","Friend","Friend","Close",774,0.774,1,"F"
"1104",2002,3,216,"Nonmatching","Self","Self","Self",713,0.713,1,"M"
"1105",2002,3,217,"Nonmatching","Self","Self","Self",585,0.585,1,"F"
"1106",2002,3,217,"Nonmatching","Self","Self","Self",921,0.921,1,"M"
"1107",2002,3,218,"Nonmatching","Stranger","Stranger","Stranger",987,0.987,1,"F"
"1108",2002,3,218,"Matching","Friend","Friend","Close",816,0.816,1,"M"
"1109",2002,3,219,"Matching","Friend","Friend","Close",626,0.626,1,"F"
"1110",2002,3,219,"Nonmatching","Self","Self","Self",703,0.703,1,"M"
"1111",2002,3,220,"Nonmatching","Stranger","Stranger","Stranger",759,0.759,1,"F"
"1112",2002,3,220,"Nonmatching","Stranger","Stranger","Stranger",881,0.881,1,"M"
"1113",2002,3,221,"Nonmatching","Self","Self","Self",1136,1.136,1,"F"
"1114",2002,3,221,"Nonmatching","Stranger","Stranger","Stranger",1421,1.421,1,"M"
"1115",2002,3,222,"Nonmatching","Self","Self","Self",543,0.543,1,"F"
"1116",2002,3,222,"Nonmatching","Friend","Friend","Close",759,0.759,1,"M"
"1117",2002,3,223,"Nonmatching","Self","Self","Self",650,0.65,1,"F"
"1118",2002,3,223,"Nonmatching","Stranger","Stranger","Stranger",628,0.628,1,"M"
"1119",2002,3,224,"Nonmatching","Self","Self","Self",709,0.709,1,"F"
"1120",2002,3,224,"Nonmatching","Self","Self","Self",673,0.673,1,"M"
"1121",2002,3,225,"Matching","Friend","Friend","Close",950,0.95,1,"F"
"1122",2002,3,225,"Nonmatching","Stranger","Stranger","Stranger",670,0.67,1,"M"
"1123",2002,3,226,"Nonmatching","Friend","Friend","Close",707,0.707,1,"F"
"1124",2002,3,226,"Matching","Friend","Friend","Close",695,0.695,1,"M"
"1125",2002,3,227,"Nonmatching","Stranger","Stranger","Stranger",592,0.592,1,"F"
"1126",2002,3,227,"Nonmatching","Self","Self","Self",627,0.627,1,"M"
"1127",2002,3,228,"Matching","Stranger","Stranger","Stranger",685,0.685,1,"F"
"1128",2002,3,228,"Nonmatching","Self","Self","Self",698,0.698,1,"M"
"1129",2002,3,229,"Nonmatching","Self","Self","Self",536,0.536,1,"F"
"1130",2002,3,229,"Nonmatching","Self","Self","Self",492,0.492,1,"M"
"1131",2002,3,230,"Nonmatching","Stranger","Stranger","Stranger",939,0.939,1,"F"
"1132",2002,3,230,"Nonmatching","Friend","Friend","Close",1157,1.157,1,"M"
"1133",2002,3,231,"Matching","Friend","Friend","Close",882,0.882,1,"F"
"1134",2002,3,231,"Nonmatching","Stranger","Stranger","Stranger",837,0.837,1,"M"
"1135",2002,3,232,"Nonmatching","Self","Self","Self",624,0.624,1,"F"
"1136",2002,3,232,"Matching","Friend","Friend","Close",904,0.904,1,"M"
"1137",2002,3,233,"Matching","Friend","Friend","Close",642,0.642,1,"F"
"1138",2002,3,233,"Nonmatching","Stranger","Stranger","Stranger",568,0.568,1,"M"
"1139",2002,3,234,"Matching","Friend","Friend","Close",672,0.672,1,"F"
"1140",2002,3,234,"Nonmatching","Self","Self","Self",795,0.795,1,"M"
"1141",2002,3,235,"Nonmatching","Self","Self","Self",577,0.577,1,"F"
"1142",2002,3,235,"Matching","Friend","Friend","Close",482,0.482,1,"M"
"1143",2002,3,236,"Nonmatching","Stranger","Stranger","Stranger",534,0.534,1,"F"
"1144",2002,3,236,"Nonmatching","Stranger","Stranger","Stranger",567,0.567,1,"M"
"1145",2002,3,237,"Nonmatching","Friend","Friend","Close",1003,1.003,1,"F"
"1146",2002,3,237,"Nonmatching","Self","Self","Self",631,0.631,1,"M"
"1147",2002,3,238,"Matching","Stranger","Stranger","Stranger",661,0.661,1,"F"
"1148",2002,3,238,"Matching","Friend","Friend","Close",871,0.871,1,"M"
"1149",2002,3,239,"Nonmatching","Stranger","Stranger","Stranger",671,0.671,1,"F"
"1150",2002,3,239,"Nonmatching","Self","Self","Self",792,0.792,1,"M"
"1151",2002,3,240,"Nonmatching","Friend","Friend","Close",803,0.803,1,"F"
"1152",2002,3,240,"Matching","Stranger","Stranger","Stranger",864,0.864,1,"M"
"1153",2002,3,241,"Matching","Stranger","Stranger","Stranger",513,0.513,1,"F"
"1154",2002,3,241,"Nonmatching","Self","Self","Self",565,0.565,1,"M"
"1155",2002,3,242,"Matching","Friend","Friend","Close",763,0.763,1,"F"
"1156",2002,3,242,"Nonmatching","Self","Self","Self",775,0.775,1,"M"
"1157",2002,3,243,"Matching","Stranger","Stranger","Stranger",829,0.829,1,"F"
"1158",2002,3,243,"Nonmatching","Friend","Friend","Close",673,0.673,1,"M"
"1159",2002,3,244,"Nonmatching","Self","Self","Self",749,0.749,1,"F"
"1160",2002,3,244,"Matching","Friend","Friend","Close",868,0.868,1,"M"
"1161",2002,3,245,"Matching","Friend","Friend","Close",649,0.649,1,"F"
"1162",2002,3,245,"Nonmatching","Friend","Friend","Close",659,0.659,1,"M"
"1163",2002,3,246,"Nonmatching","Self","Self","Self",538,0.538,1,"F"
"1164",2002,3,246,"Nonmatching","Self","Self","Self",587,0.587,1,"M"
"1165",2002,3,247,"Nonmatching","Friend","Friend","Close",692,0.692,1,"F"
"1166",2002,3,247,"Matching","Stranger","Stranger","Stranger",663,0.663,1,"M"
"1167",2002,3,248,"Nonmatching","Self","Self","Self",794,0.794,1,"F"
"1168",2002,3,248,"Nonmatching","Self","Self","Self",595,0.595,1,"M"
"1169",2002,3,249,"Nonmatching","Self","Self","Self",678,0.678,1,"F"
"1170",2002,3,249,"Nonmatching","Stranger","Stranger","Stranger",1274,1.274,1,"M"
"1171",2002,3,250,"Matching","Stranger","Stranger","Stranger",508,0.508,1,"F"
"1172",2002,3,250,"Nonmatching","Stranger","Stranger","Stranger",778,0.778,1,"M"
"1173",2002,3,251,"Nonmatching","Friend","Friend","Close",607,0.607,1,"F"
"1174",2002,3,251,"Nonmatching","Self","Self","Self",767,0.767,1,"M"
"1175",2002,3,252,"Nonmatching","Self","Self","Self",564,0.564,1,"F"
"1176",2002,3,252,"Nonmatching","Stranger","Stranger","Stranger",784,0.784,1,"M"
"1177",2002,4,253,"Matching","Friend","Friend","Close",736,0.736,1,"F"
"1178",2002,4,253,"Matching","Stranger","Stranger","Stranger",959,0.959,1,"M"
"1179",2002,4,254,"Nonmatching","Self","Self","Self",573,0.573,1,"F"
"1180",2002,4,254,"Nonmatching","Self","Self","Self",554,0.554,1,"M"
"1181",2002,4,255,"Matching","Stranger","Stranger","Stranger",441,0.441,1,"F"
"1182",2002,4,255,"Nonmatching","Friend","Friend","Close",763,0.763,1,"M"
"1183",2002,4,256,"Matching","Friend","Friend","Close",642,0.642,1,"F"
"1184",2002,4,256,"Matching","Friend","Friend","Close",1433,1.433,1,"M"
"1185",2002,4,257,"Nonmatching","Self","Self","Self",491,0.491,1,"F"
"1186",2002,4,257,"Nonmatching","Friend","Friend","Close",1179,1.179,1,"M"
"1187",2002,4,258,"Nonmatching","Friend","Friend","Close",679,0.679,1,"F"
"1188",2002,4,258,"Nonmatching","Stranger","Stranger","Stranger",609,0.609,1,"M"
"1189",2002,4,259,"Matching","Stranger","Stranger","Stranger",526,0.526,1,"F"
"1190",2002,4,259,"Nonmatching","Self","Self","Self",493,0.493,1,"M"
"1191",2002,4,260,"Nonmatching","Stranger","Stranger","Stranger",444,0.444,1,"F"
"1192",2002,4,260,"Nonmatching","Stranger","Stranger","Stranger",745,0.745,1,"M"
"1193",2002,4,261,"Nonmatching","Stranger","Stranger","Stranger",726,0.726,1,"F"
"1194",2002,4,261,"Matching","Stranger","Stranger","Stranger",801,0.801,1,"M"
"1195",2002,4,262,"Matching","Friend","Friend","Close",510,0.51,1,"F"
"1196",2002,4,262,"Nonmatching","Self","Self","Self",1123,1.123,1,"M"
"1197",2002,4,263,"Nonmatching","Self","Self","Self",649,0.649,1,"F"
"1198",2002,4,263,"Matching","Stranger","Stranger","Stranger",686,0.686,1,"M"
"1199",2002,4,264,"Matching","Friend","Friend","Close",616,0.616,1,"F"
"1200",2002,4,264,"Matching","Stranger","Stranger","Stranger",903,0.903,1,"M"
"1201",2002,4,265,"Nonmatching","Self","Self","Self",632,0.632,1,"F"
"1202",2002,4,265,"Nonmatching","Self","Self","Self",682,0.682,1,"M"
"1203",2002,4,266,"Nonmatching","Friend","Friend","Close",811,0.811,1,"F"
"1204",2002,4,266,"Nonmatching","Friend","Friend","Close",648,0.648,1,"M"
"1205",2002,4,267,"Matching","Stranger","Stranger","Stranger",877,0.877,1,"F"
"1206",2002,4,267,"Matching","Stranger","Stranger","Stranger",631,0.631,1,"M"
"1207",2002,4,268,"Nonmatching","Stranger","Stranger","Stranger",638,0.638,1,"F"
"1208",2002,4,268,"Matching","Friend","Friend","Close",738,0.738,1,"M"
"1209",2002,4,269,"Matching","Friend","Friend","Close",699,0.699,1,"F"
"1210",2002,4,269,"Matching","Stranger","Stranger","Stranger",809,0.809,1,"M"
"1211",2002,4,270,"Matching","Friend","Friend","Close",443,0.443,1,"F"
"1212",2002,4,270,"Nonmatching","Self","Self","Self",1182,1.182,1,"M"
"1213",2002,4,271,"Nonmatching","Stranger","Stranger","Stranger",684,0.684,1,"F"
"1214",2002,4,271,"Nonmatching","Stranger","Stranger","Stranger",876,0.876,1,"M"
"1215",2002,4,272,"Nonmatching","Self","Self","Self",717,0.717,1,"F"
"1216",2002,4,272,"Nonmatching","Self","Self","Self",633,0.633,1,"M"
"1217",2002,4,273,"Nonmatching","Friend","Friend","Close",522,0.522,1,"F"
"1218",2002,4,273,"Matching","Friend","Friend","Close",462,0.462,1,"M"
"1219",2002,4,274,"Matching","Stranger","Stranger","Stranger",685,0.685,1,"F"
"1220",2002,4,274,"Nonmatching","Friend","Friend","Close",897,0.897,1,"M"
"1221",2002,4,275,"Nonmatching","Friend","Friend","Close",826,0.826,1,"F"
"1222",2002,4,275,"Nonmatching","Friend","Friend","Close",1007,1.007,1,"M"
"1223",2002,4,276,"Nonmatching","Stranger","Stranger","Stranger",693,0.693,1,"F"
"1224",2002,4,276,"Nonmatching","Self","Self","Self",870,0.87,1,"M"
"1225",2002,4,277,"Nonmatching","Self","Self","Self",520,0.52,1,"F"
"1226",2002,4,277,"Matching","Friend","Friend","Close",637,0.637,1,"M"
"1227",2002,4,278,"Nonmatching","Self","Self","Self",514,0.514,1,"F"
"1228",2002,4,278,"Matching","Stranger","Stranger","Stranger",622,0.622,1,"M"
"1229",2002,4,279,"Nonmatching","Stranger","Stranger","Stranger",818,0.818,1,"F"
"1230",2002,4,279,"Nonmatching","Friend","Friend","Close",822,0.822,1,"M"
"1231",2002,4,280,"Nonmatching","Friend","Friend","Close",773,0.773,1,"F"
"1232",2002,4,280,"Nonmatching","Friend","Friend","Close",759,0.759,1,"M"
"1233",2002,4,281,"Nonmatching","Self","Self","Self",657,0.657,1,"F"
"1234",2002,4,281,"Matching","Friend","Friend","Close",444,0.444,1,"M"
"1235",2002,4,282,"Nonmatching","Self","Self","Self",547,0.547,1,"F"
"1236",2002,4,282,"Nonmatching","Self","Self","Self",577,0.577,1,"M"
"1237",2002,4,283,"Nonmatching","Self","Self","Self",445,0.445,1,"F"
"1238",2002,4,283,"Nonmatching","Stranger","Stranger","Stranger",648,0.648,1,"M"
"1239",2002,4,284,"Matching","Friend","Friend","Close",540,0.54,1,"F"
"1240",2002,4,284,"Matching","Stranger","Stranger","Stranger",939,0.939,1,"M"
"1241",2002,4,285,"Matching","Stranger","Stranger","Stranger",646,0.646,1,"F"
"1242",2002,4,285,"Matching","Stranger","Stranger","Stranger",886,0.886,1,"M"
"1243",2002,4,286,"Nonmatching","Self","Self","Self",709,0.709,1,"F"
"1244",2002,4,286,"Nonmatching","Friend","Friend","Close",665,0.665,1,"M"
"1245",2002,4,287,"Nonmatching","Stranger","Stranger","Stranger",631,0.631,1,"F"
"1246",2002,4,287,"Nonmatching","Stranger","Stranger","Stranger",654,0.654,1,"M"
"1247",2002,4,288,"Matching","Friend","Friend","Close",805,0.805,1,"F"
"1248",2002,4,288,"Nonmatching","Self","Self","Self",432,0.432,1,"M"
"1249",2002,4,289,"Nonmatching","Self","Self","Self",610,0.61,1,"F"
"1250",2002,4,289,"Nonmatching","Friend","Friend","Close",694,0.694,1,"M"
"1251",2002,4,290,"Matching","Stranger","Stranger","Stranger",883,0.883,1,"F"
"1252",2002,4,290,"Nonmatching","Stranger","Stranger","Stranger",773,0.773,1,"M"
"1253",2002,4,291,"Matching","Stranger","Stranger","Stranger",627,0.627,1,"F"
"1254",2002,4,291,"Nonmatching","Friend","Friend","Close",623,0.623,1,"M"
"1255",2002,4,292,"Nonmatching","Friend","Friend","Close",799,0.799,1,"F"
"1256",2002,4,292,"Nonmatching","Stranger","Stranger","Stranger",1020,1.02,1,"M"
"1257",2002,4,293,"Nonmatching","Self","Self","Self",598,0.598,1,"F"
"1258",2002,4,293,"Nonmatching","Self","Self","Self",669,0.669,1,"M"
"1259",2002,4,294,"Nonmatching","Friend","Friend","Close",1071,1.071,1,"F"
"1260",2002,4,294,"Nonmatching","Self","Self","Self",649,0.649,1,"M"
"1261",2002,4,295,"Nonmatching","Friend","Friend","Close",726,0.726,1,"F"
"1262",2002,4,295,"Matching","Stranger","Stranger","Stranger",781,0.781,1,"M"
"1263",2002,4,296,"Nonmatching","Stranger","Stranger","Stranger",730,0.73,1,"F"
"1264",2002,4,296,"Nonmatching","Self","Self","Self",984,0.984,1,"M"
"1265",2002,4,297,"Nonmatching","Friend","Friend","Close",658,0.658,1,"F"
"1266",2002,4,297,"Nonmatching","Self","Self","Self",1742,1.742,1,"M"
"1267",2002,4,298,"Nonmatching","Self","Self","Self",821,0.821,1,"F"
"1268",2002,4,298,"Nonmatching","Stranger","Stranger","Stranger",832,0.832,1,"M"
"1269",2002,4,299,"Matching","Friend","Friend","Close",941,0.941,1,"F"
"1270",2002,4,299,"Matching","Stranger","Stranger","Stranger",792,0.792,1,"M"
"1271",2002,4,300,"Matching","Stranger","Stranger","Stranger",770,0.77,1,"F"
"1272",2002,4,300,"Nonmatching","Self","Self","Self",636,0.636,1,"M"
"1273",2002,4,301,"Nonmatching","Stranger","Stranger","Stranger",771,0.771,1,"F"
"1274",2002,4,301,"Nonmatching","Friend","Friend","Close",717,0.717,1,"M"
"1275",2002,4,302,"Nonmatching","Stranger","Stranger","Stranger",962,0.962,1,"F"
"1276",2002,4,302,"Matching","Stranger","Stranger","Stranger",727,0.727,1,"M"
"1277",2002,4,303,"Nonmatching","Self","Self","Self",563,0.563,1,"F"
"1278",2002,4,303,"Nonmatching","Self","Self","Self",584,0.584,1,"M"
"1279",2002,4,304,"Matching","Stranger","Stranger","Stranger",699,0.699,1,"F"
"1280",2002,4,304,"Nonmatching","Friend","Friend","Close",903,0.903,1,"M"
"1281",2002,4,305,"Nonmatching","Self","Self","Self",770,0.77,1,"F"
"1282",2002,4,305,"Nonmatching","Self","Self","Self",487,0.487,1,"M"
"1283",2002,4,306,"Matching","Friend","Friend","Close",711,0.711,1,"F"
"1284",2002,4,306,"Matching","Friend","Friend","Close",482,0.482,1,"M"
"1285",2002,4,307,"Nonmatching","Self","Self","Self",518,0.518,1,"F"
"1286",2002,4,307,"Matching","Friend","Friend","Close",961,0.961,1,"M"
"1287",2002,4,308,"Matching","Friend","Friend","Close",786,0.786,1,"F"
"1288",2002,4,308,"Matching","Friend","Friend","Close",750,0.75,1,"M"
"1289",2002,4,309,"Nonmatching","Stranger","Stranger","Stranger",727,0.727,1,"F"
"1290",2002,4,309,"Nonmatching","Self","Self","Self",915,0.915,1,"M"
"1291",2002,4,310,"Nonmatching","Self","Self","Self",644,0.644,1,"F"
"1292",2002,4,310,"Nonmatching","Self","Self","Self",668,0.668,1,"M"
"1293",2002,4,311,"Nonmatching","Self","Self","Self",620,0.62,1,"F"
"1294",2002,4,311,"Nonmatching","Self","Self","Self",542,0.542,1,"M"
"1295",2002,4,312,"Matching","Stranger","Stranger","Stranger",543,0.543,1,"F"
"1296",2002,4,312,"Nonmatching","Stranger","Stranger","Stranger",1249,1.249,1,"M"
"1297",2002,4,313,"Nonmatching","Friend","Friend","Close",627,0.627,1,"F"
"1298",2002,4,313,"Matching","Friend","Friend","Close",1052,1.052,1,"M"
"1299",2002,4,314,"Matching","Stranger","Stranger","Stranger",612,0.612,1,"F"
"1300",2002,4,314,"Matching","Stranger","Stranger","Stranger",718,0.718,1,"M"
"1301",2002,4,315,"Nonmatching","Self","Self","Self",575,0.575,1,"F"
"1302",2002,4,315,"Matching","Friend","Friend","Close",839,0.839,1,"M"
"1303",2002,4,316,"Nonmatching","Friend","Friend","Close",679,0.679,1,"F"
"1304",2002,4,316,"Nonmatching","Stranger","Stranger","Stranger",501,0.501,1,"M"
"1305",2002,4,317,"Nonmatching","Friend","Friend","Close",765,0.765,1,"F"
"1306",2002,4,317,"Nonmatching","Self","Self","Self",667,0.667,1,"M"
"1307",2002,4,318,"Nonmatching","Friend","Friend","Close",651,0.651,1,"F"
"1308",2002,4,318,"Nonmatching","Stranger","Stranger","Stranger",749,0.749,1,"M"
"1309",2002,4,319,"Matching","Stranger","Stranger","Stranger",569,0.569,1,"F"
"1310",2002,4,319,"Nonmatching","Self","Self","Self",772,0.772,1,"M"
"1311",2002,4,320,"Nonmatching","Self","Self","Self",628,0.628,1,"F"
"1312",2002,4,320,"Matching","Friend","Friend","Close",485,0.485,1,"M"
"1313",2002,4,321,"Nonmatching","Stranger","Stranger","Stranger",572,0.572,1,"F"
"1314",2002,4,321,"Nonmatching","Self","Self","Self",704,0.704,1,"M"
"1315",2002,4,322,"Matching","Friend","Friend","Close",456,0.456,1,"F"
"1316",2002,4,322,"Matching","Stranger","Stranger","Stranger",1548,1.548,1,"M"
"1317",2002,4,323,"Nonmatching","Self","Self","Self",522,0.522,1,"F"
"1318",2002,4,323,"Nonmatching","Self","Self","Self",513,0.513,1,"M"
"1319",2002,4,324,"Nonmatching","Stranger","Stranger","Stranger",727,0.727,1,"F"
"1320",2002,4,324,"Nonmatching","Self","Self","Self",952,0.952,1,"M"
"1321",2002,4,325,"Matching","Friend","Friend","Close",790,0.79,1,"F"
"1322",2002,4,325,"Nonmatching","Stranger","Stranger","Stranger",513,0.513,1,"M"
"1323",2002,4,326,"Matching","Friend","Friend","Close",413,0.413,1,"F"
"1324",2002,4,326,"Nonmatching","Stranger","Stranger","Stranger",804,0.804,1,"M"
"1325",2002,4,327,"Nonmatching","Self","Self","Self",653,0.653,1,"F"
"1326",2002,4,327,"Matching","Friend","Friend","Close",516,0.516,1,"M"
"1327",2002,4,328,"Nonmatching","Self","Self","Self",489,0.489,1,"F"
"1328",2002,4,328,"Nonmatching","Self","Self","Self",595,0.595,1,"M"
"1329",2002,4,329,"Nonmatching","Self","Self","Self",605,0.605,1,"F"
"1330",2002,4,329,"Nonmatching","Stranger","Stranger","Stranger",1356,1.356,1,"M"
"1331",2002,4,330,"Nonmatching","Stranger","Stranger","Stranger",764,0.764,1,"F"
"1332",2002,4,330,"Nonmatching","Self","Self","Self",882,0.882,1,"M"
"1333",2002,4,331,"Nonmatching","Self","Self","Self",666,0.666,1,"F"
"1334",2002,4,331,"Nonmatching","Friend","Friend","Close",855,0.855,1,"M"
"1335",2002,4,332,"Matching","Stranger","Stranger","Stranger",562,0.562,1,"F"
"1336",2002,4,332,"Matching","Friend","Friend","Close",831,0.831,1,"M"
"1337",2002,4,333,"Nonmatching","Self","Self","Self",727,0.727,1,"F"
"1338",2002,4,333,"Nonmatching","Self","Self","Self",698,0.698,1,"M"
"1339",2002,4,334,"Nonmatching","Friend","Friend","Close",650,0.65,1,"F"
"1340",2002,4,334,"Nonmatching","Self","Self","Self",716,0.716,1,"M"
"1341",2002,4,335,"Nonmatching","Self","Self","Self",398,0.398,1,"F"
"1342",2002,4,335,"Matching","Friend","Friend","Close",967,0.967,1,"M"
"1343",2002,4,336,"Matching","Stranger","Stranger","Stranger",786,0.786,1,"F"
"1344",2002,4,336,"Nonmatching","Friend","Friend","Close",518,0.518,1,"M"
"1345",2003,1,1,"Nonmatching","Stranger","Stranger","Stranger",692,0.692,1,"F"
"1346",2003,1,1,"Matching","Friend","Friend","Close",2036,2.036,1,"M"
"1347",2003,1,2,"Nonmatching","Friend","Friend","Close",582,0.582,1,"F"
"1348",2003,1,2,"Nonmatching","Self","Self","Self",1111,1.111,1,"M"
"1349",2003,1,3,"Nonmatching","Friend","Friend","Close",577,0.577,1,"F"
"1350",2003,1,3,"Matching","Friend","Friend","Close",803,0.803,1,"M"
"1351",2003,1,4,"Nonmatching","Stranger","Stranger","Stranger",641,0.641,1,"F"
"1352",2003,1,4,"Nonmatching","Stranger","Stranger","Stranger",824,0.824,1,"M"
"1353",2003,1,5,"Matching","Friend","Friend","Close",482,0.482,1,"F"
"1354",2003,1,5,"Nonmatching","Self","Self","Self",680,0.68,1,"M"
"1355",2003,1,6,"Nonmatching","Stranger","Stranger","Stranger",580,0.58,1,"F"
"1356",2003,1,6,"Nonmatching","Friend","Friend","Close",985,0.985,1,"M"
"1357",2003,1,7,"Matching","Friend","Friend","Close",480,0.48,1,"F"
"1358",2003,1,7,"Nonmatching","Friend","Friend","Close",781,0.781,1,"M"
"1359",2003,1,8,"Nonmatching","Self","Self","Self",486,0.486,1,"F"
"1360",2003,1,8,"Nonmatching","Self","Self","Self",856,0.856,1,"M"
"1361",2003,1,9,"Nonmatching","Self","Self","Self",528,0.528,1,"F"
"1362",2003,1,9,"Nonmatching","Self","Self","Self",923,0.923,1,"M"
"1363",2003,1,10,"Matching","Stranger","Stranger","Stranger",427,0.427,1,"F"
"1364",2003,1,10,"Matching","Friend","Friend","Close",1505,1.505,1,"M"
"1365",2003,1,11,"Matching","Stranger","Stranger","Stranger",410,0.41,1,"F"
"1366",2003,1,11,"Nonmatching","Stranger","Stranger","Stranger",679,0.679,1,"M"
"1367",2003,1,12,"Nonmatching","Stranger","Stranger","Stranger",532,0.532,1,"F"
"1368",2003,1,12,"Nonmatching","Stranger","Stranger","Stranger",674,0.674,1,"M"
"1369",2003,1,13,"Nonmatching","Self","Self","Self",392,0.392,1,"F"
"1370",2003,1,13,"Matching","Stranger","Stranger","Stranger",597,0.597,1,"M"
"1371",2003,1,14,"Matching","Stranger","Stranger","Stranger",650,0.65,1,"F"
"1372",2003,1,14,"Matching","Stranger","Stranger","Stranger",792,0.792,1,"M"
"1373",2003,1,15,"Nonmatching","Self","Self","Self",801,0.801,1,"F"
"1374",2003,1,15,"Nonmatching","Self","Self","Self",864,0.864,1,"M"
"1375",2003,1,16,"Matching","Stranger","Stranger","Stranger",1102,1.102,1,"F"
"1376",2003,1,16,"Matching","Stranger","Stranger","Stranger",752,0.752,1,"M"
"1377",2003,1,17,"Matching","Stranger","Stranger","Stranger",386,0.386,1,"F"
