"Subject","Block","Trial","Shape","Label","Matching","Label_Identity","Origin_Identity","English_Identity","Standarlized_Identity","RT_ms","RT_sec","ACC","Face_Gender"
2001,1,1,"shape3.jpg","Stranger","Matching","Stranger","Stranger","Stranger","Stranger",720,0.72,1,"F"
2001,1,1,"shape3.jpg","You","Nonmatching","Self","Stranger","Stranger","Stranger",747,0.747,1,"M"
2001,1,2,"shape1.jpg","Stranger","Nonmatching","Stranger","Self","Self","Self",489,0.489,1,"F"
2001,1,2,"shape2.jpg","You","Nonmatching","Self","Friend","Friend","Close",695,0.695,1,"M"
2001,1,3,"shape2.jpg","Friend","Matching","Friend","Friend","Friend","Close",427,0.427,1,"F"
2001,1,3,"shape3.jpg","Stranger","Matching","Stranger","Stranger","Stranger","Stranger",501,0.501,1,"M"
2001,1,4,"shape2.jpg","Friend","Matching","Friend","Friend","Friend","Close",518,0.518,1,"F"
2001,1,4,"shape3.jpg","Stranger","Matching","Stranger","Stranger","Stranger","Stranger",594,0.594,1,"M"
2001,1,5,"shape1.jpg","Stranger","Nonmatching","Stranger","Self","Self","Self",909,0.909,1,"F"
2001,1,5,"shape3.jpg","You","Nonmatching","Self","Stranger","Stranger","Stranger",527,0.527,1,"M"
2001,1,6,"shape1.jpg","Friend","Nonmatching","Friend","Self","Self","Self",679,0.679,1,"F"
2001,1,6,"shape2.jpg","Stranger","Nonmatching","Stranger","Friend","Friend","Close",411,0.411,1,"M"
2001,1,7,"shape1.jpg","You","Matching","Self","Self","Self","Self",677,0.677,1,"F"
2001,1,7,"shape1.jpg","You","Matching","Self","Self","Self","Self",448,0.448,1,"M"
2001,1,8,"shape1.jpg","You","Matching","Self","Self","Self","Self",428,0.428,1,"F"
2001,1,8,"shape2.jpg","You","Nonmatching","Self","Friend","Friend","Close",440,0.44,1,"M"
2001,1,9,"shape1.jpg","You","Matching","Self","Self","Self","Self",507,0.507,1,"F"
2001,1,9,"shape3.jpg","You","Nonmatching","Self","Stranger","Stranger","Stranger",506,0.506,1,"M"
2001,1,10,"shape3.jpg","You","Nonmatching","Self","Stranger","Stranger","Stranger",736,0.736,1,"F"
2001,1,10,"shape2.jpg","Friend","Matching","Friend","Friend","Friend","Close",576,0.576,1,"M"
2001,1,11,"shape1.jpg","Friend","Nonmatching","Friend","Self","Self","Self",597,0.597,1,"F"
2001,1,11,"shape1.jpg","You","Matching","Self","Self","Self","Self",538,0.538,1,"M"
2001,1,12,"shape1.jpg","Friend","Nonmatching","Friend","Self","Self","Self",547,0.547,1,"F"
2001,1,12,"shape1.jpg","You","Matching","Self","Self","Self","Self",460,0.46,1,"M"
2001,1,13,"shape3.jpg","Stranger","Matching","Stranger","Stranger","Stranger","Stranger",528,0.528,1,"F"
2001,1,13,"shape2.jpg","Friend","Matching","Friend","Friend","Friend","Close",526,0.526,1,"M"
2001,1,14,"shape1.jpg","You","Matching","Self","Self","Self","Self",627,0.627,1,"F"
2001,1,14,"shape2.jpg","Friend","Matching","Friend","Friend","Friend","Close",649,0.649,1,"M"
2001,1,15,"shape2.jpg","Friend","Matching","Friend","Friend","Friend","Close",373,0.373,1,"F"
2001,1,15,"shape3.jpg","Stranger","Matching","Stranger","Stranger","Stranger","Stranger",401,0.401,0,"M"
2001,1,16,"shape2.jpg","Friend","Matching","Friend","Friend","Friend","Close",443,0.443,1,"F"
2001,1,16,"shape2.jpg","Friend","Matching","Friend","Friend","Friend","Close",539,0.539,1,"M"
2001,1,17,"shape3.jpg","Stranger","Matching","Stranger","Stranger","Stranger","Stranger",506,0.506,1,"F"
2001,1,17,"shape1.jpg","You","Matching","Self","Self","Self","Self",400,0.4,1,"M"
2001,1,18,"shape2.jpg","Stranger","Nonmatching","Stranger","Friend","Friend","Close",546,0.546,1,"F"
2001,1,18,"shape1.jpg","Friend","Nonmatching","Friend","Self","Self","Self",1233,1.233,1,"M"
2001,1,19,"shape1.jpg","Friend","Nonmatching","Friend","Self","Self","Self",797,0.797,1,"F"
2001,1,19,"shape1.jpg","Stranger","Nonmatching","Stranger","Self","Self","Self",503,0.503,1,"M"
2001,1,20,"shape2.jpg","Stranger","Nonmatching","Stranger","Friend","Friend","Close",1675,1.675,1,"F"
2001,1,20,"shape3.jpg","Friend","Nonmatching","Friend","Stranger","Stranger","Stranger",688,0.688,1,"M"
2001,1,21,"shape1.jpg","Friend","Nonmatching","Friend","Self","Self","Self",672,0.672,1,"F"
2001,1,21,"shape1.jpg","You","Matching","Self","Self","Self","Self",349,0.349,1,"M"
2001,1,22,"shape2.jpg","You","Nonmatching","Self","Friend","Friend","Close",457,0.457,1,"F"
2001,1,22,"shape3.jpg","Friend","Nonmatching","Friend","Stranger","Stranger","Stranger",574,0.574,1,"M"
2001,1,23,"shape1.jpg","You","Matching","Self","Self","Self","Self",557,0.557,1,"F"
2001,1,23,"shape1.jpg","Friend","Nonmatching","Friend","Self","Self","Self",716,0.716,1,"M"
2001,1,24,"shape2.jpg","You","Nonmatching","Self","Friend","Friend","Close",438,0.438,1,"F"
2001,1,24,"shape1.jpg","Stranger","Nonmatching","Stranger","Self","Self","Self",565,0.565,1,"M"
2001,1,25,"shape3.jpg","Friend","Nonmatching","Friend","Stranger","Stranger","Stranger",431,0.431,1,"F"
2001,1,25,"shape3.jpg","Stranger","Matching","Stranger","Stranger","Stranger","Stranger",642,0.642,1,"M"
2001,1,26,"shape3.jpg","Stranger","Matching","Stranger","Stranger","Stranger","Stranger",650,0.65,1,"F"
2001,1,26,"shape2.jpg","Friend","Matching","Friend","Friend","Friend","Close",566,0.566,1,"M"
2001,1,27,"shape3.jpg","You","Nonmatching","Self","Stranger","Stranger","Stranger",398,0.398,0,"F"
2001,1,27,"shape2.jpg","Stranger","Nonmatching","Stranger","Friend","Friend","Close",446,0.446,1,"M"
2001,1,28,"shape2.jpg","Friend","Matching","Friend","Friend","Friend","Close",373,0.373,1,"F"
2001,1,28,"shape2.jpg","Stranger","Nonmatching","Stranger","Friend","Friend","Close",399,0.399,1,"M"
2001,1,29,"shape3.jpg","Stranger","Matching","Stranger","Stranger","Stranger","Stranger",476,0.476,1,"F"
2001,1,29,"shape1.jpg","You","Matching","Self","Self","Self","Self",513,0.513,1,"M"
2001,1,30,"shape1.jpg","Stranger","Nonmatching","Stranger","Self","Self","Self",500,0.5,1,"F"
2001,1,30,"shape2.jpg","You","Nonmatching","Self","Friend","Friend","Close",577,0.577,1,"M"
2001,1,31,"shape1.jpg","You","Matching","Self","Self","Self","Self",469,0.469,1,"F"
2001,1,31,"shape3.jpg","Friend","Nonmatching","Friend","Stranger","Stranger","Stranger",533,0.533,1,"M"
2001,1,32,"shape3.jpg","Stranger","Matching","Stranger","Stranger","Stranger","Stranger",739,0.739,1,"F"
2001,1,32,"shape2.jpg","Friend","Matching","Friend","Friend","Friend","Close",602,0.602,1,"M"
2001,1,33,"shape3.jpg","You","Nonmatching","Self","Stranger","Stranger","Stranger",642,0.642,1,"F"
2001,1,33,"shape3.jpg","You","Nonmatching","Self","Stranger","Stranger","Stranger",548,0.548,1,"M"
2001,1,34,"shape3.jpg","You","Nonmatching","Self","Stranger","Stranger","Stranger",530,0.53,1,"F"
2001,1,34,"shape3.jpg","Friend","Nonmatching","Friend","Stranger","Stranger","Stranger",626,0.626,1,"M"
2001,1,35,"shape1.jpg","You","Matching","Self","Self","Self","Self",495,0.495,1,"F"
2001,1,35,"shape1.jpg","Friend","Nonmatching","Friend","Self","Self","Self",601,0.601,1,"M"
2001,1,36,"shape3.jpg","Stranger","Matching","Stranger","Stranger","Stranger","Stranger",548,0.548,1,"F"
2001,1,36,"shape2.jpg","Friend","Matching","Friend","Friend","Friend","Close",472,0.472,1,"M"
2001,1,37,"shape2.jpg","Stranger","Nonmatching","Stranger","Friend","Friend","Close",640,0.64,1,"F"
2001,1,37,"shape1.jpg","You","Matching","Self","Self","Self","Self",398,0.398,1,"M"
2001,1,38,"shape2.jpg","Stranger","Nonmatching","Stranger","Friend","Friend","Close",573,0.573,1,"F"
2001,1,38,"shape1.jpg","You","Matching","Self","Self","Self","Self",640,0.64,1,"M"
2001,1,39,"shape1.jpg","You","Matching","Self","Self","Self","Self",524,0.524,1,"F"
2001,1,39,"shape2.jpg","Stranger","Nonmatching","Stranger","Friend","Friend","Close",404,0.404,1,"M"
2001,1,40,"shape3.jpg","Friend","Nonmatching","Friend","Stranger","Stranger","Stranger",504,0.504,1,"F"
2001,1,40,"shape1.jpg","Friend","Nonmatching","Friend","Self","Self","Self",643,0.643,1,"M"
2001,1,41,"shape2.jpg","Friend","Matching","Friend","Friend","Friend","Close",385,0.385,1,"F"
2001,1,41,"shape2.jpg","Stranger","Nonmatching","Stranger","Friend","Friend","Close",391,0.391,1,"M"
2001,1,42,"shape1.jpg","Friend","Nonmatching","Friend","Self","Self","Self",408,0.408,1,"F"
2001,1,42,"shape1.jpg","You","Matching","Self","Self","Self","Self",430,0.43,1,"M"
2001,1,43,"shape3.jpg","Friend","Nonmatching","Friend","Stranger","Stranger","Stranger",699,0.699,1,"F"
2001,1,43,"shape1.jpg","Friend","Nonmatching","Friend","Self","Self","Self",452,0.452,1,"M"
2001,1,44,"shape2.jpg","Stranger","Nonmatching","Stranger","Friend","Friend","Close",631,0.631,1,"F"
2001,1,44,"shape1.jpg","You","Matching","Self","Self","Self","Self",404,0.404,1,"M"
2001,1,45,"shape2.jpg","Stranger","Nonmatching","Stranger","Friend","Friend","Close",684,0.684,1,"F"
2001,1,45,"shape2.jpg","Friend","Matching","Friend","Friend","Friend","Close",511,0.511,1,"M"
2001,1,46,"shape2.jpg","Friend","Matching","Friend","Friend","Friend","Close",371,0.371,1,"F"
2001,1,46,"shape2.jpg","Friend","Matching","Friend","Friend","Friend","Close",607,0.607,1,"M"
2001,1,47,"shape2.jpg","Friend","Matching","Friend","Friend","Friend","Close",350,0.35,1,"F"
2001,1,47,"shape3.jpg","Stranger","Matching","Stranger","Stranger","Stranger","Stranger",850,0.85,1,"M"
2001,1,48,"shape2.jpg","You","Nonmatching","Self","Friend","Friend","Close",588,0.588,1,"F"
2001,1,48,"shape3.jpg","You","Nonmatching","Self","Stranger","Stranger","Stranger",474,0.474,1,"M"
2001,1,49,"shape1.jpg","You","Matching","Self","Self","Self","Self",415,0.415,1,"F"
2001,1,49,"shape1.jpg","Stranger","Nonmatching","Stranger","Self","Self","Self",530,0.53,1,"M"
2001,1,50,"shape1.jpg","You","Matching","Self","Self","Self","Self",469,0.469,1,"F"
2001,1,50,"shape1.jpg","You","Matching","Self","Self","Self","Self",433,0.433,1,"M"
2001,1,51,"shape2.jpg","Friend","Matching","Friend","Friend","Friend","Close",404,0.404,1,"F"
2001,1,51,"shape1.jpg","You","Matching","Self","Self","Self","Self",546,0.546,1,"M"
2001,1,52,"shape2.jpg","You","Nonmatching","Self","Friend","Friend","Close",770,0.77,1,"F"
2001,1,52,"shape1.jpg","Stranger","Nonmatching","Stranger","Self","Self","Self",468,0.468,1,"M"
2001,1,53,"shape1.jpg","You","Matching","Self","Self","Self","Self",372,0.372,1,"F"
2001,1,53,"shape1.jpg","Stranger","Nonmatching","Stranger","Self","Self","Self",442,0.442,1,"M"
2001,1,54,"shape2.jpg","Friend","Matching","Friend","Friend","Friend","Close",336,0.336,1,"F"
2001,1,54,"shape3.jpg","Stranger","Matching","Stranger","Stranger","Stranger","Stranger",501,0.501,1,"M"
2001,1,55,"shape1.jpg","Friend","Nonmatching","Friend","Self","Self","Self",442,0.442,1,"F"
2001,1,55,"shape2.jpg","Friend","Matching","Friend","Friend","Friend","Close",604,0.604,1,"M"
2001,1,56,"shape3.jpg","Stranger","Matching","Stranger","Stranger","Stranger","Stranger",652,0.652,1,"F"
2001,1,56,"shape3.jpg","You","Nonmatching","Self","Stranger","Stranger","Stranger",524,0.524,1,"M"
2001,1,57,"shape2.jpg","Stranger","Nonmatching","Stranger","Friend","Friend","Close",427,0.427,1,"F"
2001,1,57,"shape1.jpg","Friend","Nonmatching","Friend","Self","Self","Self",481,0.481,1,"M"
2001,1,58,"shape3.jpg","You","Nonmatching","Self","Stranger","Stranger","Stranger",450,0.45,1,"F"
2001,1,58,"shape3.jpg","Stranger","Matching","Stranger","Stranger","Stranger","Stranger",476,0.476,1,"M"
2001,1,59,"shape3.jpg","Friend","Nonmatching","Friend","Stranger","Stranger","Stranger",667,0.667,1,"F"
2001,1,59,"shape3.jpg","You","Nonmatching","Self","Stranger","Stranger","Stranger",435,0.435,0,"M"
2001,1,60,"shape3.jpg","Stranger","Matching","Stranger","Stranger","Stranger","Stranger",492,0.492,1,"F"
2001,1,60,"shape3.jpg","Stranger","Matching","Stranger","Stranger","Stranger","Stranger",437,0.437,1,"M"
2001,1,61,"shape3.jpg","Friend","Nonmatching","Friend","Stranger","Stranger","Stranger",638,0.638,1,"F"
2001,1,61,"shape2.jpg","Stranger","Nonmatching","Stranger","Friend","Friend","Close",447,0.447,1,"M"
2001,1,62,"shape3.jpg","Friend","Nonmatching","Friend","Stranger","Stranger","Stranger",507,0.507,1,"F"
2001,1,62,"shape3.jpg","Stranger","Matching","Stranger","Stranger","Stranger","Stranger",390,0.39,1,"M"
2001,1,63,"shape3.jpg","Friend","Nonmatching","Friend","Stranger","Stranger","Stranger",678,0.678,1,"F"
2001,1,63,"shape1.jpg","Stranger","Nonmatching","Stranger","Self","Self","Self",476,0.476,1,"M"
2001,1,64,"shape2.jpg","You","Nonmatching","Self","Friend","Friend","Close",539,0.539,1,"F"
2001,1,64,"shape3.jpg","Stranger","Matching","Stranger","Stranger","Stranger","Stranger",536,0.536,1,"M"
2001,1,65,"shape3.jpg","Stranger","Matching","Stranger","Stranger","Stranger","Stranger",416,0.416,1,"F"
2001,1,65,"shape1.jpg","You","Matching","Self","Self","Self","Self",421,0.421,1,"M"
2001,1,66,"shape3.jpg","Stranger","Matching","Stranger","Stranger","Stranger","Stranger",761,0.761,1,"F"
2001,1,66,"shape1.jpg","You","Matching","Self","Self","Self","Self",337,0.337,1,"M"
2001,1,67,"shape1.jpg","You","Matching","Self","Self","Self","Self",549,0.549,1,"F"
2001,1,67,"shape1.jpg","Stranger","Nonmatching","Stranger","Self","Self","Self",586,0.586,1,"M"
2001,1,68,"shape1.jpg","Stranger","Nonmatching","Stranger","Self","Self","Self",577,0.577,1,"F"
2001,1,68,"shape3.jpg","Friend","Nonmatching","Friend","Stranger","Stranger","Stranger",619,0.619,1,"M"
2001,1,69,"shape3.jpg","Stranger","Matching","Stranger","Stranger","Stranger","Stranger",631,0.631,1,"F"
2001,1,69,"shape2.jpg","Friend","Matching","Friend","Friend","Friend","Close",531,0.531,1,"M"
2001,1,70,"shape2.jpg","Friend","Matching","Friend","Friend","Friend","Close",377,0.377,1,"F"
2001,1,70,"shape3.jpg","Stranger","Matching","Stranger","Stranger","Stranger","Stranger",405,0.405,1,"M"
2001,1,71,"shape3.jpg","You","Nonmatching","Self","Stranger","Stranger","Stranger",629,0.629,1,"F"
2001,1,71,"shape2.jpg","You","Nonmatching","Self","Friend","Friend","Close",662,0.662,1,"M"
2001,1,72,"shape2.jpg","Friend","Matching","Friend","Friend","Friend","Close",454,0.454,1,"F"
2001,1,72,"shape2.jpg","You","Nonmatching","Self","Friend","Friend","Close",479,0.479,1,"M"
2001,1,73,"shape2.jpg","Friend","Matching","Friend","Friend","Friend","Close",349,0.349,1,"F"
2001,1,73,"shape2.jpg","Stranger","Nonmatching","Stranger","Friend","Friend","Close",444,0.444,1,"M"
2001,1,74,"shape2.jpg","Friend","Matching","Friend","Friend","Friend","Close",360,0.36,1,"F"
2001,1,74,"shape2.jpg","You","Nonmatching","Self","Friend","Friend","Close",445,0.445,1,"M"
2001,1,75,"shape2.jpg","You","Nonmatching","Self","Friend","Friend","Close",468,0.468,1,"F"
2001,1,75,"shape2.jpg","Friend","Matching","Friend","Friend","Friend","Close",681,0.681,1,"M"
2001,1,76,"shape1.jpg","Stranger","Nonmatching","Stranger","Self","Self","Self",641,0.641,1,"F"
2001,1,76,"shape2.jpg","You","Nonmatching","Self","Friend","Friend","Close",537,0.537,1,"M"
2001,1,77,"shape1.jpg","Stranger","Nonmatching","Stranger","Self","Self","Self",591,0.591,1,"F"
2001,1,77,"shape3.jpg","Friend","Nonmatching","Friend","Stranger","Stranger","Stranger",585,0.585,1,"M"
2001,1,78,"shape1.jpg","You","Matching","Self","Self","Self","Self",445,0.445,1,"F"
2001,1,78,"shape2.jpg","Friend","Matching","Friend","Friend","Friend","Close",364,0.364,1,"M"
2001,1,79,"shape1.jpg","You","Matching","Self","Self","Self","Self",499,0.499,1,"F"
2001,1,79,"shape3.jpg","Stranger","Matching","Stranger","Stranger","Stranger","Stranger",384,0.384,1,"M"
2001,1,80,"shape3.jpg","You","Nonmatching","Self","Stranger","Stranger","Stranger",508,0.508,1,"F"
2001,1,80,"shape3.jpg","Stranger","Matching","Stranger","Stranger","Stranger","Stranger",343,0.343,1,"M"
2001,1,81,"shape2.jpg","You","Nonmatching","Self","Friend","Friend","Close",491,0.491,1,"F"
2001,1,81,"shape3.jpg","Friend","Nonmatching","Friend","Stranger","Stranger","Stranger",525,0.525,1,"M"
2001,1,82,"shape1.jpg","Stranger","Nonmatching","Stranger","Self","Self","Self",459,0.459,1,"F"
2001,1,82,"shape2.jpg","Friend","Matching","Friend","Friend","Friend","Close",579,0.579,1,"M"
2001,1,83,"shape3.jpg","Stranger","Matching","Stranger","Stranger","Stranger","Stranger",353,0.353,1,"F"
2001,1,83,"shape3.jpg","Stranger","Matching","Stranger","Stranger","Stranger","Stranger",375,0.375,1,"M"
2001,1,84,"shape3.jpg","Stranger","Matching","Stranger","Stranger","Stranger","Stranger",423,0.423,1,"F"
2001,1,84,"shape1.jpg","Friend","Nonmatching","Friend","Self","Self","Self",579,0.579,1,"M"
2001,2,85,"shape2.jpg","You","Nonmatching","Self","Friend","Friend","Close",659,0.659,1,"F"
2001,2,85,"shape2.jpg","Stranger","Nonmatching","Stranger","Friend","Friend","Close",518,0.518,1,"M"
2001,2,86,"shape2.jpg","Friend","Matching","Friend","Friend","Friend","Close",358,0.358,1,"F"
2001,2,86,"shape2.jpg","You","Nonmatching","Self","Friend","Friend","Close",659,0.659,1,"M"
2001,2,87,"shape3.jpg","You","Nonmatching","Self","Stranger","Stranger","Stranger",426,0.426,0,"F"
2001,2,87,"shape3.jpg","Stranger","Matching","Stranger","Stranger","Stranger","Stranger",403,0.403,1,"M"
2001,2,88,"shape1.jpg","You","Matching","Self","Self","Self","Self",568,0.568,1,"F"
2001,2,88,"shape1.jpg","You","Matching","Self","Self","Self","Self",525,0.525,1,"M"
2001,2,89,"shape1.jpg","Friend","Nonmatching","Friend","Self","Self","Self",567,0.567,1,"F"
2001,2,89,"shape3.jpg","Stranger","Matching","Stranger","Stranger","Stranger","Stranger",426,0.426,1,"M"
2001,2,90,"shape1.jpg","You","Matching","Self","Self","Self","Self",536,0.536,1,"F"
2001,2,90,"shape1.jpg","Friend","Nonmatching","Friend","Self","Self","Self",751,0.751,1,"M"
2001,2,91,"shape2.jpg","Friend","Matching","Friend","Friend","Friend","Close",428,0.428,1,"F"
2001,2,91,"shape2.jpg","You","Nonmatching","Self","Friend","Friend","Close",480,0.48,1,"M"
2001,2,92,"shape3.jpg","You","Nonmatching","Self","Stranger","Stranger","Stranger",507,0.507,1,"F"
2001,2,92,"shape3.jpg","Stranger","Matching","Stranger","Stranger","Stranger","Stranger",359,0.359,1,"M"
2001,2,93,"shape1.jpg","You","Matching","Self","Self","Self","Self",460,0.46,1,"F"
2001,2,93,"shape2.jpg","Friend","Matching","Friend","Friend","Friend","Close",470,0.47,1,"M"
2001,2,94,"shape3.jpg","Friend","Nonmatching","Friend","Stranger","Stranger","Stranger",576,0.576,1,"F"
2001,2,94,"shape1.jpg","Friend","Nonmatching","Friend","Self","Self","Self",488,0.488,1,"M"
2001,2,95,"shape2.jpg","You","Nonmatching","Self","Friend","Friend","Close",520,0.52,1,"F"
2001,2,95,"shape1.jpg","Stranger","Nonmatching","Stranger","Self","Self","Self",420,0.42,1,"M"
2001,2,96,"shape3.jpg","Friend","Nonmatching","Friend","Stranger","Stranger","Stranger",684,0.684,1,"F"
2001,2,96,"shape1.jpg","Friend","Nonmatching","Friend","Self","Self","Self",426,0.426,1,"M"
2001,2,97,"shape3.jpg","You","Nonmatching","Self","Stranger","Stranger","Stranger",474,0.474,1,"F"
2001,2,97,"shape3.jpg","You","Nonmatching","Self","Stranger","Stranger","Stranger",467,0.467,1,"M"
2001,2,98,"shape2.jpg","Friend","Matching","Friend","Friend","Friend","Close",787,0.787,1,"F"
2001,2,98,"shape2.jpg","Friend","Matching","Friend","Friend","Friend","Close",550,0.55,1,"M"
2001,2,99,"shape3.jpg","Friend","Nonmatching","Friend","Stranger","Stranger","Stranger",428,0.428,1,"F"
2001,2,99,"shape2.jpg","Stranger","Nonmatching","Stranger","Friend","Friend","Close",423,0.423,1,"M"
2001,2,100,"shape2.jpg","Stranger","Nonmatching","Stranger","Friend","Friend","Close",536,0.536,1,"F"
2001,2,100,"shape2.jpg","Stranger","Nonmatching","Stranger","Friend","Friend","Close",419,0.419,1,"M"
2001,2,101,"shape3.jpg","You","Nonmatching","Self","Stranger","Stranger","Stranger",556,0.556,1,"F"
2001,2,101,"shape3.jpg","Stranger","Matching","Stranger","Stranger","Stranger","Stranger",328,0.328,1,"M"
2001,2,102,"shape1.jpg","Friend","Nonmatching","Friend","Self","Self","Self",618,0.618,1,"F"
2001,2,102,"shape3.jpg","Stranger","Matching","Stranger","Stranger","Stranger","Stranger",415,0.415,1,"M"
2001,2,103,"shape3.jpg","Friend","Nonmatching","Friend","Stranger","Stranger","Stranger",422,0.422,1,"F"
2001,2,103,"shape2.jpg","Stranger","Nonmatching","Stranger","Friend","Friend","Close",366,0.366,1,"M"
2001,2,104,"shape1.jpg","Stranger","Nonmatching","Stranger","Self","Self","Self",558,0.558,1,"F"
2001,2,104,"shape3.jpg","Stranger","Matching","Stranger","Stranger","Stranger","Stranger",404,0.404,1,"M"
2001,2,105,"shape2.jpg","Friend","Matching","Friend","Friend","Friend","Close",388,0.388,1,"F"
2001,2,105,"shape2.jpg","Friend","Matching","Friend","Friend","Friend","Close",533,0.533,1,"M"
2001,2,106,"shape2.jpg","Stranger","Nonmatching","Stranger","Friend","Friend","Close",685,0.685,1,"F"
2001,2,106,"shape2.jpg","Stranger","Nonmatching","Stranger","Friend","Friend","Close",617,0.617,1,"M"
2001,2,107,"shape1.jpg","Stranger","Nonmatching","Stranger","Self","Self","Self",509,0.509,1,"F"
2001,2,107,"shape1.jpg","You","Matching","Self","Self","Self","Self",539,0.539,1,"M"
2001,2,108,"shape2.jpg","You","Nonmatching","Self","Friend","Friend","Close",471,0.471,1,"F"
2001,2,108,"shape2.jpg","Friend","Matching","Friend","Friend","Friend","Close",675,0.675,1,"M"
2001,2,109,"shape2.jpg","Friend","Matching","Friend","Friend","Friend","Close",520,0.52,1,"F"
2001,2,109,"shape3.jpg","You","Nonmatching","Self","Stranger","Stranger","Stranger",507,0.507,1,"M"
2001,2,110,"shape1.jpg","You","Matching","Self","Self","Self","Self",522,0.522,1,"F"
2001,2,110,"shape2.jpg","Friend","Matching","Friend","Friend","Friend","Close",828,0.828,1,"M"
2001,2,111,"shape2.jpg","Friend","Matching","Friend","Friend","Friend","Close",347,0.347,1,"F"
2001,2,111,"shape3.jpg","Friend","Nonmatching","Friend","Stranger","Stranger","Stranger",594,0.594,1,"M"
2001,2,112,"shape2.jpg","Stranger","Nonmatching","Stranger","Friend","Friend","Close",660,0.66,1,"F"
2001,2,112,"shape3.jpg","Stranger","Matching","Stranger","Stranger","Stranger","Stranger",418,0.418,1,"M"
2001,2,113,"shape1.jpg","Friend","Nonmatching","Friend","Self","Self","Self",458,0.458,1,"F"
2001,2,113,"shape3.jpg","You","Nonmatching","Self","Stranger","Stranger","Stranger",470,0.47,1,"M"
2001,2,114,"shape1.jpg","You","Matching","Self","Self","Self","Self",485,0.485,1,"F"
2001,2,114,"shape2.jpg","You","Nonmatching","Self","Friend","Friend","Close",542,0.542,1,"M"
2001,2,115,"shape2.jpg","Friend","Matching","Friend","Friend","Friend","Close",358,0.358,1,"F"
2001,2,115,"shape2.jpg","Friend","Matching","Friend","Friend","Friend","Close",530,0.53,1,"M"
2001,2,116,"shape3.jpg","Stranger","Matching","Stranger","Stranger","Stranger","Stranger",459,0.459,1,"F"
2001,2,116,"shape3.jpg","Stranger","Matching","Stranger","Stranger","Stranger","Stranger",394,0.394,1,"M"
2001,2,117,"shape1.jpg","Stranger","Nonmatching","Stranger","Self","Self","Self",467,0.467,1,"F"
2001,2,117,"shape1.jpg","You","Matching","Self","Self","Self","Self",495,0.495,1,"M"
2001,2,118,"shape3.jpg","Friend","Nonmatching","Friend","Stranger","Stranger","Stranger",473,0.473,1,"F"
2001,2,118,"shape1.jpg","Friend","Nonmatching","Friend","Self","Self","Self",457,0.457,1,"M"
2001,2,119,"shape2.jpg","You","Nonmatching","Self","Friend","Friend","Close",407,0.407,1,"F"
2001,2,119,"shape2.jpg","Stranger","Nonmatching","Stranger","Friend","Friend","Close",418,0.418,1,"M"
2001,2,120,"shape2.jpg","Stranger","Nonmatching","Stranger","Friend","Friend","Close",472,0.472,1,"F"
2001,2,120,"shape1.jpg","You","Matching","Self","Self","Self","Self",477,0.477,1,"M"
2001,2,121,"shape1.jpg","You","Matching","Self","Self","Self","Self",477,0.477,1,"F"
2001,2,121,"shape2.jpg","Friend","Matching","Friend","Friend","Friend","Close",585,0.585,1,"M"
2001,2,122,"shape1.jpg","You","Matching","Self","Self","Self","Self",440,0.44,1,"F"
2001,2,122,"shape1.jpg","Friend","Nonmatching","Friend","Self","Self","Self",625,0.625,1,"M"
2001,2,123,"shape2.jpg","You","Nonmatching","Self","Friend","Friend","Close",403,0.403,1,"F"
2001,2,123,"shape2.jpg","Friend","Matching","Friend","Friend","Friend","Close",735,0.735,1,"M"
2001,2,124,"shape1.jpg","You","Matching","Self","Self","Self","Self",346,0.346,1,"F"
2001,2,124,"shape1.jpg","Stranger","Nonmatching","Stranger","Self","Self","Self",553,0.553,1,"M"
2001,2,125,"shape2.jpg","You","Nonmatching","Self","Friend","Friend","Close",437,0.437,1,"F"
2001,2,125,"shape1.jpg","You","Matching","Self","Self","Self","Self",480,0.48,1,"M"
2001,2,126,"shape3.jpg","You","Nonmatching","Self","Stranger","Stranger","Stranger",495,0.495,1,"F"
2001,2,126,"shape3.jpg","Friend","Nonmatching","Friend","Stranger","Stranger","Stranger",635,0.635,1,"M"
2001,2,127,"shape2.jpg","Stranger","Nonmatching","Stranger","Friend","Friend","Close",481,0.481,1,"F"
2001,2,127,"shape3.jpg","Stranger","Matching","Stranger","Stranger","Stranger","Stranger",524,0.524,1,"M"
2001,2,128,"shape3.jpg","Stranger","Matching","Stranger","Stranger","Stranger","Stranger",579,0.579,1,"F"
2001,2,128,"shape1.jpg","Stranger","Nonmatching","Stranger","Self","Self","Self",389,0.389,1,"M"
2001,2,129,"shape1.jpg","You","Matching","Self","Self","Self","Self",457,0.457,1,"F"
2001,2,129,"shape1.jpg","Stranger","Nonmatching","Stranger","Self","Self","Self",694,0.694,1,"M"
2001,2,130,"shape2.jpg","Friend","Matching","Friend","Friend","Friend","Close",401,0.401,1,"F"
2001,2,130,"shape1.jpg","Stranger","Nonmatching","Stranger","Self","Self","Self",405,0.405,1,"M"
2001,2,131,"shape1.jpg","You","Matching","Self","Self","Self","Self",527,0.527,1,"F"
2001,2,131,"shape2.jpg","Friend","Matching","Friend","Friend","Friend","Close",614,0.614,1,"M"
2001,2,132,"shape3.jpg","Stranger","Matching","Stranger","Stranger","Stranger","Stranger",517,0.517,1,"F"
2001,2,132,"shape3.jpg","Stranger","Matching","Stranger","Stranger","Stranger","Stranger",502,0.502,1,"M"
2001,2,133,"shape2.jpg","Friend","Matching","Friend","Friend","Friend","Close",527,0.527,1,"F"
2001,2,133,"shape3.jpg","You","Nonmatching","Self","Stranger","Stranger","Stranger",439,0.439,1,"M"
2001,2,134,"shape3.jpg","Stranger","Matching","Stranger","Stranger","Stranger","Stranger",407,0.407,1,"F"
2001,2,134,"shape3.jpg","Stranger","Matching","Stranger","Stranger","Stranger","Stranger",585,0.585,1,"M"
2001,2,135,"shape1.jpg","Friend","Nonmatching","Friend","Self","Self","Self",592,0.592,1,"F"
2001,2,135,"shape1.jpg","Friend","Nonmatching","Friend","Self","Self","Self",778,0.778,1,"M"
2001,2,136,"shape3.jpg","You","Nonmatching","Self","Stranger","Stranger","Stranger",442,0.442,1,"F"
2001,2,136,"shape3.jpg","Friend","Nonmatching","Friend","Stranger","Stranger","Stranger",480,0.48,1,"M"
2001,2,137,"shape2.jpg","Friend","Matching","Friend","Friend","Friend","Close",549,0.549,1,"F"
2001,2,137,"shape3.jpg","Friend","Nonmatching","Friend","Stranger","Stranger","Stranger",437,0.437,1,"M"
2001,2,138,"shape1.jpg","Friend","Nonmatching","Friend","Self","Self","Self",384,0.384,1,"F"
2001,2,138,"shape1.jpg","You","Matching","Self","Self","Self","Self",402,0.402,1,"M"
2001,2,139,"shape3.jpg","Stranger","Matching","Stranger","Stranger","Stranger","Stranger",451,0.451,1,"F"
2001,2,139,"shape3.jpg","Stranger","Matching","Stranger","Stranger","Stranger","Stranger",844,0.844,1,"M"
2001,2,140,"shape1.jpg","Friend","Nonmatching","Friend","Self","Self","Self",405,0.405,1,"F"
2001,2,140,"shape1.jpg","You","Matching","Self","Self","Self","Self",582,0.582,1,"M"
2001,2,141,"shape1.jpg","You","Matching","Self","Self","Self","Self",342,0.342,1,"F"
2001,2,141,"shape2.jpg","Friend","Matching","Friend","Friend","Friend","Close",533,0.533,1,"M"
2001,2,142,"shape3.jpg","Stranger","Matching","Stranger","Stranger","Stranger","Stranger",603,0.603,1,"F"
2001,2,142,"shape3.jpg","Friend","Nonmatching","Friend","Stranger","Stranger","Stranger",445,0.445,1,"M"
2001,2,143,"shape2.jpg","You","Nonmatching","Self","Friend","Friend","Close",378,0.378,1,"F"
2001,2,143,"shape3.jpg","You","Nonmatching","Self","Stranger","Stranger","Stranger",625,0.625,1,"M"
2001,2,144,"shape1.jpg","You","Matching","Self","Self","Self","Self",433,0.433,1,"F"
2001,2,144,"shape1.jpg","You","Matching","Self","Self","Self","Self",393,0.393,1,"M"
2001,2,145,"shape2.jpg","Friend","Matching","Friend","Friend","Friend","Close",338,0.338,1,"F"
2001,2,145,"shape3.jpg","Friend","Nonmatching","Friend","Stranger","Stranger","Stranger",535,0.535,1,"M"
2001,2,146,"shape2.jpg","Friend","Matching","Friend","Friend","Friend","Close",323,0.323,1,"F"
2001,2,146,"shape2.jpg","Friend","Matching","Friend","Friend","Friend","Close",481,0.481,1,"M"
2001,2,147,"shape1.jpg","Stranger","Nonmatching","Stranger","Self","Self","Self",559,0.559,1,"F"
2001,2,147,"shape2.jpg","You","Nonmatching","Self","Friend","Friend","Close",456,0.456,1,"M"
2001,2,148,"shape3.jpg","Stranger","Matching","Stranger","Stranger","Stranger","Stranger",600,0.6,1,"F"
2001,2,148,"shape3.jpg","Stranger","Matching","Stranger","Stranger","Stranger","Stranger",407,0.407,1,"M"
2001,2,149,"shape3.jpg","Stranger","Matching","Stranger","Stranger","Stranger","Stranger",342,0.342,1,"F"
2001,2,149,"shape2.jpg","Friend","Matching","Friend","Friend","Friend","Close",440,0.44,1,"M"
2001,2,150,"shape3.jpg","Stranger","Matching","Stranger","Stranger","Stranger","Stranger",309,0.309,1,"F"
2001,2,150,"shape1.jpg","You","Matching","Self","Self","Self","Self",977,0.977,1,"M"
2001,2,151,"shape2.jpg","Stranger","Nonmatching","Stranger","Friend","Friend","Close",461,0.461,1,"F"
2001,2,151,"shape1.jpg","You","Matching","Self","Self","Self","Self",348,0.348,1,"M"
2001,2,152,"shape1.jpg","Stranger","Nonmatching","Stranger","Self","Self","Self",634,0.634,1,"F"
2001,2,152,"shape3.jpg","Stranger","Matching","Stranger","Stranger","Stranger","Stranger",661,0.661,1,"M"
2001,2,153,"shape3.jpg","Friend","Nonmatching","Friend","Stranger","Stranger","Stranger",411,0.411,1,"F"
2001,2,153,"shape1.jpg","Stranger","Nonmatching","Stranger","Self","Self","Self",432,0.432,1,"M"
2001,2,154,"shape3.jpg","Stranger","Matching","Stranger","Stranger","Stranger","Stranger",495,0.495,1,"F"
2001,2,154,"shape3.jpg","You","Nonmatching","Self","Stranger","Stranger","Stranger",477,0.477,1,"M"
2001,2,155,"shape3.jpg","Stranger","Matching","Stranger","Stranger","Stranger","Stranger",489,0.489,1,"F"
2001,2,155,"shape1.jpg","You","Matching","Self","Self","Self","Self",422,0.422,1,"M"
2001,2,156,"shape1.jpg","You","Matching","Self","Self","Self","Self",558,0.558,1,"F"
2001,2,156,"shape2.jpg","You","Nonmatching","Self","Friend","Friend","Close",528,0.528,1,"M"
2001,2,157,"shape3.jpg","Stranger","Matching","Stranger","Stranger","Stranger","Stranger",556,0.556,1,"F"
2001,2,157,"shape1.jpg","You","Matching","Self","Self","Self","Self",434,0.434,1,"M"
2001,2,158,"shape3.jpg","Stranger","Matching","Stranger","Stranger","Stranger","Stranger",420,0.42,1,"F"
2001,2,158,"shape2.jpg","You","Nonmatching","Self","Friend","Friend","Close",525,0.525,1,"M"
2001,2,159,"shape3.jpg","You","Nonmatching","Self","Stranger","Stranger","Stranger",745,0.745,1,"F"
2001,2,159,"shape2.jpg","Stranger","Nonmatching","Stranger","Friend","Friend","Close",1194,1.194,1,"M"
2001,2,160,"shape1.jpg","Friend","Nonmatching","Friend","Self","Self","Self",610,0.61,1,"F"
2001,2,160,"shape2.jpg","Friend","Matching","Friend","Friend","Friend","Close",507,0.507,1,"M"
2001,2,161,"shape2.jpg","Stranger","Nonmatching","Stranger","Friend","Friend","Close",626,0.626,1,"F"
2001,2,161,"shape1.jpg","You","Matching","Self","Self","Self","Self",538,0.538,1,"M"
2001,2,162,"shape3.jpg","Stranger","Matching","Stranger","Stranger","Stranger","Stranger",447,0.447,1,"F"
2001,2,162,"shape1.jpg","Stranger","Nonmatching","Stranger","Self","Self","Self",423,0.423,1,"M"
2001,2,163,"shape1.jpg","Stranger","Nonmatching","Stranger","Self","Self","Self",635,0.635,1,"F"
2001,2,163,"shape2.jpg","You","Nonmatching","Self","Friend","Friend","Close",518,0.518,1,"M"
2001,2,164,"shape3.jpg","Friend","Nonmatching","Friend","Stranger","Stranger","Stranger",416,0.416,1,"F"
2001,2,164,"shape2.jpg","Friend","Matching","Friend","Friend","Friend","Close",350,0.35,1,"M"
2001,2,165,"shape2.jpg","Friend","Matching","Friend","Friend","Friend","Close",387,0.387,1,"F"
2001,2,165,"shape3.jpg","You","Nonmatching","Self","Stranger","Stranger","Stranger",580,0.58,1,"M"
2001,2,166,"shape2.jpg","Friend","Matching","Friend","Friend","Friend","Close",484,0.484,1,"F"
2001,2,166,"shape3.jpg","Friend","Nonmatching","Friend","Stranger","Stranger","Stranger",543,0.543,1,"M"
2001,2,167,"shape1.jpg","You","Matching","Self","Self","Self","Self",548,0.548,1,"F"
2001,2,167,"shape1.jpg","Friend","Nonmatching","Friend","Self","Self","Self",637,0.637,1,"M"
2001,2,168,"shape1.jpg","Stranger","Nonmatching","Stranger","Self","Self","Self",588,0.588,1,"F"
2001,2,168,"shape1.jpg","You","Matching","Self","Self","Self","Self",472,0.472,1,"M"
2001,3,169,"shape1.jpg","You","Matching","Self","Self","Self","Self",397,0.397,1,"F"
2001,3,169,"shape2.jpg","You","Nonmatching","Self","Friend","Friend","Close",586,0.586,1,"M"
2001,3,170,"shape3.jpg","Stranger","Matching","Stranger","Stranger","Stranger","Stranger",381,0.381,1,"F"
2001,3,170,"shape3.jpg","Friend","Nonmatching","Friend","Stranger","Stranger","Stranger",501,0.501,1,"M"
2001,3,171,"shape3.jpg","You","Nonmatching","Self","Stranger","Stranger","Stranger",340,0.34,0,"F"
2001,3,171,"shape1.jpg","Friend","Nonmatching","Friend","Self","Self","Self",512,0.512,1,"M"
2001,3,172,"shape2.jpg","You","Nonmatching","Self","Friend","Friend","Close",564,0.564,1,"F"
2001,3,172,"shape2.jpg","Stranger","Nonmatching","Stranger","Friend","Friend","Close",497,0.497,1,"M"
2001,3,173,"shape1.jpg","Friend","Nonmatching","Friend","Self","Self","Self",572,0.572,1,"F"
2001,3,173,"shape1.jpg","You","Matching","Self","Self","Self","Self",370,0.37,1,"M"
2001,3,174,"shape3.jpg","Stranger","Matching","Stranger","Stranger","Stranger","Stranger",358,0.358,1,"F"
2001,3,174,"shape3.jpg","Stranger","Matching","Stranger","Stranger","Stranger","Stranger",616,0.616,1,"M"
2001,3,175,"shape3.jpg","You","Nonmatching","Self","Stranger","Stranger","Stranger",592,0.592,1,"F"
2001,3,175,"shape1.jpg","Stranger","Nonmatching","Stranger","Self","Self","Self",500,0.5,1,"M"
2001,3,176,"shape2.jpg","Friend","Matching","Friend","Friend","Friend","Close",433,0.433,1,"F"
2001,3,176,"shape3.jpg","Stranger","Matching","Stranger","Stranger","Stranger","Stranger",350,0.35,1,"M"
2001,3,177,"shape3.jpg","Friend","Nonmatching","Friend","Stranger","Stranger","Stranger",409,0.409,1,"F"
2001,3,177,"shape3.jpg","You","Nonmatching","Self","Stranger","Stranger","Stranger",578,0.578,1,"M"
2001,3,178,"shape2.jpg","You","Nonmatching","Self","Friend","Friend","Close",428,0.428,1,"F"
2001,3,178,"shape2.jpg","Stranger","Nonmatching","Stranger","Friend","Friend","Close",389,0.389,1,"M"
2001,3,179,"shape1.jpg","You","Matching","Self","Self","Self","Self",378,0.378,1,"F"
2001,3,179,"shape2.jpg","Friend","Matching","Friend","Friend","Friend","Close",320,0.32,1,"M"
2001,3,180,"shape3.jpg","Stranger","Matching","Stranger","Stranger","Stranger","Stranger",605,0.605,1,"F"
2001,3,180,"shape3.jpg","Stranger","Matching","Stranger","Stranger","Stranger","Stranger",433,0.433,1,"M"
2001,3,181,"shape3.jpg","Stranger","Matching","Stranger","Stranger","Stranger","Stranger",318,0.318,1,"F"
2001,3,181,"shape2.jpg","Friend","Matching","Friend","Friend","Friend","Close",351,0.351,1,"M"
2001,3,182,"shape2.jpg","Friend","Matching","Friend","Friend","Friend","Close",678,0.678,1,"F"
2001,3,182,"shape2.jpg","Friend","Matching","Friend","Friend","Friend","Close",409,0.409,1,"M"
2001,3,183,"shape1.jpg","You","Matching","Self","Self","Self","Self",632,0.632,1,"F"
2001,3,183,"shape1.jpg","Stranger","Nonmatching","Stranger","Self","Self","Self",432,0.432,1,"M"
2001,3,184,"shape3.jpg","Stranger","Matching","Stranger","Stranger","Stranger","Stranger",497,0.497,1,"F"
2001,3,184,"shape3.jpg","Stranger","Matching","Stranger","Stranger","Stranger","Stranger",430,0.43,1,"M"
2001,3,185,"shape2.jpg","You","Nonmatching","Self","Friend","Friend","Close",452,0.452,1,"F"
2001,3,185,"shape2.jpg","You","Nonmatching","Self","Friend","Friend","Close",394,0.394,0,"M"
2001,3,186,"shape2.jpg","You","Nonmatching","Self","Friend","Friend","Close",629,0.629,1,"F"
2001,3,186,"shape1.jpg","You","Matching","Self","Self","Self","Self",431,0.431,1,"M"
2001,3,187,"shape3.jpg","You","Nonmatching","Self","Stranger","Stranger","Stranger",540,0.54,1,"F"
2001,3,187,"shape1.jpg","Stranger","Nonmatching","Stranger","Self","Self","Self",615,0.615,1,"M"
2001,3,188,"shape2.jpg","Friend","Matching","Friend","Friend","Friend","Close",406,0.406,1,"F"
2001,3,188,"shape1.jpg","Friend","Nonmatching","Friend","Self","Self","Self",476,0.476,1,"M"
2001,3,189,"shape1.jpg","You","Matching","Self","Self","Self","Self",540,0.54,1,"F"
2001,3,189,"shape2.jpg","You","Nonmatching","Self","Friend","Friend","Close",536,0.536,1,"M"
2001,3,190,"shape2.jpg","Friend","Matching","Friend","Friend","Friend","Close",583,0.583,1,"F"
2001,3,190,"shape2.jpg","You","Nonmatching","Self","Friend","Friend","Close",463,0.463,1,"M"
2001,3,191,"shape3.jpg","You","Nonmatching","Self","Stranger","Stranger","Stranger",506,0.506,1,"F"
2001,3,191,"shape3.jpg","Stranger","Matching","Stranger","Stranger","Stranger","Stranger",383,0.383,1,"M"
2001,3,192,"shape2.jpg","Friend","Matching","Friend","Friend","Friend","Close",459,0.459,1,"F"
2001,3,192,"shape3.jpg","Friend","Nonmatching","Friend","Stranger","Stranger","Stranger",1362,1.362,1,"M"
2001,3,193,"shape1.jpg","Friend","Nonmatching","Friend","Self","Self","Self",429,0.429,1,"F"
2001,3,193,"shape1.jpg","You","Matching","Self","Self","Self","Self",610,0.61,1,"M"
2001,3,194,"shape3.jpg","Stranger","Matching","Stranger","Stranger","Stranger","Stranger",399,0.399,1,"F"
2001,3,194,"shape2.jpg","You","Nonmatching","Self","Friend","Friend","Close",469,0.469,1,"M"
2001,3,195,"shape3.jpg","Stranger","Matching","Stranger","Stranger","Stranger","Stranger",367,0.367,1,"F"
2001,3,195,"shape3.jpg","Stranger","Matching","Stranger","Stranger","Stranger","Stranger",510,0.51,1,"M"
2001,3,196,"shape3.jpg","Stranger","Matching","Stranger","Stranger","Stranger","Stranger",348,0.348,1,"F"
2001,3,196,"shape1.jpg","Stranger","Nonmatching","Stranger","Self","Self","Self",426,0.426,1,"M"
2001,3,197,"shape1.jpg","Friend","Nonmatching","Friend","Self","Self","Self",440,0.44,1,"F"
2001,3,197,"shape2.jpg","Friend","Matching","Friend","Friend","Friend","Close",465,0.465,1,"M"
2001,3,198,"shape2.jpg","Stranger","Nonmatching","Stranger","Friend","Friend","Close",781,0.781,1,"F"
2001,3,198,"shape3.jpg","Friend","Nonmatching","Friend","Stranger","Stranger","Stranger",410,0.41,1,"M"
2001,3,199,"shape3.jpg","You","Nonmatching","Self","Stranger","Stranger","Stranger",556,0.556,1,"F"
2001,3,199,"shape3.jpg","Friend","Nonmatching","Friend","Stranger","Stranger","Stranger",454,0.454,1,"M"
2001,3,200,"shape1.jpg","Friend","Nonmatching","Friend","Self","Self","Self",635,0.635,1,"F"
2001,3,200,"shape2.jpg","You","Nonmatching","Self","Friend","Friend","Close",632,0.632,1,"M"
2001,3,201,"shape1.jpg","You","Matching","Self","Self","Self","Self",697,0.697,1,"F"
2001,3,201,"shape1.jpg","You","Matching","Self","Self","Self","Self",616,0.616,1,"M"
2001,3,202,"shape2.jpg","Stranger","Nonmatching","Stranger","Friend","Friend","Close",889,0.889,1,"F"
2001,3,202,"shape1.jpg","Friend","Nonmatching","Friend","Self","Self","Self",516,0.516,1,"M"
2001,3,203,"shape2.jpg","Friend","Matching","Friend","Friend","Friend","Close",584,0.584,1,"F"
2001,3,203,"shape1.jpg","Friend","Nonmatching","Friend","Self","Self","Self",488,0.488,1,"M"
2001,3,204,"shape1.jpg","You","Matching","Self","Self","Self","Self",455,0.455,1,"F"
2001,3,204,"shape3.jpg","Stranger","Matching","Stranger","Stranger","Stranger","Stranger",406,0.406,1,"M"
2001,3,205,"shape1.jpg","Friend","Nonmatching","Friend","Self","Self","Self",588,0.588,1,"F"
2001,3,205,"shape2.jpg","Friend","Matching","Friend","Friend","Friend","Close",456,0.456,1,"M"
2001,3,206,"shape3.jpg","Stranger","Matching","Stranger","Stranger","Stranger","Stranger",585,0.585,1,"F"
2001,3,206,"shape2.jpg","Friend","Matching","Friend","Friend","Friend","Close",539,0.539,1,"M"
2001,3,207,"shape3.jpg","You","Nonmatching","Self","Stranger","Stranger","Stranger",476,0.476,1,"F"
2001,3,207,"shape1.jpg","You","Matching","Self","Self","Self","Self",495,0.495,1,"M"
2001,3,208,"shape3.jpg","Stranger","Matching","Stranger","Stranger","Stranger","Stranger",374,0.374,1,"F"
2001,3,208,"shape1.jpg","Stranger","Nonmatching","Stranger","Self","Self","Self",607,0.607,1,"M"
2001,3,209,"shape1.jpg","Stranger","Nonmatching","Stranger","Self","Self","Self",503,0.503,1,"F"
2001,3,209,"shape3.jpg","Friend","Nonmatching","Friend","Stranger","Stranger","Stranger",511,0.511,1,"M"
2001,3,210,"shape1.jpg","You","Matching","Self","Self","Self","Self",338,0.338,1,"F"
2001,3,210,"shape3.jpg","You","Nonmatching","Self","Stranger","Stranger","Stranger",485,0.485,1,"M"
2001,3,211,"shape1.jpg","You","Matching","Self","Self","Self","Self",621,0.621,1,"F"
2001,3,211,"shape2.jpg","Friend","Matching","Friend","Friend","Friend","Close",479,0.479,1,"M"
2001,3,212,"shape1.jpg","Stranger","Nonmatching","Stranger","Self","Self","Self",1433,1.433,1,"F"
2001,3,212,"shape3.jpg","You","Nonmatching","Self","Stranger","Stranger","Stranger",447,0.447,1,"M"
2001,3,213,"shape2.jpg","Friend","Matching","Friend","Friend","Friend","Close",518,0.518,1,"F"
2001,3,213,"shape1.jpg","You","Matching","Self","Self","Self","Self",449,0.449,1,"M"
2001,3,214,"shape2.jpg","You","Nonmatching","Self","Friend","Friend","Close",618,0.618,1,"F"
2001,3,214,"shape2.jpg","Friend","Matching","Friend","Friend","Friend","Close",394,0.394,1,"M"
2001,3,215,"shape2.jpg","Friend","Matching","Friend","Friend","Friend","Close",403,0.403,1,"F"
2001,3,215,"shape3.jpg","Friend","Nonmatching","Friend","Stranger","Stranger","Stranger",418,0.418,1,"M"
2001,3,216,"shape3.jpg","Friend","Nonmatching","Friend","Stranger","Stranger","Stranger",513,0.513,1,"F"
2001,3,216,"shape3.jpg","Stranger","Matching","Stranger","Stranger","Stranger","Stranger",625,0.625,1,"M"
2001,3,217,"shape3.jpg","Friend","Nonmatching","Friend","Stranger","Stranger","Stranger",479,0.479,1,"F"
2001,3,217,"shape2.jpg","Friend","Matching","Friend","Friend","Friend","Close",540,0.54,1,"M"
2001,3,218,"shape2.jpg","Friend","Matching","Friend","Friend","Friend","Close",359,0.359,1,"F"
2001,3,218,"shape3.jpg","Stranger","Matching","Stranger","Stranger","Stranger","Stranger",448,0.448,1,"M"
2001,3,219,"shape3.jpg","You","Nonmatching","Self","Stranger","Stranger","Stranger",619,0.619,1,"F"
2001,3,219,"shape3.jpg","Friend","Nonmatching","Friend","Stranger","Stranger","Stranger",450,0.45,1,"M"
2001,3,220,"shape2.jpg","Stranger","Nonmatching","Stranger","Friend","Friend","Close",543,0.543,1,"F"
2001,3,220,"shape3.jpg","Stranger","Matching","Stranger","Stranger","Stranger","Stranger",676,0.676,1,"M"
2001,3,221,"shape3.jpg","Stranger","Matching","Stranger","Stranger","Stranger","Stranger",482,0.482,1,"F"
2001,3,221,"shape3.jpg","You","Nonmatching","Self","Stranger","Stranger","Stranger",499,0.499,1,"M"
2001,3,222,"shape3.jpg","Friend","Nonmatching","Friend","Stranger","Stranger","Stranger",855,0.855,1,"F"
2001,3,222,"shape2.jpg","Friend","Matching","Friend","Friend","Friend","Close",410,0.41,1,"M"
2001,3,223,"shape1.jpg","Friend","Nonmatching","Friend","Self","Self","Self",891,0.891,1,"F"
2001,3,223,"shape3.jpg","You","Nonmatching","Self","Stranger","Stranger","Stranger",468,0.468,1,"M"
2001,3,224,"shape3.jpg","Stranger","Matching","Stranger","Stranger","Stranger","Stranger",481,0.481,1,"F"
2001,3,224,"shape2.jpg","Stranger","Nonmatching","Stranger","Friend","Friend","Close",456,0.456,1,"M"
2001,3,225,"shape1.jpg","You","Matching","Self","Self","Self","Self",499,0.499,1,"F"
2001,3,225,"shape1.jpg","Friend","Nonmatching","Friend","Self","Self","Self",475,0.475,1,"M"
2001,3,226,"shape1.jpg","You","Matching","Self","Self","Self","Self",595,0.595,1,"F"
2001,3,226,"shape2.jpg","Friend","Matching","Friend","Friend","Friend","Close",370,0.37,1,"M"
2001,3,227,"shape1.jpg","You","Matching","Self","Self","Self","Self",507,0.507,1,"F"
2001,3,227,"shape3.jpg","You","Nonmatching","Self","Stranger","Stranger","Stranger",464,0.464,1,"M"
2001,3,228,"shape3.jpg","Friend","Nonmatching","Friend","Stranger","Stranger","Stranger",481,0.481,1,"F"
2001,3,228,"shape3.jpg","Stranger","Matching","Stranger","Stranger","Stranger","Stranger",379,0.379,1,"M"
2001,3,229,"shape2.jpg","Friend","Matching","Friend","Friend","Friend","Close",339,0.339,1,"F"
2001,3,229,"shape1.jpg","You","Matching","Self","Self","Self","Self",392,0.392,1,"M"
2001,3,230,"shape1.jpg","Stranger","Nonmatching","Stranger","Self","Self","Self",794,0.794,1,"F"
2001,3,230,"shape1.jpg","Stranger","Nonmatching","Stranger","Self","Self","Self",549,0.549,1,"M"
2001,3,231,"shape3.jpg","Friend","Nonmatching","Friend","Stranger","Stranger","Stranger",455,0.455,1,"F"
2001,3,231,"shape1.jpg","You","Matching","Self","Self","Self","Self",381,0.381,1,"M"
2001,3,232,"shape2.jpg","You","Nonmatching","Self","Friend","Friend","Close",539,0.539,1,"F"
2001,3,232,"shape2.jpg","Stranger","Nonmatching","Stranger","Friend","Friend","Close",448,0.448,1,"M"
2001,3,233,"shape2.jpg","Stranger","Nonmatching","Stranger","Friend","Friend","Close",528,0.528,1,"F"
2001,3,233,"shape3.jpg","Stranger","Matching","Stranger","Stranger","Stranger","Stranger",440,0.44,1,"M"
2001,3,234,"shape2.jpg","You","Nonmatching","Self","Friend","Friend","Close",459,0.459,1,"F"
2001,3,234,"shape1.jpg","You","Matching","Self","Self","Self","Self",402,0.402,1,"M"
2001,3,235,"shape1.jpg","You","Matching","Self","Self","Self","Self",483,0.483,1,"F"
2001,3,235,"shape2.jpg","Friend","Matching","Friend","Friend","Friend","Close",343,0.343,1,"M"
2001,3,236,"shape2.jpg","Stranger","Nonmatching","Stranger","Friend","Friend","Close",789,0.789,1,"F"
2001,3,236,"shape3.jpg","Stranger","Matching","Stranger","Stranger","Stranger","Stranger",427,0.427,0,"M"
2001,3,237,"shape1.jpg","Stranger","Nonmatching","Stranger","Self","Self","Self",695,0.695,1,"F"
2001,3,237,"shape2.jpg","Friend","Matching","Friend","Friend","Friend","Close",527,0.527,1,"M"
2001,3,238,"shape1.jpg","Stranger","Nonmatching","Stranger","Self","Self","Self",544,0.544,1,"F"
2001,3,238,"shape2.jpg","Stranger","Nonmatching","Stranger","Friend","Friend","Close",1252,1.252,1,"M"
2001,3,239,"shape1.jpg","Stranger","Nonmatching","Stranger","Self","Self","Self",576,0.576,1,"F"
2001,3,239,"shape1.jpg","You","Matching","Self","Self","Self","Self",556,0.556,1,"M"
2001,3,240,"shape2.jpg","Stranger","Nonmatching","Stranger","Friend","Friend","Close",855,0.855,1,"F"
2001,3,240,"shape2.jpg","Stranger","Nonmatching","Stranger","Friend","Friend","Close",816,0.816,1,"M"
2001,3,241,"shape1.jpg","Friend","Nonmatching","Friend","Self","Self","Self",499,0.499,1,"F"
2001,3,241,"shape2.jpg","You","Nonmatching","Self","Friend","Friend","Close",532,0.532,1,"M"
2001,3,242,"shape3.jpg","Stranger","Matching","Stranger","Stranger","Stranger","Stranger",474,0.474,1,"F"
2001,3,242,"shape1.jpg","You","Matching","Self","Self","Self","Self",384,0.384,1,"M"
2001,3,243,"shape2.jpg","Stranger","Nonmatching","Stranger","Friend","Friend","Close",508,0.508,1,"F"
2001,3,243,"shape1.jpg","Friend","Nonmatching","Friend","Self","Self","Self",950,0.95,1,"M"
2001,3,244,"shape2.jpg","Friend","Matching","Friend","Friend","Friend","Close",406,0.406,1,"F"
2001,3,244,"shape1.jpg","Stranger","Nonmatching","Stranger","Self","Self","Self",429,0.429,1,"M"
2001,3,245,"shape3.jpg","Stranger","Matching","Stranger","Stranger","Stranger","Stranger",452,0.452,1,"F"
2001,3,245,"shape1.jpg","You","Matching","Self","Self","Self","Self",381,0.381,1,"M"
2001,3,246,"shape1.jpg","You","Matching","Self","Self","Self","Self",372,0.372,1,"F"
2001,3,246,"shape1.jpg","You","Matching","Self","Self","Self","Self",350,0.35,1,"M"
2001,3,247,"shape1.jpg","You","Matching","Self","Self","Self","Self",399,0.399,1,"F"
2001,3,247,"shape3.jpg","You","Nonmatching","Self","Stranger","Stranger","Stranger",529,0.529,1,"M"
2001,3,248,"shape3.jpg","Friend","Nonmatching","Friend","Stranger","Stranger","Stranger",752,0.752,1,"F"
2001,3,248,"shape2.jpg","Friend","Matching","Friend","Friend","Friend","Close",484,0.484,1,"M"
2001,3,249,"shape2.jpg","Friend","Matching","Friend","Friend","Friend","Close",945,0.945,1,"F"
2001,3,249,"shape2.jpg","Stranger","Nonmatching","Stranger","Friend","Friend","Close",502,0.502,1,"M"
2001,3,250,"shape2.jpg","Friend","Matching","Friend","Friend","Friend","Close",620,0.62,1,"F"
2001,3,250,"shape1.jpg","Friend","Nonmatching","Friend","Self","Self","Self",481,0.481,1,"M"
2001,3,251,"shape1.jpg","Stranger","Nonmatching","Stranger","Self","Self","Self",509,0.509,1,"F"
2001,3,251,"shape3.jpg","Stranger","Matching","Stranger","Stranger","Stranger","Stranger",332,0.332,1,"M"
2001,3,252,"shape2.jpg","Friend","Matching","Friend","Friend","Friend","Close",394,0.394,1,"F"
2001,3,252,"shape1.jpg","You","Matching","Self","Self","Self","Self",600,0.6,1,"M"
2001,4,253,"shape1.jpg","You","Matching","Self","Self","Self","Self",590,0.59,1,"F"
2001,4,253,"shape3.jpg","Stranger","Matching","Stranger","Stranger","Stranger","Stranger",751,0.751,1,"M"
2001,4,254,"shape2.jpg","Friend","Matching","Friend","Friend","Friend","Close",585,0.585,1,"F"
2001,4,254,"shape1.jpg","Stranger","Nonmatching","Stranger","Self","Self","Self",463,0.463,1,"M"
2001,4,255,"shape1.jpg","Friend","Nonmatching","Friend","Self","Self","Self",812,0.812,1,"F"
2001,4,255,"shape3.jpg","Stranger","Matching","Stranger","Stranger","Stranger","Stranger",396,0.396,1,"M"
2001,4,256,"shape2.jpg","Stranger","Nonmatching","Stranger","Friend","Friend","Close",645,0.645,1,"F"
2001,4,256,"shape3.jpg","Stranger","Matching","Stranger","Stranger","Stranger","Stranger",362,0.362,1,"M"
2001,4,257,"shape3.jpg","Stranger","Matching","Stranger","Stranger","Stranger","Stranger",852,0.852,1,"F"
2001,4,257,"shape2.jpg","You","Nonmatching","Self","Friend","Friend","Close",760,0.76,1,"M"
2001,4,258,"shape1.jpg","You","Matching","Self","Self","Self","Self",514,0.514,1,"F"
2001,4,258,"shape1.jpg","Stranger","Nonmatching","Stranger","Self","Self","Self",426,0.426,1,"M"
2001,4,259,"shape3.jpg","Friend","Nonmatching","Friend","Stranger","Stranger","Stranger",509,0.509,1,"F"
2001,4,259,"shape3.jpg","Stranger","Matching","Stranger","Stranger","Stranger","Stranger",368,0.368,1,"M"
2001,4,260,"shape1.jpg","You","Matching","Self","Self","Self","Self",435,0.435,1,"F"
2001,4,260,"shape1.jpg","You","Matching","Self","Self","Self","Self",425,0.425,1,"M"
2001,4,261,"shape2.jpg","You","Nonmatching","Self","Friend","Friend","Close",431,0.431,1,"F"
2001,4,261,"shape1.jpg","You","Matching","Self","Self","Self","Self",403,0.403,1,"M"
2001,4,262,"shape3.jpg","You","Nonmatching","Self","Stranger","Stranger","Stranger",634,0.634,1,"F"
2001,4,262,"shape2.jpg","Friend","Matching","Friend","Friend","Friend","Close",582,0.582,1,"M"
2001,4,263,"shape3.jpg","Stranger","Matching","Stranger","Stranger","Stranger","Stranger",635,0.635,1,"F"
2001,4,263,"shape2.jpg","Stranger","Nonmatching","Stranger","Friend","Friend","Close",437,0.437,1,"M"
2001,4,264,"shape2.jpg","Stranger","Nonmatching","Stranger","Friend","Friend","Close",482,0.482,1,"F"
2001,4,264,"shape2.jpg","Friend","Matching","Friend","Friend","Friend","Close",352,0.352,1,"M"
2001,4,265,"shape2.jpg","Friend","Matching","Friend","Friend","Friend","Close",403,0.403,1,"F"
2001,4,265,"shape2.jpg","Stranger","Nonmatching","Stranger","Friend","Friend","Close",428,0.428,1,"M"
2001,4,266,"shape3.jpg","Stranger","Matching","Stranger","Stranger","Stranger","Stranger",497,0.497,1,"F"
2001,4,266,"shape1.jpg","Friend","Nonmatching","Friend","Self","Self","Self",559,0.559,1,"M"
2001,4,267,"shape2.jpg","You","Nonmatching","Self","Friend","Friend","Close",479,0.479,1,"F"
2001,4,267,"shape1.jpg","Friend","Nonmatching","Friend","Self","Self","Self",510,0.51,1,"M"
2001,4,268,"shape3.jpg","You","Nonmatching","Self","Stranger","Stranger","Stranger",572,0.572,1,"F"
2001,4,268,"shape1.jpg","You","Matching","Self","Self","Self","Self",318,0.318,1,"M"
2001,4,269,"shape3.jpg","Friend","Nonmatching","Friend","Stranger","Stranger","Stranger",392,0.392,1,"F"
2001,4,269,"shape3.jpg","You","Nonmatching","Self","Stranger","Stranger","Stranger",394,0.394,1,"M"
2001,4,270,"shape3.jpg","Stranger","Matching","Stranger","Stranger","Stranger","Stranger",331,0.331,1,"F"
2001,4,270,"shape2.jpg","You","Nonmatching","Self","Friend","Friend","Close",604,0.604,1,"M"
2001,4,271,"shape2.jpg","You","Nonmatching","Self","Friend","Friend","Close",1142,1.142,1,"F"
2001,4,271,"shape2.jpg","Friend","Matching","Friend","Friend","Friend","Close",468,0.468,1,"M"
2001,4,272,"shape2.jpg","Friend","Matching","Friend","Friend","Friend","Close",695,0.695,1,"F"
2001,4,272,"shape3.jpg","Stranger","Matching","Stranger","Stranger","Stranger","Stranger",419,0.419,1,"M"
2001,4,273,"shape2.jpg","Friend","Matching","Friend","Friend","Friend","Close",365,0.365,1,"F"
2001,4,273,"shape2.jpg","Stranger","Nonmatching","Stranger","Friend","Friend","Close",464,0.464,1,"M"
2001,4,274,"shape1.jpg","You","Matching","Self","Self","Self","Self",431,0.431,1,"F"
2001,4,274,"shape2.jpg","Stranger","Nonmatching","Stranger","Friend","Friend","Close",430,0.43,1,"M"
2001,4,275,"shape3.jpg","Friend","Nonmatching","Friend","Stranger","Stranger","Stranger",437,0.437,1,"F"
2001,4,275,"shape2.jpg","Friend","Matching","Friend","Friend","Friend","Close",536,0.536,1,"M"
2001,4,276,"shape3.jpg","Stranger","Matching","Stranger","Stranger","Stranger","Stranger",643,0.643,1,"F"
2001,4,276,"shape2.jpg","Friend","Matching","Friend","Friend","Friend","Close",422,0.422,1,"M"
2001,4,277,"shape1.jpg","Stranger","Nonmatching","Stranger","Self","Self","Self",624,0.624,1,"F"
2001,4,277,"shape3.jpg","Friend","Nonmatching","Friend","Stranger","Stranger","Stranger",424,0.424,1,"M"
2001,4,278,"shape3.jpg","You","Nonmatching","Self","Stranger","Stranger","Stranger",621,0.621,1,"F"
2001,4,278,"shape1.jpg","Stranger","Nonmatching","Stranger","Self","Self","Self",466,0.466,1,"M"
2001,4,279,"shape1.jpg","Friend","Nonmatching","Friend","Self","Self","Self",412,0.412,1,"F"
2001,4,279,"shape2.jpg","Friend","Matching","Friend","Friend","Friend","Close",372,0.372,1,"M"
2001,4,280,"shape2.jpg","Stranger","Nonmatching","Stranger","Friend","Friend","Close",790,0.79,1,"F"
2001,4,280,"shape3.jpg","Stranger","Matching","Stranger","Stranger","Stranger","Stranger",927,0.927,1,"M"
2001,4,281,"shape2.jpg","Stranger","Nonmatching","Stranger","Friend","Friend","Close",468,0.468,1,"F"
2001,4,281,"shape3.jpg","Friend","Nonmatching","Friend","Stranger","Stranger","Stranger",455,0.455,1,"M"
2001,4,282,"shape2.jpg","Friend","Matching","Friend","Friend","Friend","Close",412,0.412,1,"F"
2001,4,282,"shape2.jpg","Friend","Matching","Friend","Friend","Friend","Close",676,0.676,1,"M"
2001,4,283,"shape1.jpg","Stranger","Nonmatching","Stranger","Self","Self","Self",513,0.513,1,"F"
2001,4,283,"shape3.jpg","Stranger","Matching","Stranger","Stranger","Stranger","Stranger",511,0.511,1,"M"
2001,4,284,"shape1.jpg","You","Matching","Self","Self","Self","Self",393,0.393,1,"F"
2001,4,284,"shape3.jpg","You","Nonmatching","Self","Stranger","Stranger","Stranger",450,0.45,1,"M"
2001,4,285,"shape3.jpg","You","Nonmatching","Self","Stranger","Stranger","Stranger",409,0.409,1,"F"
2001,4,285,"shape1.jpg","You","Matching","Self","Self","Self","Self",403,0.403,1,"M"
2001,4,286,"shape2.jpg","Friend","Matching","Friend","Friend","Friend","Close",434,0.434,1,"F"
2001,4,286,"shape2.jpg","You","Nonmatching","Self","Friend","Friend","Close",510,0.51,1,"M"
2001,4,287,"shape3.jpg","Stranger","Matching","Stranger","Stranger","Stranger","Stranger",997,0.997,1,"F"
2001,4,287,"shape1.jpg","You","Matching","Self","Self","Self","Self",469,0.469,1,"M"
2001,4,288,"shape3.jpg","Friend","Nonmatching","Friend","Stranger","Stranger","Stranger",632,0.632,1,"F"
2001,4,288,"shape3.jpg","Friend","Nonmatching","Friend","Stranger","Stranger","Stranger",442,0.442,1,"M"
2001,4,289,"shape2.jpg","You","Nonmatching","Self","Friend","Friend","Close",667,0.667,1,"F"
2001,4,289,"shape2.jpg","You","Nonmatching","Self","Friend","Friend","Close",556,0.556,1,"M"
2001,4,290,"shape3.jpg","Stranger","Matching","Stranger","Stranger","Stranger","Stranger",435,0.435,1,"F"
2001,4,290,"shape3.jpg","Stranger","Matching","Stranger","Stranger","Stranger","Stranger",626,0.626,1,"M"
2001,4,291,"shape3.jpg","Stranger","Matching","Stranger","Stranger","Stranger","Stranger",366,0.366,1,"F"
2001,4,291,"shape3.jpg","Friend","Nonmatching","Friend","Stranger","Stranger","Stranger",558,0.558,1,"M"
2001,4,292,"shape3.jpg","Friend","Nonmatching","Friend","Stranger","Stranger","Stranger",455,0.455,1,"F"
2001,4,292,"shape3.jpg","Friend","Nonmatching","Friend","Stranger","Stranger","Stranger",392,0.392,1,"M"
2001,4,293,"shape1.jpg","You","Matching","Self","Self","Self","Self",377,0.377,1,"F"
2001,4,293,"shape1.jpg","Friend","Nonmatching","Friend","Self","Self","Self",398,0.398,1,"M"
2001,4,294,"shape1.jpg","You","Matching","Self","Self","Self","Self",363,0.363,1,"F"
2001,4,294,"shape3.jpg","You","Nonmatching","Self","Stranger","Stranger","Stranger",417,0.417,1,"M"
2001,4,295,"shape2.jpg","Stranger","Nonmatching","Stranger","Friend","Friend","Close",638,0.638,1,"F"
2001,4,295,"shape1.jpg","Stranger","Nonmatching","Stranger","Self","Self","Self",435,0.435,1,"M"
2001,4,296,"shape3.jpg","Friend","Nonmatching","Friend","Stranger","Stranger","Stranger",593,0.593,1,"F"
2001,4,296,"shape3.jpg","Stranger","Matching","Stranger","Stranger","Stranger","Stranger",431,0.431,1,"M"
2001,4,297,"shape1.jpg","Friend","Nonmatching","Friend","Self","Self","Self",509,0.509,1,"F"
2001,4,297,"shape1.jpg","You","Matching","Self","Self","Self","Self",611,0.611,1,"M"
2001,4,298,"shape1.jpg","Stranger","Nonmatching","Stranger","Self","Self","Self",489,0.489,1,"F"
2001,4,298,"shape3.jpg","Stranger","Matching","Stranger","Stranger","Stranger","Stranger",469,0.469,1,"M"
2001,4,299,"shape2.jpg","Friend","Matching","Friend","Friend","Friend","Close",475,0.475,1,"F"
2001,4,299,"shape2.jpg","Friend","Matching","Friend","Friend","Friend","Close",431,0.431,1,"M"
2001,4,300,"shape2.jpg","Friend","Matching","Friend","Friend","Friend","Close",408,0.408,1,"F"
2001,4,300,"shape1.jpg","You","Matching","Self","Self","Self","Self",439,0.439,1,"M"
2001,4,301,"shape3.jpg","Stranger","Matching","Stranger","Stranger","Stranger","Stranger",424,0.424,1,"F"
2001,4,301,"shape1.jpg","Friend","Nonmatching","Friend","Self","Self","Self",548,0.548,1,"M"
2001,4,302,"shape3.jpg","You","Nonmatching","Self","Stranger","Stranger","Stranger",528,0.528,1,"F"
2001,4,302,"shape1.jpg","You","Matching","Self","Self","Self","Self",368,0.368,1,"M"
2001,4,303,"shape3.jpg","Friend","Nonmatching","Friend","Stranger","Stranger","Stranger",1513,1.513,1,"F"
2001,4,303,"shape1.jpg","Stranger","Nonmatching","Stranger","Self","Self","Self",459,0.459,1,"M"
2001,4,304,"shape3.jpg","Stranger","Matching","Stranger","Stranger","Stranger","Stranger",367,0.367,1,"F"
2001,4,304,"shape1.jpg","You","Matching","Self","Self","Self","Self",330,0.33,1,"M"
2001,4,305,"shape1.jpg","You","Matching","Self","Self","Self","Self",396,0.396,1,"F"
2001,4,305,"shape3.jpg","You","Nonmatching","Self","Stranger","Stranger","Stranger",469,0.469,1,"M"
2001,4,306,"shape1.jpg","You","Matching","Self","Self","Self","Self",413,0.413,1,"F"
2001,4,306,"shape1.jpg","You","Matching","Self","Self","Self","Self",536,0.536,1,"M"
2001,4,307,"shape3.jpg","Stranger","Matching","Stranger","Stranger","Stranger","Stranger",370,0.37,1,"F"
2001,4,307,"shape2.jpg","Stranger","Nonmatching","Stranger","Friend","Friend","Close",713,0.713,1,"M"
2001,4,308,"shape1.jpg","You","Matching","Self","Self","Self","Self",517,0.517,1,"F"
2001,4,308,"shape2.jpg","Stranger","Nonmatching","Stranger","Friend","Friend","Close",433,0.433,1,"M"
2001,4,309,"shape3.jpg","You","Nonmatching","Self","Stranger","Stranger","Stranger",554,0.554,1,"F"
2001,4,309,"shape1.jpg","Friend","Nonmatching","Friend","Self","Self","Self",500,0.5,1,"M"
2001,4,310,"shape2.jpg","Friend","Matching","Friend","Friend","Friend","Close",347,0.347,1,"F"
2001,4,310,"shape1.jpg","You","Matching","Self","Self","Self","Self",322,0.322,1,"M"
2001,4,311,"shape1.jpg","Stranger","Nonmatching","Stranger","Self","Self","Self",629,0.629,1,"F"
2001,4,311,"shape3.jpg","Stranger","Matching","Stranger","Stranger","Stranger","Stranger",361,0.361,1,"M"
2001,4,312,"shape1.jpg","Friend","Nonmatching","Friend","Self","Self","Self",801,0.801,1,"F"
2001,4,312,"shape1.jpg","You","Matching","Self","Self","Self","Self",426,0.426,1,"M"
2001,4,313,"shape2.jpg","Stranger","Nonmatching","Stranger","Friend","Friend","Close",638,0.638,1,"F"
2001,4,313,"shape1.jpg","You","Matching","Self","Self","Self","Self",407,0.407,1,"M"
2001,4,314,"shape1.jpg","Friend","Nonmatching","Friend","Self","Self","Self",439,0.439,1,"F"
2001,4,314,"shape2.jpg","Friend","Matching","Friend","Friend","Friend","Close",387,0.387,1,"M"
2001,4,315,"shape1.jpg","You","Matching","Self","Self","Self","Self",420,0.42,1,"F"
2001,4,315,"shape2.jpg","You","Nonmatching","Self","Friend","Friend","Close",470,0.47,1,"M"
2001,4,316,"shape3.jpg","Stranger","Matching","Stranger","Stranger","Stranger","Stranger",626,0.626,1,"F"
2001,4,316,"shape2.jpg","Stranger","Nonmatching","Stranger","Friend","Friend","Close",401,0.401,1,"M"
2001,4,317,"shape1.jpg","You","Matching","Self","Self","Self","Self",485,0.485,1,"F"
2001,4,317,"shape2.jpg","Friend","Matching","Friend","Friend","Friend","Close",367,0.367,1,"M"
2001,4,318,"shape2.jpg","Friend","Matching","Friend","Friend","Friend","Close",314,0.314,1,"F"
2001,4,318,"shape1.jpg","Stranger","Nonmatching","Stranger","Self","Self","Self",444,0.444,1,"M"
2001,4,319,"shape3.jpg","You","Nonmatching","Self","Stranger","Stranger","Stranger",799,0.799,1,"F"
2001,4,319,"shape3.jpg","You","Nonmatching","Self","Stranger","Stranger","Stranger",439,0.439,1,"M"
2001,4,320,"shape2.jpg","Friend","Matching","Friend","Friend","Friend","Close",483,0.483,1,"F"
2001,4,320,"shape3.jpg","Stranger","Matching","Stranger","Stranger","Stranger","Stranger",434,0.434,1,"M"
2001,4,321,"shape1.jpg","Stranger","Nonmatching","Stranger","Self","Self","Self",1113,1.113,1,"F"
2001,4,321,"shape1.jpg","Stranger","Nonmatching","Stranger","Self","Self","Self",501,0.501,1,"M"
2001,4,322,"shape1.jpg","Stranger","Nonmatching","Stranger","Self","Self","Self",536,0.536,1,"F"
2001,4,322,"shape2.jpg","Friend","Matching","Friend","Friend","Friend","Close",323,0.323,1,"M"
2001,4,323,"shape1.jpg","You","Matching","Self","Self","Self","Self",511,0.511,1,"F"
2001,4,323,"shape2.jpg","Friend","Matching","Friend","Friend","Friend","Close",341,0.341,1,"M"
2001,4,324,"shape1.jpg","You","Matching","Self","Self","Self","Self",349,0.349,1,"F"
2001,4,324,"shape2.jpg","You","Nonmatching","Self","Friend","Friend","Close",353,0.353,1,"M"
2001,4,325,"shape1.jpg","Friend","Nonmatching","Friend","Self","Self","Self",418,0.418,1,"F"
2001,4,325,"shape3.jpg","Friend","Nonmatching","Friend","Stranger","Stranger","Stranger",402,0.402,1,"M"
2001,4,326,"shape3.jpg","Stranger","Matching","Stranger","Stranger","Stranger","Stranger",604,0.604,1,"F"
2001,4,326,"shape3.jpg","Friend","Nonmatching","Friend","Stranger","Stranger","Stranger",357,0.357,1,"M"
2001,4,327,"shape2.jpg","You","Nonmatching","Self","Friend","Friend","Close",559,0.559,1,"F"
2001,4,327,"shape3.jpg","You","Nonmatching","Self","Stranger","Stranger","Stranger",599,0.599,1,"M"
2001,4,328,"shape2.jpg","You","Nonmatching","Self","Friend","Friend","Close",419,0.419,1,"F"
2001,4,328,"shape3.jpg","You","Nonmatching","Self","Stranger","Stranger","Stranger",411,0.411,1,"M"
2001,4,329,"shape1.jpg","Stranger","Nonmatching","Stranger","Self","Self","Self",585,0.585,1,"F"
2001,4,329,"shape1.jpg","Friend","Nonmatching","Friend","Self","Self","Self",551,0.551,1,"M"
2001,4,330,"shape1.jpg","Friend","Nonmatching","Friend","Self","Self","Self",488,0.488,1,"F"
2001,4,330,"shape1.jpg","You","Matching","Self","Self","Self","Self",385,0.385,1,"M"
2001,4,331,"shape2.jpg","Friend","Matching","Friend","Friend","Friend","Close",587,0.587,1,"F"
2001,4,331,"shape3.jpg","Stranger","Matching","Stranger","Stranger","Stranger","Stranger",360,0.36,1,"M"
2001,4,332,"shape2.jpg","Friend","Matching","Friend","Friend","Friend","Close",362,0.362,1,"F"
2001,4,332,"shape2.jpg","You","Nonmatching","Self","Friend","Friend","Close",495,0.495,1,"M"
2001,4,333,"shape2.jpg","You","Nonmatching","Self","Friend","Friend","Close",421,0.421,1,"F"
2001,4,333,"shape2.jpg","Friend","Matching","Friend","Friend","Friend","Close",382,0.382,1,"M"
2001,4,334,"shape2.jpg","Stranger","Nonmatching","Stranger","Friend","Friend","Close",562,0.562,1,"F"
2001,4,334,"shape1.jpg","Friend","Nonmatching","Friend","Self","Self","Self",518,0.518,1,"M"
2001,4,335,"shape2.jpg","Friend","Matching","Friend","Friend","Friend","Close",443,0.443,1,"F"
2001,4,335,"shape3.jpg","Stranger","Matching","Stranger","Stranger","Stranger","Stranger",460,0.46,1,"M"
2001,4,336,"shape3.jpg","Stranger","Matching","Stranger","Stranger","Stranger","Stranger",423,0.423,1,"F"
2001,4,336,"shape2.jpg","Friend","Matching","Friend","Friend","Friend","Close",485,0.485,1,"M"
2002,1,1,"shape1.jpg","You","Matching","Self","Self","Self","Self",848,0.848,1,"F"
2002,1,1,"shape2.jpg","Stranger","Nonmatching","Stranger","Friend","Friend","Close",777,0.777,1,"M"
2002,1,2,"shape3.jpg","Friend","Nonmatching","Friend","Stranger","Stranger","Stranger",1004,1.004,1,"F"
2002,1,2,"shape3.jpg","Friend","Nonmatching","Friend","Stranger","Stranger","Stranger",1029,1.029,1,"M"
2002,1,3,"shape3.jpg","Friend","Nonmatching","Friend","Stranger","Stranger","Stranger",855,0.855,0,"F"
2002,1,3,"shape2.jpg","You","Nonmatching","Self","Friend","Friend","Close",637,0.637,1,"M"
2002,1,4,"shape2.jpg","Stranger","Nonmatching","Stranger","Friend","Friend","Close",1225,1.225,1,"F"
2002,1,4,"shape2.jpg","Friend","Matching","Friend","Friend","Friend","Close",822,0.822,0,"M"
2002,1,5,"shape3.jpg","Stranger","Matching","Stranger","Stranger","Stranger","Stranger",641,0.641,1,"F"
2002,1,5,"shape2.jpg","You","Nonmatching","Self","Friend","Friend","Close",1146,1.146,1,"M"
2002,1,6,"shape1.jpg","You","Matching","Self","Self","Self","Self",851,0.851,1,"F"
2002,1,6,"shape1.jpg","You","Matching","Self","Self","Self","Self",655,0.655,1,"M"
2002,1,7,"shape2.jpg","You","Nonmatching","Self","Friend","Friend","Close",1113,1.113,1,"F"
2002,1,7,"shape1.jpg","Stranger","Nonmatching","Stranger","Self","Self","Self",769,0.769,1,"M"
2002,1,8,"shape1.jpg","Friend","Nonmatching","Friend","Self","Self","Self",835,0.835,1,"F"
2002,1,8,"shape1.jpg","You","Matching","Self","Self","Self","Self",762,0.762,1,"M"
2002,1,9,"shape2.jpg","Friend","Matching","Friend","Friend","Friend","Close",868,0.868,1,"F"
2002,1,9,"shape1.jpg","Friend","Nonmatching","Friend","Self","Self","Self",737,0.737,1,"M"
2002,1,10,"shape2.jpg","You","Nonmatching","Self","Friend","Friend","Close",858,0.858,1,"F"
2002,1,10,"shape2.jpg","Stranger","Nonmatching","Stranger","Friend","Friend","Close",1775,1.775,1,"M"
2002,1,11,"shape3.jpg","Stranger","Matching","Stranger","Stranger","Stranger","Stranger",518,0.518,1,"F"
2002,1,11,"shape1.jpg","Stranger","Nonmatching","Stranger","Self","Self","Self",990,0.99,1,"M"
2002,1,12,"shape2.jpg","You","Nonmatching","Self","Friend","Friend","Close",563,0.563,1,"F"
2002,1,12,"shape1.jpg","Stranger","Nonmatching","Stranger","Self","Self","Self",879,0.879,1,"M"
2002,1,13,"shape3.jpg","Friend","Nonmatching","Friend","Stranger","Stranger","Stranger",921,0.921,1,"F"
2002,1,13,"shape2.jpg","Friend","Matching","Friend","Friend","Friend","Close",585,0.585,1,"M"
2002,1,14,"shape3.jpg","You","Nonmatching","Self","Stranger","Stranger","Stranger",730,0.73,1,"F"
2002,1,14,"shape2.jpg","Friend","Matching","Friend","Friend","Friend","Close",852,0.852,1,"M"
2002,1,15,"shape2.jpg","You","Nonmatching","Self","Friend","Friend","Close",602,0.602,1,"F"
2002,1,15,"shape3.jpg","Stranger","Matching","Stranger","Stranger","Stranger","Stranger",645,0.645,1,"M"
2002,1,16,"shape3.jpg","Stranger","Matching","Stranger","Stranger","Stranger","Stranger",769,0.769,1,"F"
2002,1,16,"shape3.jpg","Stranger","Matching","Stranger","Stranger","Stranger","Stranger",715,0.715,1,"M"
2002,1,17,"shape3.jpg","Stranger","Matching","Stranger","Stranger","Stranger","Stranger",591,0.591,1,"F"
2002,1,17,"shape3.jpg","Stranger","Matching","Stranger","Stranger","Stranger","Stranger",565,0.565,1,"M"
2002,1,18,"shape2.jpg","Friend","Matching","Friend","Friend","Friend","Close",936,0.936,1,"F"
2002,1,18,"shape1.jpg","Friend","Nonmatching","Friend","Self","Self","Self",1039,1.039,1,"M"
2002,1,19,"shape1.jpg","Stranger","Nonmatching","Stranger","Self","Self","Self",739,0.739,1,"F"
2002,1,19,"shape2.jpg","You","Nonmatching","Self","Friend","Friend","Close",972,0.972,1,"M"
2002,1,20,"shape2.jpg","You","Nonmatching","Self","Friend","Friend","Close",598,0.598,1,"F"
2002,1,20,"shape1.jpg","Friend","Nonmatching","Friend","Self","Self","Self",782,0.782,1,"M"
2002,1,21,"shape2.jpg","Friend","Matching","Friend","Friend","Friend","Close",1472,1.472,1,"F"
2002,1,21,"shape1.jpg","You","Matching","Self","Self","Self","Self",657,0.657,1,"M"
2002,1,22,"shape3.jpg","Stranger","Matching","Stranger","Stranger","Stranger","Stranger",502,0.502,1,"F"
2002,1,22,"shape1.jpg","You","Matching","Self","Self","Self","Self",517,0.517,1,"M"
2002,1,23,"shape2.jpg","Friend","Matching","Friend","Friend","Friend","Close",784,0.784,1,"F"
2002,1,23,"shape2.jpg","Friend","Matching","Friend","Friend","Friend","Close",819,0.819,1,"M"
2002,1,24,"shape3.jpg","You","Nonmatching","Self","Stranger","Stranger","Stranger",794,0.794,1,"F"
2002,1,24,"shape2.jpg","Stranger","Nonmatching","Stranger","Friend","Friend","Close",715,0.715,1,"M"
2002,1,25,"shape1.jpg","You","Matching","Self","Self","Self","Self",718,0.718,1,"F"
2002,1,25,"shape3.jpg","Stranger","Matching","Stranger","Stranger","Stranger","Stranger",814,0.814,1,"M"
2002,1,26,"shape1.jpg","Friend","Nonmatching","Friend","Self","Self","Self",941,0.941,1,"F"
2002,1,26,"shape1.jpg","You","Matching","Self","Self","Self","Self",1013,1.013,1,"M"
2002,1,27,"shape1.jpg","You","Matching","Self","Self","Self","Self",650,0.65,1,"F"
2002,1,27,"shape2.jpg","Stranger","Nonmatching","Stranger","Friend","Friend","Close",883,0.883,1,"M"
2002,1,28,"shape3.jpg","You","Nonmatching","Self","Stranger","Stranger","Stranger",848,0.848,1,"F"
2002,1,28,"shape3.jpg","Stranger","Matching","Stranger","Stranger","Stranger","Stranger",912,0.912,1,"M"
2002,1,29,"shape1.jpg","Stranger","Nonmatching","Stranger","Self","Self","Self",1123,1.123,1,"F"
2002,1,29,"shape1.jpg","Friend","Nonmatching","Friend","Self","Self","Self",1003,1.003,1,"M"
2002,1,30,"shape2.jpg","Friend","Matching","Friend","Friend","Friend","Close",1181,1.181,1,"F"
2002,1,30,"shape1.jpg","Friend","Nonmatching","Friend","Self","Self","Self",606,0.606,1,"M"
2002,1,31,"shape3.jpg","Stranger","Matching","Stranger","Stranger","Stranger","Stranger",478,0.478,1,"F"
2002,1,31,"shape3.jpg","Stranger","Matching","Stranger","Stranger","Stranger","Stranger",565,0.565,1,"M"
2002,1,32,"shape1.jpg","Friend","Nonmatching","Friend","Self","Self","Self",764,0.764,1,"F"
2002,1,32,"shape3.jpg","You","Nonmatching","Self","Stranger","Stranger","Stranger",623,0.623,1,"M"
2002,1,33,"shape1.jpg","You","Matching","Self","Self","Self","Self",622,0.622,1,"F"
2002,1,33,"shape1.jpg","You","Matching","Self","Self","Self","Self",763,0.763,1,"M"
2002,1,34,"shape3.jpg","Stranger","Matching","Stranger","Stranger","Stranger","Stranger",794,0.794,1,"F"
2002,1,34,"shape2.jpg","Friend","Matching","Friend","Friend","Friend","Close",666,0.666,1,"M"
2002,1,35,"shape1.jpg","Stranger","Nonmatching","Stranger","Self","Self","Self",675,0.675,1,"F"
2002,1,35,"shape2.jpg","Friend","Matching","Friend","Friend","Friend","Close",467,0.467,1,"M"
2002,1,36,"shape2.jpg","Friend","Matching","Friend","Friend","Friend","Close",1086,1.086,1,"F"
2002,1,36,"shape3.jpg","Friend","Nonmatching","Friend","Stranger","Stranger","Stranger",543,0.543,1,"M"
2002,1,37,"shape1.jpg","You","Matching","Self","Self","Self","Self",606,0.606,1,"F"
2002,1,37,"shape3.jpg","Stranger","Matching","Stranger","Stranger","Stranger","Stranger",1033,1.033,1,"M"
2002,1,38,"shape1.jpg","Stranger","Nonmatching","Stranger","Self","Self","Self",714,0.714,1,"F"
2002,1,38,"shape3.jpg","Stranger","Matching","Stranger","Stranger","Stranger","Stranger",500,0.5,1,"M"
2002,1,39,"shape2.jpg","Friend","Matching","Friend","Friend","Friend","Close",813,0.813,1,"F"
2002,1,39,"shape2.jpg","Friend","Matching","Friend","Friend","Friend","Close",609,0.609,1,"M"
2002,1,40,"shape2.jpg","You","Nonmatching","Self","Friend","Friend","Close",834,0.834,1,"F"
2002,1,40,"shape3.jpg","Stranger","Matching","Stranger","Stranger","Stranger","Stranger",574,0.574,1,"M"
2002,1,41,"shape3.jpg","You","Nonmatching","Self","Stranger","Stranger","Stranger",915,0.915,1,"F"
2002,1,41,"shape2.jpg","You","Nonmatching","Self","Friend","Friend","Close",987,0.987,1,"M"
2002,1,42,"shape2.jpg","Friend","Matching","Friend","Friend","Friend","Close",873,0.873,1,"F"
2002,1,42,"shape1.jpg","You","Matching","Self","Self","Self","Self",482,0.482,1,"M"
2002,1,43,"shape2.jpg","You","Nonmatching","Self","Friend","Friend","Close",1470,1.47,1,"F"
2002,1,43,"shape1.jpg","You","Matching","Self","Self","Self","Self",950,0.95,1,"M"
2002,1,44,"shape3.jpg","You","Nonmatching","Self","Stranger","Stranger","Stranger",734,0.734,1,"F"
2002,1,44,"shape2.jpg","You","Nonmatching","Self","Friend","Friend","Close",634,0.634,1,"M"
2002,1,45,"shape1.jpg","Friend","Nonmatching","Friend","Self","Self","Self",722,0.722,1,"F"
2002,1,45,"shape3.jpg","You","Nonmatching","Self","Stranger","Stranger","Stranger",789,0.789,1,"M"
2002,1,46,"shape1.jpg","Stranger","Nonmatching","Stranger","Self","Self","Self",915,0.915,1,"F"
2002,1,46,"shape3.jpg","Stranger","Matching","Stranger","Stranger","Stranger","Stranger",1178,1.178,1,"M"
2002,1,47,"shape1.jpg","You","Matching","Self","Self","Self","Self",770,0.77,1,"F"
2002,1,47,"shape1.jpg","Stranger","Nonmatching","Stranger","Self","Self","Self",1677,1.677,1,"M"
2002,1,48,"shape2.jpg","Friend","Matching","Friend","Friend","Friend","Close",782,0.782,1,"F"
2002,1,48,"shape1.jpg","You","Matching","Self","Self","Self","Self",588,0.588,1,"M"
2002,1,49,"shape3.jpg","Stranger","Matching","Stranger","Stranger","Stranger","Stranger",566,0.566,1,"F"
2002,1,49,"shape2.jpg","Friend","Matching","Friend","Friend","Friend","Close",754,0.754,1,"M"
2002,1,50,"shape2.jpg","Stranger","Nonmatching","Stranger","Friend","Friend","Close",484,0.484,1,"F"
2002,1,50,"shape1.jpg","You","Matching","Self","Self","Self","Self",701,0.701,1,"M"
2002,1,51,"shape2.jpg","Stranger","Nonmatching","Stranger","Friend","Friend","Close",701,0.701,1,"F"
2002,1,51,"shape3.jpg","Friend","Nonmatching","Friend","Stranger","Stranger","Stranger",897,0.897,1,"M"
2002,1,52,"shape1.jpg","You","Matching","Self","Self","Self","Self",753,0.753,1,"F"
2002,1,52,"shape3.jpg","Stranger","Matching","Stranger","Stranger","Stranger","Stranger",588,0.588,1,"M"
2002,1,53,"shape3.jpg","Stranger","Matching","Stranger","Stranger","Stranger","Stranger",491,0.491,1,"F"
2002,1,53,"shape1.jpg","Friend","Nonmatching","Friend","Self","Self","Self",663,0.663,1,"M"
2002,1,54,"shape3.jpg","Stranger","Matching","Stranger","Stranger","Stranger","Stranger",545,0.545,1,"F"
2002,1,54,"shape1.jpg","Stranger","Nonmatching","Stranger","Self","Self","Self",428,0.428,0,"M"
2002,1,55,"shape1.jpg","Friend","Nonmatching","Friend","Self","Self","Self",584,0.584,1,"F"
2002,1,55,"shape1.jpg","Stranger","Nonmatching","Stranger","Self","Self","Self",855,0.855,1,"M"
2002,1,56,"shape1.jpg","You","Matching","Self","Self","Self","Self",773,0.773,1,"F"
2002,1,56,"shape2.jpg","Friend","Matching","Friend","Friend","Friend","Close",709,0.709,1,"M"
2002,1,57,"shape2.jpg","Friend","Matching","Friend","Friend","Friend","Close",783,0.783,1,"F"
2002,1,57,"shape1.jpg","Friend","Nonmatching","Friend","Self","Self","Self",979,0.979,1,"M"
2002,1,58,"shape3.jpg","You","Nonmatching","Self","Stranger","Stranger","Stranger",712,0.712,1,"F"
2002,1,58,"shape3.jpg","Stranger","Matching","Stranger","Stranger","Stranger","Stranger",1048,1.048,1,"M"
2002,1,59,"shape2.jpg","Stranger","Nonmatching","Stranger","Friend","Friend","Close",1090,1.09,1,"F"
2002,1,59,"shape2.jpg","You","Nonmatching","Self","Friend","Friend","Close",731,0.731,1,"M"
2002,1,60,"shape2.jpg","Stranger","Nonmatching","Stranger","Friend","Friend","Close",884,0.884,1,"F"
2002,1,60,"shape3.jpg","You","Nonmatching","Self","Stranger","Stranger","Stranger",798,0.798,1,"M"
2002,1,61,"shape2.jpg","Friend","Matching","Friend","Friend","Friend","Close",551,0.551,1,"F"
2002,1,61,"shape1.jpg","You","Matching","Self","Self","Self","Self",862,0.862,1,"M"
2002,1,62,"shape1.jpg","Friend","Nonmatching","Friend","Self","Self","Self",645,0.645,1,"F"
2002,1,62,"shape3.jpg","Friend","Nonmatching","Friend","Stranger","Stranger","Stranger",763,0.763,1,"M"
2002,1,63,"shape1.jpg","Stranger","Nonmatching","Stranger","Self","Self","Self",836,0.836,1,"F"
2002,1,63,"shape3.jpg","You","Nonmatching","Self","Stranger","Stranger","Stranger",721,0.721,1,"M"
2002,1,64,"shape2.jpg","Friend","Matching","Friend","Friend","Friend","Close",970,0.97,1,"F"
2002,1,64,"shape1.jpg","You","Matching","Self","Self","Self","Self",790,0.79,1,"M"
2002,1,65,"shape2.jpg","Friend","Matching","Friend","Friend","Friend","Close",563,0.563,1,"F"
2002,1,65,"shape3.jpg","You","Nonmatching","Self","Stranger","Stranger","Stranger",726,0.726,1,"M"
2002,1,66,"shape1.jpg","You","Matching","Self","Self","Self","Self",537,0.537,1,"F"
2002,1,66,"shape2.jpg","Stranger","Nonmatching","Stranger","Friend","Friend","Close",678,0.678,1,"M"
2002,1,67,"shape1.jpg","You","Matching","Self","Self","Self","Self",557,0.557,1,"F"
2002,1,67,"shape1.jpg","You","Matching","Self","Self","Self","Self",503,0.503,1,"M"
2002,1,68,"shape3.jpg","Friend","Nonmatching","Friend","Stranger","Stranger","Stranger",811,0.811,1,"F"
2002,1,68,"shape2.jpg","Friend","Matching","Friend","Friend","Friend","Close",1235,1.235,1,"M"
2002,1,69,"shape2.jpg","Stranger","Nonmatching","Stranger","Friend","Friend","Close",1184,1.184,1,"F"
2002,1,69,"shape3.jpg","Stranger","Matching","Stranger","Stranger","Stranger","Stranger",616,0.616,1,"M"
2002,1,70,"shape1.jpg","Stranger","Nonmatching","Stranger","Self","Self","Self",736,0.736,1,"F"
2002,1,70,"shape3.jpg","You","Nonmatching","Self","Stranger","Stranger","Stranger",874,0.874,1,"M"
2002,1,71,"shape3.jpg","Friend","Nonmatching","Friend","Stranger","Stranger","Stranger",832,0.832,1,"F"
2002,1,71,"shape2.jpg","Friend","Matching","Friend","Friend","Friend","Close",680,0.68,1,"M"
2002,1,72,"shape3.jpg","Stranger","Matching","Stranger","Stranger","Stranger","Stranger",841,0.841,1,"F"
2002,1,72,"shape2.jpg","You","Nonmatching","Self","Friend","Friend","Close",1110,1.11,1,"M"
2002,1,73,"shape3.jpg","Friend","Nonmatching","Friend","Stranger","Stranger","Stranger",740,0.74,1,"F"
2002,1,73,"shape3.jpg","Friend","Nonmatching","Friend","Stranger","Stranger","Stranger",823,0.823,1,"M"
2002,1,74,"shape3.jpg","Stranger","Matching","Stranger","Stranger","Stranger","Stranger",781,0.781,1,"F"
2002,1,74,"shape3.jpg","You","Nonmatching","Self","Stranger","Stranger","Stranger",631,0.631,1,"M"
2002,1,75,"shape3.jpg","You","Nonmatching","Self","Stranger","Stranger","Stranger",897,0.897,1,"F"
2002,1,75,"shape2.jpg","Stranger","Nonmatching","Stranger","Friend","Friend","Close",493,0.493,1,"M"
2002,1,76,"shape1.jpg","You","Matching","Self","Self","Self","Self",475,0.475,1,"F"
2002,1,76,"shape2.jpg","Friend","Matching","Friend","Friend","Friend","Close",716,0.716,1,"M"
2002,1,77,"shape1.jpg","Friend","Nonmatching","Friend","Self","Self","Self",857,0.857,1,"F"
2002,1,77,"shape3.jpg","Friend","Nonmatching","Friend","Stranger","Stranger","Stranger",700,0.7,1,"M"
2002,1,78,"shape3.jpg","Stranger","Matching","Stranger","Stranger","Stranger","Stranger",749,0.749,1,"F"
2002,1,78,"shape1.jpg","Stranger","Nonmatching","Stranger","Self","Self","Self",589,0.589,1,"M"
2002,1,79,"shape2.jpg","Stranger","Nonmatching","Stranger","Friend","Friend","Close",1124,1.124,1,"F"
2002,1,79,"shape2.jpg","Friend","Matching","Friend","Friend","Friend","Close",1355,1.355,1,"M"
2002,1,80,"shape3.jpg","Stranger","Matching","Stranger","Stranger","Stranger","Stranger",512,0.512,1,"F"
2002,1,80,"shape2.jpg","Stranger","Nonmatching","Stranger","Friend","Friend","Close",874,0.874,1,"M"
2002,1,81,"shape2.jpg","Friend","Matching","Friend","Friend","Friend","Close",822,0.822,1,"F"
2002,1,81,"shape3.jpg","Friend","Nonmatching","Friend","Stranger","Stranger","Stranger",776,0.776,1,"M"
2002,1,82,"shape3.jpg","Friend","Nonmatching","Friend","Stranger","Stranger","Stranger",837,0.837,1,"F"
2002,1,82,"shape2.jpg","Friend","Matching","Friend","Friend","Friend","Close",713,0.713,1,"M"
2002,1,83,"shape1.jpg","You","Matching","Self","Self","Self","Self",678,0.678,1,"F"
2002,1,83,"shape3.jpg","Stranger","Matching","Stranger","Stranger","Stranger","Stranger",927,0.927,1,"M"
2002,1,84,"shape1.jpg","You","Matching","Self","Self","Self","Self",656,0.656,1,"F"
2002,1,84,"shape1.jpg","You","Matching","Self","Self","Self","Self",456,0.456,1,"M"
2002,2,85,"shape2.jpg","You","Nonmatching","Self","Friend","Friend","Close",649,0.649,1,"F"
2002,2,85,"shape3.jpg","You","Nonmatching","Self","Stranger","Stranger","Stranger",661,0.661,1,"M"
2002,2,86,"shape3.jpg","You","Nonmatching","Self","Stranger","Stranger","Stranger",508,0.508,1,"F"
2002,2,86,"shape3.jpg","Friend","Nonmatching","Friend","Stranger","Stranger","Stranger",685,0.685,1,"M"
2002,2,87,"shape3.jpg","Friend","Nonmatching","Friend","Stranger","Stranger","Stranger",782,0.782,1,"F"
2002,2,87,"shape2.jpg","Friend","Matching","Friend","Friend","Friend","Close",533,0.533,1,"M"
2002,2,88,"shape3.jpg","You","Nonmatching","Self","Stranger","Stranger","Stranger",571,0.571,1,"F"
2002,2,88,"shape3.jpg","Stranger","Matching","Stranger","Stranger","Stranger","Stranger",837,0.837,1,"M"
2002,2,89,"shape3.jpg","Friend","Nonmatching","Friend","Stranger","Stranger","Stranger",617,0.617,1,"F"
2002,2,89,"shape1.jpg","You","Matching","Self","Self","Self","Self",431,0.431,1,"M"
2002,2,90,"shape3.jpg","Stranger","Matching","Stranger","Stranger","Stranger","Stranger",656,0.656,1,"F"
2002,2,90,"shape2.jpg","Stranger","Nonmatching","Stranger","Friend","Friend","Close",573,0.573,1,"M"
2002,2,91,"shape2.jpg","You","Nonmatching","Self","Friend","Friend","Close",986,0.986,1,"F"
2002,2,91,"shape3.jpg","Stranger","Matching","Stranger","Stranger","Stranger","Stranger",515,0.515,1,"M"
2002,2,92,"shape3.jpg","Friend","Nonmatching","Friend","Stranger","Stranger","Stranger",699,0.699,1,"F"
2002,2,92,"shape3.jpg","Friend","Nonmatching","Friend","Stranger","Stranger","Stranger",805,0.805,1,"M"
2002,2,93,"shape1.jpg","You","Matching","Self","Self","Self","Self",1113,1.113,1,"F"
2002,2,93,"shape3.jpg","Friend","Nonmatching","Friend","Stranger","Stranger","Stranger",1014,1.014,1,"M"
2002,2,94,"shape1.jpg","Friend","Nonmatching","Friend","Self","Self","Self",957,0.957,1,"F"
2002,2,94,"shape3.jpg","Friend","Nonmatching","Friend","Stranger","Stranger","Stranger",1087,1.087,1,"M"
2002,2,95,"shape3.jpg","Stranger","Matching","Stranger","Stranger","Stranger","Stranger",701,0.701,1,"F"
2002,2,95,"shape1.jpg","Friend","Nonmatching","Friend","Self","Self","Self",720,0.72,0,"M"
2002,2,96,"shape1.jpg","Friend","Nonmatching","Friend","Self","Self","Self",937,0.937,1,"F"
2002,2,96,"shape1.jpg","You","Matching","Self","Self","Self","Self",427,0.427,1,"M"
2002,2,97,"shape3.jpg","Friend","Nonmatching","Friend","Stranger","Stranger","Stranger",681,0.681,1,"F"
2002,2,97,"shape1.jpg","You","Matching","Self","Self","Self","Self",447,0.447,1,"M"
2002,2,98,"shape3.jpg","You","Nonmatching","Self","Stranger","Stranger","Stranger",1169,1.169,1,"F"
2002,2,98,"shape3.jpg","Friend","Nonmatching","Friend","Stranger","Stranger","Stranger",883,0.883,1,"M"
2002,2,99,"shape3.jpg","Stranger","Matching","Stranger","Stranger","Stranger","Stranger",398,0.398,1,"F"
2002,2,99,"shape1.jpg","Stranger","Nonmatching","Stranger","Self","Self","Self",640,0.64,1,"M"
2002,2,100,"shape3.jpg","Friend","Nonmatching","Friend","Stranger","Stranger","Stranger",707,0.707,1,"F"
2002,2,100,"shape1.jpg","Friend","Nonmatching","Friend","Self","Self","Self",1127,1.127,1,"M"
2002,2,101,"shape3.jpg","Friend","Nonmatching","Friend","Stranger","Stranger","Stranger",757,0.757,1,"F"
2002,2,101,"shape1.jpg","You","Matching","Self","Self","Self","Self",709,0.709,1,"M"
2002,2,102,"shape2.jpg","You","Nonmatching","Self","Friend","Friend","Close",591,0.591,1,"F"
2002,2,102,"shape2.jpg","You","Nonmatching","Self","Friend","Friend","Close",493,0.493,1,"M"
2002,2,103,"shape1.jpg","You","Matching","Self","Self","Self","Self",652,0.652,1,"F"
2002,2,103,"shape1.jpg","You","Matching","Self","Self","Self","Self",917,0.917,1,"M"
2002,2,104,"shape1.jpg","You","Matching","Self","Self","Self","Self",501,0.501,1,"F"
2002,2,104,"shape1.jpg","You","Matching","Self","Self","Self","Self",763,0.763,1,"M"
2002,2,105,"shape3.jpg","You","Nonmatching","Self","Stranger","Stranger","Stranger",675,0.675,1,"F"
2002,2,105,"shape3.jpg","You","Nonmatching","Self","Stranger","Stranger","Stranger",705,0.705,1,"M"
2002,2,106,"shape3.jpg","You","Nonmatching","Self","Stranger","Stranger","Stranger",536,0.536,1,"F"
2002,2,106,"shape3.jpg","Stranger","Matching","Stranger","Stranger","Stranger","Stranger",988,0.988,1,"M"
2002,2,107,"shape3.jpg","You","Nonmatching","Self","Stranger","Stranger","Stranger",957,0.957,1,"F"
2002,2,107,"shape3.jpg","You","Nonmatching","Self","Stranger","Stranger","Stranger",2107,2.107,1,"M"
2002,2,108,"shape1.jpg","Stranger","Nonmatching","Stranger","Self","Self","Self",723,0.723,1,"F"
2002,2,108,"shape3.jpg","You","Nonmatching","Self","Stranger","Stranger","Stranger",645,0.645,1,"M"
2002,2,109,"shape3.jpg","Stranger","Matching","Stranger","Stranger","Stranger","Stranger",469,0.469,1,"F"
2002,2,109,"shape2.jpg","Friend","Matching","Friend","Friend","Friend","Close",881,0.881,1,"M"
2002,2,110,"shape2.jpg","You","Nonmatching","Self","Friend","Friend","Close",657,0.657,1,"F"
2002,2,110,"shape1.jpg","Stranger","Nonmatching","Stranger","Self","Self","Self",1422,1.422,1,"M"
2002,2,111,"shape1.jpg","Friend","Nonmatching","Friend","Self","Self","Self",733,0.733,1,"F"
2002,2,111,"shape3.jpg","Stranger","Matching","Stranger","Stranger","Stranger","Stranger",849,0.849,1,"M"
2002,2,112,"shape2.jpg","Friend","Matching","Friend","Friend","Friend","Close",809,0.809,1,"F"
2002,2,112,"shape2.jpg","Friend","Matching","Friend","Friend","Friend","Close",1434,1.434,1,"M"
2002,2,113,"shape1.jpg","You","Matching","Self","Self","Self","Self",904,0.904,1,"F"
2002,2,113,"shape1.jpg","Stranger","Nonmatching","Stranger","Self","Self","Self",992,0.992,1,"M"
2002,2,114,"shape2.jpg","Stranger","Nonmatching","Stranger","Friend","Friend","Close",835,0.835,1,"F"
2002,2,114,"shape1.jpg","You","Matching","Self","Self","Self","Self",713,0.713,1,"M"
2002,2,115,"shape2.jpg","Friend","Matching","Friend","Friend","Friend","Close",785,0.785,1,"F"
2002,2,115,"shape3.jpg","Stranger","Matching","Stranger","Stranger","Stranger","Stranger",803,0.803,1,"M"
2002,2,116,"shape1.jpg","Stranger","Nonmatching","Stranger","Self","Self","Self",887,0.887,1,"F"
2002,2,116,"shape1.jpg","Friend","Nonmatching","Friend","Self","Self","Self",655,0.655,1,"M"
2002,2,117,"shape3.jpg","Stranger","Matching","Stranger","Stranger","Stranger","Stranger",1587,1.587,1,"F"
2002,2,117,"shape2.jpg","Friend","Matching","Friend","Friend","Friend","Close",1297,1.297,1,"M"
2002,2,118,"shape3.jpg","Stranger","Matching","Stranger","Stranger","Stranger","Stranger",595,0.595,1,"F"
2002,2,118,"shape2.jpg","Friend","Matching","Friend","Friend","Friend","Close",997,0.997,1,"M"
2002,2,119,"shape1.jpg","Friend","Nonmatching","Friend","Self","Self","Self",667,0.667,1,"F"
2002,2,119,"shape2.jpg","Friend","Matching","Friend","Friend","Friend","Close",571,0.571,1,"M"
2002,2,120,"shape2.jpg","Stranger","Nonmatching","Stranger","Friend","Friend","Close",930,0.93,1,"F"
2002,2,120,"shape2.jpg","Friend","Matching","Friend","Friend","Friend","Close",500,0.5,1,"M"
2002,2,121,"shape3.jpg","Stranger","Matching","Stranger","Stranger","Stranger","Stranger",442,0.442,1,"F"
2002,2,121,"shape2.jpg","Stranger","Nonmatching","Stranger","Friend","Friend","Close",696,0.696,1,"M"
2002,2,122,"shape2.jpg","Friend","Matching","Friend","Friend","Friend","Close",667,0.667,1,"F"
2002,2,122,"shape3.jpg","Stranger","Matching","Stranger","Stranger","Stranger","Stranger",603,0.603,1,"M"
2002,2,123,"shape3.jpg","Stranger","Matching","Stranger","Stranger","Stranger","Stranger",681,0.681,1,"F"
2002,2,123,"shape3.jpg","Friend","Nonmatching","Friend","Stranger","Stranger","Stranger",939,0.939,1,"M"
2002,2,124,"shape1.jpg","Stranger","Nonmatching","Stranger","Self","Self","Self",631,0.631,1,"F"
2002,2,124,"shape2.jpg","You","Nonmatching","Self","Friend","Friend","Close",658,0.658,1,"M"
2002,2,125,"shape1.jpg","You","Matching","Self","Self","Self","Self",451,0.451,1,"F"
2002,2,125,"shape3.jpg","Stranger","Matching","Stranger","Stranger","Stranger","Stranger",1108,1.108,1,"M"
2002,2,126,"shape3.jpg","You","Nonmatching","Self","Stranger","Stranger","Stranger",629,0.629,1,"F"
2002,2,126,"shape1.jpg","You","Matching","Self","Self","Self","Self",1044,1.044,1,"M"
2002,2,127,"shape1.jpg","Friend","Nonmatching","Friend","Self","Self","Self",773,0.773,1,"F"
2002,2,127,"shape2.jpg","Friend","Matching","Friend","Friend","Friend","Close",991,0.991,1,"M"
2002,2,128,"shape2.jpg","You","Nonmatching","Self","Friend","Friend","Close",958,0.958,1,"F"
2002,2,128,"shape1.jpg","You","Matching","Self","Self","Self","Self",515,0.515,1,"M"
2002,2,129,"shape1.jpg","You","Matching","Self","Self","Self","Self",442,0.442,1,"F"
2002,2,129,"shape2.jpg","Friend","Matching","Friend","Friend","Friend","Close",647,0.647,1,"M"
2002,2,130,"shape2.jpg","Friend","Matching","Friend","Friend","Friend","Close",987,0.987,1,"F"
2002,2,130,"shape2.jpg","Friend","Matching","Friend","Friend","Friend","Close",484,0.484,1,"M"
2002,2,131,"shape2.jpg","Stranger","Nonmatching","Stranger","Friend","Friend","Close",1493,1.493,1,"F"
2002,2,131,"shape3.jpg","Stranger","Matching","Stranger","Stranger","Stranger","Stranger",495,0.495,1,"M"
2002,2,132,"shape3.jpg","Stranger","Matching","Stranger","Stranger","Stranger","Stranger",1083,1.083,1,"F"
2002,2,132,"shape3.jpg","Stranger","Matching","Stranger","Stranger","Stranger","Stranger",488,0.488,1,"M"
2002,2,133,"shape2.jpg","Friend","Matching","Friend","Friend","Friend","Close",773,0.773,1,"F"
2002,2,133,"shape2.jpg","You","Nonmatching","Self","Friend","Friend","Close",665,0.665,1,"M"
2002,2,134,"shape2.jpg","You","Nonmatching","Self","Friend","Friend","Close",697,0.697,1,"F"
2002,2,134,"shape2.jpg","Friend","Matching","Friend","Friend","Friend","Close",916,0.916,1,"M"
2002,2,135,"shape2.jpg","Stranger","Nonmatching","Stranger","Friend","Friend","Close",522,0.522,1,"F"
2002,2,135,"shape2.jpg","Stranger","Nonmatching","Stranger","Friend","Friend","Close",971,0.971,1,"M"
2002,2,136,"shape2.jpg","Friend","Matching","Friend","Friend","Friend","Close",642,0.642,1,"F"
2002,2,136,"shape2.jpg","You","Nonmatching","Self","Friend","Friend","Close",782,0.782,1,"M"
2002,2,137,"shape3.jpg","Stranger","Matching","Stranger","Stranger","Stranger","Stranger",641,0.641,1,"F"
2002,2,137,"shape2.jpg","You","Nonmatching","Self","Friend","Friend","Close",1240,1.24,1,"M"
2002,2,138,"shape1.jpg","Stranger","Nonmatching","Stranger","Self","Self","Self",641,0.641,1,"F"
2002,2,138,"shape3.jpg","You","Nonmatching","Self","Stranger","Stranger","Stranger",615,0.615,0,"M"
2002,2,139,"shape2.jpg","Friend","Matching","Friend","Friend","Friend","Close",1074,1.074,1,"F"
2002,2,139,"shape2.jpg","Friend","Matching","Friend","Friend","Friend","Close",691,0.691,1,"M"
2002,2,140,"shape1.jpg","You","Matching","Self","Self","Self","Self",978,0.978,1,"F"
2002,2,140,"shape1.jpg","You","Matching","Self","Self","Self","Self",550,0.55,1,"M"
2002,2,141,"shape2.jpg","Stranger","Nonmatching","Stranger","Friend","Friend","Close",575,0.575,1,"F"
2002,2,141,"shape1.jpg","Stranger","Nonmatching","Stranger","Self","Self","Self",673,0.673,1,"M"
2002,2,142,"shape1.jpg","Stranger","Nonmatching","Stranger","Self","Self","Self",661,0.661,1,"F"
2002,2,142,"shape1.jpg","You","Matching","Self","Self","Self","Self",515,0.515,1,"M"
2002,2,143,"shape3.jpg","Friend","Nonmatching","Friend","Stranger","Stranger","Stranger",799,0.799,1,"F"
2002,2,143,"shape3.jpg","Stranger","Matching","Stranger","Stranger","Stranger","Stranger",2050,2.05,1,"M"
2002,2,144,"shape2.jpg","Friend","Matching","Friend","Friend","Friend","Close",727,0.727,1,"F"
2002,2,144,"shape2.jpg","Stranger","Nonmatching","Stranger","Friend","Friend","Close",1040,1.04,1,"M"
2002,2,145,"shape1.jpg","Stranger","Nonmatching","Stranger","Self","Self","Self",615,0.615,1,"F"
2002,2,145,"shape2.jpg","Stranger","Nonmatching","Stranger","Friend","Friend","Close",805,0.805,1,"M"
2002,2,146,"shape3.jpg","Stranger","Matching","Stranger","Stranger","Stranger","Stranger",725,0.725,1,"F"
2002,2,146,"shape1.jpg","You","Matching","Self","Self","Self","Self",783,0.783,1,"M"
2002,2,147,"shape2.jpg","Friend","Matching","Friend","Friend","Friend","Close",926,0.926,1,"F"
2002,2,147,"shape2.jpg","Friend","Matching","Friend","Friend","Friend","Close",845,0.845,1,"M"
2002,2,148,"shape2.jpg","Friend","Matching","Friend","Friend","Friend","Close",474,0.474,1,"F"
2002,2,148,"shape3.jpg","Friend","Nonmatching","Friend","Stranger","Stranger","Stranger",1263,1.263,1,"M"
2002,2,149,"shape1.jpg","Stranger","Nonmatching","Stranger","Self","Self","Self",720,0.72,1,"F"
2002,2,149,"shape2.jpg","You","Nonmatching","Self","Friend","Friend","Close",996,0.996,1,"M"
2002,2,150,"shape1.jpg","You","Matching","Self","Self","Self","Self",714,0.714,1,"F"
2002,2,150,"shape3.jpg","You","Nonmatching","Self","Stranger","Stranger","Stranger",1341,1.341,1,"M"
2002,2,151,"shape1.jpg","Friend","Nonmatching","Friend","Self","Self","Self",620,0.62,1,"F"
2002,2,151,"shape1.jpg","Stranger","Nonmatching","Stranger","Self","Self","Self",760,0.76,1,"M"
2002,2,152,"shape2.jpg","Friend","Matching","Friend","Friend","Friend","Close",708,0.708,1,"F"
2002,2,152,"shape2.jpg","Stranger","Nonmatching","Stranger","Friend","Friend","Close",817,0.817,1,"M"
2002,2,153,"shape2.jpg","Friend","Matching","Friend","Friend","Friend","Close",898,0.898,1,"F"
2002,2,153,"shape3.jpg","Stranger","Matching","Stranger","Stranger","Stranger","Stranger",834,0.834,1,"M"
2002,2,154,"shape3.jpg","Stranger","Matching","Stranger","Stranger","Stranger","Stranger",473,0.473,1,"F"
2002,2,154,"shape1.jpg","Friend","Nonmatching","Friend","Self","Self","Self",822,0.822,1,"M"
2002,2,155,"shape2.jpg","Stranger","Nonmatching","Stranger","Friend","Friend","Close",583,0.583,1,"F"
2002,2,155,"shape3.jpg","Stranger","Matching","Stranger","Stranger","Stranger","Stranger",732,0.732,1,"M"
2002,2,156,"shape2.jpg","You","Nonmatching","Self","Friend","Friend","Close",609,0.609,1,"F"
2002,2,156,"shape3.jpg","You","Nonmatching","Self","Stranger","Stranger","Stranger",1048,1.048,1,"M"
2002,2,157,"shape1.jpg","You","Matching","Self","Self","Self","Self",747,0.747,1,"F"
2002,2,157,"shape1.jpg","Friend","Nonmatching","Friend","Self","Self","Self",902,0.902,1,"M"
2002,2,158,"shape1.jpg","You","Matching","Self","Self","Self","Self",494,0.494,1,"F"
2002,2,158,"shape1.jpg","Stranger","Nonmatching","Stranger","Self","Self","Self",1037,1.037,1,"M"
2002,2,159,"shape1.jpg","You","Matching","Self","Self","Self","Self",418,0.418,1,"F"
2002,2,159,"shape1.jpg","You","Matching","Self","Self","Self","Self",764,0.764,1,"M"
2002,2,160,"shape1.jpg","Friend","Nonmatching","Friend","Self","Self","Self",610,0.61,1,"F"
2002,2,160,"shape2.jpg","Friend","Matching","Friend","Friend","Friend","Close",756,0.756,1,"M"
2002,2,161,"shape3.jpg","Stranger","Matching","Stranger","Stranger","Stranger","Stranger",525,0.525,1,"F"
2002,2,161,"shape1.jpg","Friend","Nonmatching","Friend","Self","Self","Self",630,0.63,1,"M"
2002,2,162,"shape1.jpg","You","Matching","Self","Self","Self","Self",564,0.564,1,"F"
2002,2,162,"shape1.jpg","Friend","Nonmatching","Friend","Self","Self","Self",718,0.718,1,"M"
2002,2,163,"shape1.jpg","You","Matching","Self","Self","Self","Self",587,0.587,1,"F"
2002,2,163,"shape3.jpg","Stranger","Matching","Stranger","Stranger","Stranger","Stranger",935,0.935,1,"M"
2002,2,164,"shape3.jpg","Stranger","Matching","Stranger","Stranger","Stranger","Stranger",503,0.503,1,"F"
2002,2,164,"shape2.jpg","You","Nonmatching","Self","Friend","Friend","Close",803,0.803,1,"M"
2002,2,165,"shape2.jpg","Stranger","Nonmatching","Stranger","Friend","Friend","Close",491,0.491,1,"F"
2002,2,165,"shape3.jpg","Stranger","Matching","Stranger","Stranger","Stranger","Stranger",1783,1.783,0,"M"
2002,2,166,"shape1.jpg","You","Matching","Self","Self","Self","Self",350,0.35,1,"F"
2002,2,166,"shape1.jpg","You","Matching","Self","Self","Self","Self",827,0.827,1,"M"
2002,2,167,"shape2.jpg","Friend","Matching","Friend","Friend","Friend","Close",704,0.704,1,"F"
2002,2,167,"shape1.jpg","Stranger","Nonmatching","Stranger","Self","Self","Self",681,0.681,1,"M"
2002,2,168,"shape2.jpg","Friend","Matching","Friend","Friend","Friend","Close",573,0.573,1,"F"
2002,2,168,"shape2.jpg","Stranger","Nonmatching","Stranger","Friend","Friend","Close",1136,1.136,1,"M"
2002,3,169,"shape2.jpg","Stranger","Nonmatching","Stranger","Friend","Friend","Close",1892,1.892,0,"F"
2002,3,169,"shape2.jpg","You","Nonmatching","Self","Friend","Friend","Close",570,0.57,1,"M"
2002,3,170,"shape3.jpg","Stranger","Matching","Stranger","Stranger","Stranger","Stranger",382,0.382,1,"F"
2002,3,170,"shape3.jpg","Stranger","Matching","Stranger","Stranger","Stranger","Stranger",544,0.544,1,"M"
2002,3,171,"shape1.jpg","You","Matching","Self","Self","Self","Self",429,0.429,1,"F"
2002,3,171,"shape3.jpg","You","Nonmatching","Self","Stranger","Stranger","Stranger",864,0.864,1,"M"
2002,3,172,"shape2.jpg","Friend","Matching","Friend","Friend","Friend","Close",792,0.792,1,"F"
2002,3,172,"shape3.jpg","Stranger","Matching","Stranger","Stranger","Stranger","Stranger",812,0.812,1,"M"
2002,3,173,"shape1.jpg","Friend","Nonmatching","Friend","Self","Self","Self",754,0.754,1,"F"
2002,3,173,"shape2.jpg","Friend","Matching","Friend","Friend","Friend","Close",557,0.557,1,"M"
2002,3,174,"shape1.jpg","You","Matching","Self","Self","Self","Self",627,0.627,1,"F"
2002,3,174,"shape3.jpg","Stranger","Matching","Stranger","Stranger","Stranger","Stranger",564,0.564,1,"M"
2002,3,175,"shape1.jpg","Stranger","Nonmatching","Stranger","Self","Self","Self",688,0.688,1,"F"
2002,3,175,"shape2.jpg","You","Nonmatching","Self","Friend","Friend","Close",763,0.763,1,"M"
2002,3,176,"shape2.jpg","Stranger","Nonmatching","Stranger","Friend","Friend","Close",972,0.972,1,"F"
2002,3,176,"shape3.jpg","Stranger","Matching","Stranger","Stranger","Stranger","Stranger",750,0.75,1,"M"
2002,3,177,"shape1.jpg","You","Matching","Self","Self","Self","Self",928,0.928,1,"F"
2002,3,177,"shape1.jpg","Stranger","Nonmatching","Stranger","Self","Self","Self",700,0.7,1,"M"
2002,3,178,"shape3.jpg","Friend","Nonmatching","Friend","Stranger","Stranger","Stranger",737,0.737,1,"F"
2002,3,178,"shape2.jpg","Friend","Matching","Friend","Friend","Friend","Close",582,0.582,1,"M"
2002,3,179,"shape2.jpg","Friend","Matching","Friend","Friend","Friend","Close",962,0.962,1,"F"
2002,3,179,"shape2.jpg","Friend","Matching","Friend","Friend","Friend","Close",811,0.811,1,"M"
2002,3,180,"shape1.jpg","Stranger","Nonmatching","Stranger","Self","Self","Self",696,0.696,1,"F"
2002,3,180,"shape3.jpg","Stranger","Matching","Stranger","Stranger","Stranger","Stranger",588,0.588,1,"M"
2002,3,181,"shape2.jpg","You","Nonmatching","Self","Friend","Friend","Close",672,0.672,1,"F"
2002,3,181,"shape3.jpg","Friend","Nonmatching","Friend","Stranger","Stranger","Stranger",758,0.758,1,"M"
2002,3,182,"shape3.jpg","Stranger","Matching","Stranger","Stranger","Stranger","Stranger",723,0.723,1,"F"
