"","Subject","Block","Trial","Face_Gender","Shape","Label","Matching","Label_Identity","Origin_Identity","English_Identity","Standarlized_Identity","RT_ms","RT_sec","ACC"
"1",1001,1,1,"M","shape1.jpg","Stranger","Nonmatching","Stranger","Self","Self","Self",430,0.43,1
"2",1001,1,1,"F","shape1.jpg","Friend","Nonmatching","Friend","Self","Self","Self",1049,1.049,1
"3",1001,1,2,"M","shape3.jpg","Friend","Nonmatching","Friend","Stranger","Stranger","Stranger",423,0.423,1
"4",1001,1,2,"F","shape3.jpg","Friend","Nonmatching","Friend","Stranger","Stranger","Stranger",591,0.591,1
"5",1001,1,3,"M","shape3.jpg","Stranger","Matching","Stranger","Stranger","Stranger","Stranger",567,0.567,1
"6",1001,1,3,"F","shape1.jpg","Stranger","Nonmatching","Stranger","Self","Self","Self",541,0.541,1
"7",1001,1,4,"M","shape3.jpg","Stranger","Matching","Stranger","Stranger","Stranger","Stranger",496,0.496,1
"8",1001,1,4,"F","shape1.jpg","You","Matching","Self","Self","Self","Self",455,0.455,1
"9",1001,1,5,"M","shape2.jpg","Friend","Matching","Friend","Friend","Friend","Close",518,0.518,1
"10",1001,1,5,"F","shape3.jpg","Stranger","Matching","Stranger","Stranger","Stranger","Stranger",686,0.686,1
"11",1001,1,6,"M","shape3.jpg","You","Nonmatching","Self","Stranger","Stranger","Stranger",631,0.631,1
"12",1001,1,6,"F","shape2.jpg","Friend","Matching","Friend","Friend","Friend","Close",471,0.471,1
"13",1001,1,7,"M","shape1.jpg","Stranger","Nonmatching","Stranger","Self","Self","Self",613,0.613,1
"14",1001,1,7,"F","shape3.jpg","Stranger","Matching","Stranger","Stranger","Stranger","Stranger",976,0.976,1
"15",1001,1,8,"M","shape3.jpg","Stranger","Matching","Stranger","Stranger","Stranger","Stranger",434,0.434,1
"16",1001,1,8,"F","shape3.jpg","Stranger","Matching","Stranger","Stranger","Stranger","Stranger",655,0.655,1
"17",1001,1,9,"M","shape3.jpg","Stranger","Matching","Stranger","Stranger","Stranger","Stranger",566,0.566,1
"18",1001,1,9,"F","shape1.jpg","You","Matching","Self","Self","Self","Self",1761,1.761,1
"19",1001,1,10,"M","shape2.jpg","Friend","Matching","Friend","Friend","Friend","Close",456,0.456,1
"20",1001,1,10,"F","shape1.jpg","You","Matching","Self","Self","Self","Self",535,0.535,1
"21",1001,1,11,"M","shape2.jpg","Stranger","Nonmatching","Stranger","Friend","Friend","Close",376,0.376,1
"22",1001,1,11,"F","shape1.jpg","Friend","Nonmatching","Friend","Self","Self","Self",485,0.485,1
"23",1001,1,12,"M","shape3.jpg","Friend","Nonmatching","Friend","Stranger","Stranger","Stranger",398,0.398,1
"24",1001,1,12,"F","shape3.jpg","Friend","Nonmatching","Friend","Stranger","Stranger","Stranger",516,0.516,1
"25",1001,1,13,"M","shape1.jpg","Friend","Nonmatching","Friend","Self","Self","Self",388,0.388,1
"26",1001,1,13,"F","shape2.jpg","Stranger","Nonmatching","Stranger","Friend","Friend","Close",1233,1.233,1
"27",1001,1,14,"M","shape2.jpg","You","Nonmatching","Self","Friend","Friend","Close",382,0.382,1
"28",1001,1,14,"F","shape1.jpg","Friend","Nonmatching","Friend","Self","Self","Self",875,0.875,1
"29",1001,1,15,"M","shape2.jpg","You","Nonmatching","Self","Friend","Friend","Close",380,0.38,1
"30",1001,1,15,"F","shape2.jpg","Friend","Matching","Friend","Friend","Friend","Close",516,0.516,1
"31",1001,1,16,"M","shape3.jpg","You","Nonmatching","Self","Stranger","Stranger","Stranger",510,0.51,1
"32",1001,1,16,"F","shape3.jpg","Stranger","Matching","Stranger","Stranger","Stranger","Stranger",553,0.553,1
"33",1001,1,17,"M","shape2.jpg","Friend","Matching","Friend","Friend","Friend","Close",668,0.668,1
"34",1001,1,17,"F","shape3.jpg","Stranger","Matching","Stranger","Stranger","Stranger","Stranger",513,0.513,1
"35",1001,1,18,"M","shape2.jpg","Stranger","Nonmatching","Stranger","Friend","Friend","Close",380,0.38,1
"36",1001,1,18,"F","shape2.jpg","Friend","Matching","Friend","Friend","Friend","Close",552,0.552,1
"37",1001,1,19,"M","shape1.jpg","Friend","Nonmatching","Friend","Self","Self","Self",356,0.356,1
"38",1001,1,19,"F","shape2.jpg","Friend","Matching","Friend","Friend","Friend","Close",557,0.557,1
"39",1001,1,20,"M","shape2.jpg","You","Nonmatching","Self","Friend","Friend","Close",408,0.408,1
"40",1001,1,20,"F","shape1.jpg","Stranger","Nonmatching","Stranger","Self","Self","Self",424,0.424,1
"41",1001,1,21,"M","shape2.jpg","You","Nonmatching","Self","Friend","Friend","Close",421,0.421,1
"42",1001,1,21,"F","shape2.jpg","You","Nonmatching","Self","Friend","Friend","Close",960,0.96,1
"43",1001,1,22,"M","shape3.jpg","Stranger","Matching","Stranger","Stranger","Stranger","Stranger",567,0.567,1
"44",1001,1,22,"F","shape3.jpg","Stranger","Matching","Stranger","Stranger","Stranger","Stranger",557,0.557,1
"45",1001,1,23,"M","shape1.jpg","Stranger","Nonmatching","Stranger","Self","Self","Self",347,0.347,1
"46",1001,1,23,"F","shape1.jpg","Friend","Nonmatching","Friend","Self","Self","Self",490,0.49,1
"47",1001,1,24,"M","shape2.jpg","Friend","Matching","Friend","Friend","Friend","Close",506,0.506,1
"48",1001,1,24,"F","shape1.jpg","You","Matching","Self","Self","Self","Self",544,0.544,1
"49",1001,1,25,"M","shape1.jpg","Friend","Nonmatching","Friend","Self","Self","Self",499,0.499,1
"50",1001,1,25,"F","shape1.jpg","Stranger","Nonmatching","Stranger","Self","Self","Self",514,0.514,1
"51",1001,1,26,"M","shape2.jpg","You","Nonmatching","Self","Friend","Friend","Close",379,0.379,1
"52",1001,1,26,"F","shape3.jpg","You","Nonmatching","Self","Stranger","Stranger","Stranger",444,0.444,1
"53",1001,1,27,"M","shape2.jpg","Stranger","Nonmatching","Stranger","Friend","Friend","Close",416,0.416,1
"54",1001,1,27,"F","shape2.jpg","Friend","Matching","Friend","Friend","Friend","Close",796,0.796,1
"55",1001,1,28,"M","shape2.jpg","Stranger","Nonmatching","Stranger","Friend","Friend","Close",427,0.427,1
"56",1001,1,28,"F","shape3.jpg","Friend","Nonmatching","Friend","Stranger","Stranger","Stranger",546,0.546,1
"57",1001,1,29,"M","shape1.jpg","You","Matching","Self","Self","Self","Self",453,0.453,1
"58",1001,1,29,"F","shape2.jpg","You","Nonmatching","Self","Friend","Friend","Close",698,0.698,1
"59",1001,1,30,"M","shape3.jpg","Stranger","Matching","Stranger","Stranger","Stranger","Stranger",471,0.471,1
"60",1001,1,30,"F","shape1.jpg","Stranger","Nonmatching","Stranger","Self","Self","Self",556,0.556,1
"61",1001,1,31,"M","shape2.jpg","Friend","Matching","Friend","Friend","Friend","Close",524,0.524,1
"62",1001,1,31,"F","shape3.jpg","Stranger","Matching","Stranger","Stranger","Stranger","Stranger",975,0.975,1
"63",1001,1,32,"M","shape1.jpg","Friend","Nonmatching","Friend","Self","Self","Self",358,0.358,1
"64",1001,1,32,"F","shape1.jpg","Stranger","Nonmatching","Stranger","Self","Self","Self",529,0.529,1
"65",1001,1,33,"M","shape3.jpg","Friend","Nonmatching","Friend","Stranger","Stranger","Stranger",436,0.436,1
"66",1001,1,33,"F","shape2.jpg","You","Nonmatching","Self","Friend","Friend","Close",915,0.915,1
"67",1001,1,34,"M","shape1.jpg","You","Matching","Self","Self","Self","Self",662,0.662,1
"68",1001,1,34,"F","shape2.jpg","You","Nonmatching","Self","Friend","Friend","Close",506,0.506,1
"69",1001,1,35,"M","shape1.jpg","You","Matching","Self","Self","Self","Self",406,0.406,1
"70",1001,1,35,"F","shape1.jpg","Stranger","Nonmatching","Stranger","Self","Self","Self",681,0.681,1
"71",1001,1,36,"M","shape1.jpg","You","Matching","Self","Self","Self","Self",409,0.409,1
"72",1001,1,36,"F","shape3.jpg","Stranger","Matching","Stranger","Stranger","Stranger","Stranger",379,0.379,1
"73",1001,1,37,"M","shape2.jpg","You","Nonmatching","Self","Friend","Friend","Close",504,0.504,1
"74",1001,1,37,"F","shape2.jpg","Stranger","Nonmatching","Stranger","Friend","Friend","Close",730,0.73,1
"75",1001,1,38,"M","shape1.jpg","You","Matching","Self","Self","Self","Self",765,0.765,1
"76",1001,1,38,"F","shape2.jpg","You","Nonmatching","Self","Friend","Friend","Close",522,0.522,1
"77",1001,1,39,"M","shape2.jpg","Friend","Matching","Friend","Friend","Friend","Close",350,0.35,1
"78",1001,1,39,"F","shape2.jpg","Friend","Matching","Friend","Friend","Friend","Close",522,0.522,1
"79",1001,1,40,"M","shape1.jpg","Stranger","Nonmatching","Stranger","Self","Self","Self",380,0.38,1
"80",1001,1,40,"F","shape3.jpg","Stranger","Matching","Stranger","Stranger","Stranger","Stranger",458,0.458,1
"81",1001,1,41,"M","shape2.jpg","Stranger","Nonmatching","Stranger","Friend","Friend","Close",548,0.548,1
"82",1001,1,41,"F","shape3.jpg","Friend","Nonmatching","Friend","Stranger","Stranger","Stranger",598,0.598,1
"83",1001,1,42,"M","shape3.jpg","You","Nonmatching","Self","Stranger","Stranger","Stranger",535,0.535,1
"84",1001,1,42,"F","shape2.jpg","Friend","Matching","Friend","Friend","Friend","Close",1001,1.001,1
"85",1001,1,43,"M","shape3.jpg","You","Nonmatching","Self","Stranger","Stranger","Stranger",444,0.444,1
"86",1001,1,43,"F","shape2.jpg","Friend","Matching","Friend","Friend","Friend","Close",580,0.58,1
"87",1001,1,44,"M","shape2.jpg","Friend","Matching","Friend","Friend","Friend","Close",339,0.339,1
"88",1001,1,44,"F","shape3.jpg","You","Nonmatching","Self","Stranger","Stranger","Stranger",556,0.556,1
"89",1001,1,45,"M","shape3.jpg","You","Nonmatching","Self","Stranger","Stranger","Stranger",373,0.373,1
"90",1001,1,45,"F","shape3.jpg","Friend","Nonmatching","Friend","Stranger","Stranger","Stranger",517,0.517,1
"91",1001,1,46,"M","shape1.jpg","You","Matching","Self","Self","Self","Self",418,0.418,1
"92",1001,1,46,"F","shape1.jpg","You","Matching","Self","Self","Self","Self",617,0.617,1
"93",1001,1,47,"M","shape1.jpg","Stranger","Nonmatching","Stranger","Self","Self","Self",432,0.432,1
"94",1001,1,47,"F","shape2.jpg","Stranger","Nonmatching","Stranger","Friend","Friend","Close",903,0.903,1
"95",1001,1,48,"M","shape3.jpg","Stranger","Matching","Stranger","Stranger","Stranger","Stranger",842,0.842,1
"96",1001,1,48,"F","shape1.jpg","You","Matching","Self","Self","Self","Self",590,0.59,1
"97",1001,1,49,"M","shape1.jpg","You","Matching","Self","Self","Self","Self",364,0.364,1
"98",1001,1,49,"F","shape3.jpg","Stranger","Matching","Stranger","Stranger","Stranger","Stranger",885,0.885,1
"99",1001,1,50,"M","shape1.jpg","Friend","Nonmatching","Friend","Self","Self","Self",423,0.423,1
"100",1001,1,50,"F","shape3.jpg","You","Nonmatching","Self","Stranger","Stranger","Stranger",927,0.927,1
"101",1001,1,51,"M","shape1.jpg","You","Matching","Self","Self","Self","Self",495,0.495,1
"102",1001,1,51,"F","shape3.jpg","Friend","Nonmatching","Friend","Stranger","Stranger","Stranger",421,0.421,1
"103",1001,1,52,"M","shape1.jpg","Friend","Nonmatching","Friend","Self","Self","Self",345,0.345,1
"104",1001,1,52,"F","shape2.jpg","Stranger","Nonmatching","Stranger","Friend","Friend","Close",543,0.543,1
"105",1001,1,53,"M","shape1.jpg","You","Matching","Self","Self","Self","Self",459,0.459,1
"106",1001,1,53,"F","shape2.jpg","Friend","Matching","Friend","Friend","Friend","Close",605,0.605,1
"107",1001,1,54,"M","shape3.jpg","Friend","Nonmatching","Friend","Stranger","Stranger","Stranger",409,0.409,1
"108",1001,1,54,"F","shape2.jpg","Stranger","Nonmatching","Stranger","Friend","Friend","Close",925,0.925,1
"109",1001,1,55,"M","shape1.jpg","Stranger","Nonmatching","Stranger","Self","Self","Self",503,0.503,1
"110",1001,1,55,"F","shape2.jpg","Friend","Matching","Friend","Friend","Friend","Close",616,0.616,1
"111",1001,1,56,"M","shape3.jpg","You","Nonmatching","Self","Stranger","Stranger","Stranger",399,0.399,1
"112",1001,1,56,"F","shape2.jpg","Stranger","Nonmatching","Stranger","Friend","Friend","Close",650,0.65,1
"113",1001,1,57,"M","shape3.jpg","Friend","Nonmatching","Friend","Stranger","Stranger","Stranger",450,0.45,1
"114",1001,1,57,"F","shape1.jpg","You","Matching","Self","Self","Self","Self",398,0.398,1
"115",1001,1,58,"M","shape2.jpg","Friend","Matching","Friend","Friend","Friend","Close",539,0.539,1
"116",1001,1,58,"F","shape3.jpg","You","Nonmatching","Self","Stranger","Stranger","Stranger",588,0.588,1
"117",1001,1,59,"M","shape3.jpg","Stranger","Matching","Stranger","Stranger","Stranger","Stranger",592,0.592,1
"118",1001,1,59,"F","shape1.jpg","You","Matching","Self","Self","Self","Self",548,0.548,1
"119",1001,1,60,"M","shape2.jpg","Friend","Matching","Friend","Friend","Friend","Close",459,0.459,1
"120",1001,1,60,"F","shape3.jpg","Stranger","Matching","Stranger","Stranger","Stranger","Stranger",486,0.486,0
"121",1001,1,61,"M","shape2.jpg","Friend","Matching","Friend","Friend","Friend","Close",430,0.43,1
"122",1001,1,61,"F","shape1.jpg","Friend","Nonmatching","Friend","Self","Self","Self",876,0.876,1
"123",1001,1,62,"M","shape1.jpg","You","Matching","Self","Self","Self","Self",406,0.406,1
"124",1001,1,62,"F","shape1.jpg","You","Matching","Self","Self","Self","Self",961,0.961,1
"125",1001,1,63,"M","shape3.jpg","Stranger","Matching","Stranger","Stranger","Stranger","Stranger",374,0.374,1
"126",1001,1,63,"F","shape1.jpg","You","Matching","Self","Self","Self","Self",533,0.533,1
"127",1001,1,64,"M","shape1.jpg","You","Matching","Self","Self","Self","Self",377,0.377,1
"128",1001,1,64,"F","shape3.jpg","Stranger","Matching","Stranger","Stranger","Stranger","Stranger",725,0.725,1
"129",1001,1,65,"M","shape2.jpg","Stranger","Nonmatching","Stranger","Friend","Friend","Close",682,0.682,1
"130",1001,1,65,"F","shape1.jpg","You","Matching","Self","Self","Self","Self",447,0.447,1
"131",1001,1,66,"M","shape3.jpg","Friend","Nonmatching","Friend","Stranger","Stranger","Stranger",975,0.975,1
"132",1001,1,66,"F","shape2.jpg","Friend","Matching","Friend","Friend","Friend","Close",421,0.421,1
"133",1001,1,67,"M","shape2.jpg","Friend","Matching","Friend","Friend","Friend","Close",494,0.494,1
"134",1001,1,67,"F","shape3.jpg","You","Nonmatching","Self","Stranger","Stranger","Stranger",770,0.77,1
"135",1001,1,68,"M","shape1.jpg","You","Matching","Self","Self","Self","Self",359,0.359,1
"136",1001,1,68,"F","shape2.jpg","Friend","Matching","Friend","Friend","Friend","Close",497,0.497,1
"137",1001,1,69,"M","shape3.jpg","Stranger","Matching","Stranger","Stranger","Stranger","Stranger",643,0.643,1
"138",1001,1,69,"F","shape1.jpg","You","Matching","Self","Self","Self","Self",1048,1.048,1
"139",1001,1,70,"M","shape3.jpg","Stranger","Matching","Stranger","Stranger","Stranger","Stranger",475,0.475,1
"140",1001,1,70,"F","shape3.jpg","Friend","Nonmatching","Friend","Stranger","Stranger","Stranger",731,0.731,1
"141",1001,1,71,"M","shape2.jpg","Friend","Matching","Friend","Friend","Friend","Close",435,0.435,1
"142",1001,1,71,"F","shape1.jpg","Friend","Nonmatching","Friend","Self","Self","Self",932,0.932,1
"143",1001,1,72,"M","shape2.jpg","Friend","Matching","Friend","Friend","Friend","Close",403,0.403,1
"144",1001,1,72,"F","shape2.jpg","You","Nonmatching","Self","Friend","Friend","Close",612,0.612,1
"145",1001,1,73,"M","shape2.jpg","Friend","Matching","Friend","Friend","Friend","Close",445,0.445,1
"146",1001,1,73,"F","shape2.jpg","Friend","Matching","Friend","Friend","Friend","Close",426,0.426,1
"147",1001,1,74,"M","shape3.jpg","Stranger","Matching","Stranger","Stranger","Stranger","Stranger",483,0.483,1
"148",1001,1,74,"F","shape2.jpg","You","Nonmatching","Self","Friend","Friend","Close",848,0.848,1
"149",1001,1,75,"M","shape1.jpg","You","Matching","Self","Self","Self","Self",658,0.658,1
"150",1001,1,75,"F","shape1.jpg","Stranger","Nonmatching","Stranger","Self","Self","Self",837,0.837,1
"151",1001,1,76,"M","shape3.jpg","You","Nonmatching","Self","Stranger","Stranger","Stranger",399,0.399,1
"152",1001,1,76,"F","shape2.jpg","Stranger","Nonmatching","Stranger","Friend","Friend","Close",572,0.572,1
"153",1001,1,77,"M","shape1.jpg","Friend","Nonmatching","Friend","Self","Self","Self",364,0.364,1
"154",1001,1,77,"F","shape3.jpg","Stranger","Matching","Stranger","Stranger","Stranger","Stranger",462,0.462,1
"155",1001,1,78,"M","shape2.jpg","You","Nonmatching","Self","Friend","Friend","Close",377,0.377,1
"156",1001,1,78,"F","shape1.jpg","You","Matching","Self","Self","Self","Self",513,0.513,1
"157",1001,1,79,"M","shape2.jpg","Stranger","Nonmatching","Stranger","Friend","Friend","Close",443,0.443,1
"158",1001,1,79,"F","shape3.jpg","You","Nonmatching","Self","Stranger","Stranger","Stranger",450,0.45,1
"159",1001,1,80,"M","shape3.jpg","Friend","Nonmatching","Friend","Stranger","Stranger","Stranger",499,0.499,1
"160",1001,1,80,"F","shape2.jpg","Friend","Matching","Friend","Friend","Friend","Close",410,0.41,1
"161",1001,1,81,"M","shape3.jpg","Stranger","Matching","Stranger","Stranger","Stranger","Stranger",629,0.629,1
"162",1001,1,81,"F","shape3.jpg","You","Nonmatching","Self","Stranger","Stranger","Stranger",677,0.677,1
"163",1001,1,82,"M","shape1.jpg","Stranger","Nonmatching","Stranger","Self","Self","Self",426,0.426,1
"164",1001,1,82,"F","shape1.jpg","Friend","Nonmatching","Friend","Self","Self","Self",415,0.415,1
"165",1001,1,83,"M","shape1.jpg","You","Matching","Self","Self","Self","Self",362,0.362,1
"166",1001,1,83,"F","shape3.jpg","Stranger","Matching","Stranger","Stranger","Stranger","Stranger",493,0.493,1
"167",1001,1,84,"M","shape3.jpg","Stranger","Matching","Stranger","Stranger","Stranger","Stranger",459,0.459,1
"168",1001,1,84,"F","shape1.jpg","You","Matching","Self","Self","Self","Self",563,0.563,1
"169",1001,2,85,"M","shape2.jpg","Stranger","Nonmatching","Stranger","Friend","Friend","Close",584,0.584,1
"170",1001,2,85,"F","shape2.jpg","Friend","Matching","Friend","Friend","Friend","Close",584,0.584,1
"171",1001,2,86,"M","shape2.jpg","You","Nonmatching","Self","Friend","Friend","Close",576,0.576,1
"172",1001,2,86,"F","shape3.jpg","Stranger","Matching","Stranger","Stranger","Stranger","Stranger",440,0.44,1
"173",1001,2,87,"M","shape2.jpg","Friend","Matching","Friend","Friend","Friend","Close",393,0.393,1
"174",1001,2,87,"F","shape1.jpg","You","Matching","Self","Self","Self","Self",446,0.446,1
"175",1001,2,88,"M","shape2.jpg","Stranger","Nonmatching","Stranger","Friend","Friend","Close",496,0.496,1
"176",1001,2,88,"F","shape3.jpg","Friend","Nonmatching","Friend","Stranger","Stranger","Stranger",578,0.578,1
"177",1001,2,89,"M","shape3.jpg","Friend","Nonmatching","Friend","Stranger","Stranger","Stranger",439,0.439,1
"178",1001,2,89,"F","shape3.jpg","You","Nonmatching","Self","Stranger","Stranger","Stranger",835,0.835,1
"179",1001,2,90,"M","shape3.jpg","Stranger","Matching","Stranger","Stranger","Stranger","Stranger",551,0.551,1
"180",1001,2,90,"F","shape3.jpg","Friend","Nonmatching","Friend","Stranger","Stranger","Stranger",499,0.499,1
"181",1001,2,91,"M","shape1.jpg","You","Matching","Self","Self","Self","Self",422,0.422,1
"182",1001,2,91,"F","shape2.jpg","Stranger","Nonmatching","Stranger","Friend","Friend","Close",575,0.575,1
"183",1001,2,92,"M","shape3.jpg","Friend","Nonmatching","Friend","Stranger","Stranger","Stranger",535,0.535,1
"184",1001,2,92,"F","shape2.jpg","You","Nonmatching","Self","Friend","Friend","Close",517,0.517,1
"185",1001,2,93,"M","shape3.jpg","You","Nonmatching","Self","Stranger","Stranger","Stranger",589,0.589,1
"186",1001,2,93,"F","shape2.jpg","Friend","Matching","Friend","Friend","Friend","Close",572,0.572,1
"187",1001,2,94,"M","shape1.jpg","Stranger","Nonmatching","Stranger","Self","Self","Self",411,0.411,1
"188",1001,2,94,"F","shape1.jpg","Friend","Nonmatching","Friend","Self","Self","Self",651,0.651,1
"189",1001,2,95,"M","shape2.jpg","Friend","Matching","Friend","Friend","Friend","Close",461,0.461,1
"190",1001,2,95,"F","shape2.jpg","Friend","Matching","Friend","Friend","Friend","Close",608,0.608,1
"191",1001,2,96,"M","shape2.jpg","Friend","Matching","Friend","Friend","Friend","Close",449,0.449,1
"192",1001,2,96,"F","shape1.jpg","You","Matching","Self","Self","Self","Self",562,0.562,1
"193",1001,2,97,"M","shape2.jpg","Friend","Matching","Friend","Friend","Friend","Close",479,0.479,1
"194",1001,2,97,"F","shape3.jpg","Stranger","Matching","Stranger","Stranger","Stranger","Stranger",550,0.55,1
"195",1001,2,98,"M","shape1.jpg","You","Matching","Self","Self","Self","Self",663,0.663,1
"196",1001,2,98,"F","shape1.jpg","You","Matching","Self","Self","Self","Self",544,0.544,1
"197",1001,2,99,"M","shape3.jpg","Stranger","Matching","Stranger","Stranger","Stranger","Stranger",652,0.652,1
"198",1001,2,99,"F","shape3.jpg","You","Nonmatching","Self","Stranger","Stranger","Stranger",741,0.741,1
"199",1001,2,100,"M","shape1.jpg","You","Matching","Self","Self","Self","Self",524,0.524,1
"200",1001,2,100,"F","shape1.jpg","You","Matching","Self","Self","Self","Self",423,0.423,1
"201",1001,2,101,"M","shape2.jpg","Stranger","Nonmatching","Stranger","Friend","Friend","Close",584,0.584,1
"202",1001,2,101,"F","shape3.jpg","Friend","Nonmatching","Friend","Stranger","Stranger","Stranger",539,0.539,1
"203",1001,2,102,"M","shape1.jpg","You","Matching","Self","Self","Self","Self",378,0.378,1
"204",1001,2,102,"F","shape3.jpg","Stranger","Matching","Stranger","Stranger","Stranger","Stranger",686,0.686,1
"205",1001,2,103,"M","shape2.jpg","You","Nonmatching","Self","Friend","Friend","Close",474,0.474,1
"206",1001,2,103,"F","shape1.jpg","Friend","Nonmatching","Friend","Self","Self","Self",438,0.438,1
"207",1001,2,104,"M","shape1.jpg","You","Matching","Self","Self","Self","Self",421,0.421,1
"208",1001,2,104,"F","shape1.jpg","Stranger","Nonmatching","Stranger","Self","Self","Self",426,0.426,1
"209",1001,2,105,"M","shape3.jpg","Friend","Nonmatching","Friend","Stranger","Stranger","Stranger",492,0.492,1
"210",1001,2,105,"F","shape3.jpg","You","Nonmatching","Self","Stranger","Stranger","Stranger",576,0.576,1
"211",1001,2,106,"M","shape3.jpg","Friend","Nonmatching","Friend","Stranger","Stranger","Stranger",409,0.409,1
"212",1001,2,106,"F","shape1.jpg","Stranger","Nonmatching","Stranger","Self","Self","Self",488,0.488,1
"213",1001,2,107,"M","shape2.jpg","You","Nonmatching","Self","Friend","Friend","Close",454,0.454,1
"214",1001,2,107,"F","shape1.jpg","You","Matching","Self","Self","Self","Self",559,0.559,1
"215",1001,2,108,"M","shape1.jpg","Friend","Nonmatching","Friend","Self","Self","Self",553,0.553,1
"216",1001,2,108,"F","shape2.jpg","Stranger","Nonmatching","Stranger","Friend","Friend","Close",537,0.537,1
"217",1001,2,109,"M","shape1.jpg","You","Matching","Self","Self","Self","Self",340,0.34,1
"218",1001,2,109,"F","shape1.jpg","You","Matching","Self","Self","Self","Self",536,0.536,1
"219",1001,2,110,"M","shape1.jpg","Friend","Nonmatching","Friend","Self","Self","Self",501,0.501,1
"220",1001,2,110,"F","shape3.jpg","Friend","Nonmatching","Friend","Stranger","Stranger","Stranger",429,0.429,1
"221",1001,2,111,"M","shape1.jpg","Friend","Nonmatching","Friend","Self","Self","Self",426,0.426,1
"222",1001,2,111,"F","shape2.jpg","Stranger","Nonmatching","Stranger","Friend","Friend","Close",866,0.866,1
"223",1001,2,112,"M","shape2.jpg","You","Nonmatching","Self","Friend","Friend","Close",575,0.575,1
"224",1001,2,112,"F","shape3.jpg","You","Nonmatching","Self","Stranger","Stranger","Stranger",443,0.443,1
"225",1001,2,113,"M","shape1.jpg","Friend","Nonmatching","Friend","Self","Self","Self",547,0.547,1
"226",1001,2,113,"F","shape3.jpg","Stranger","Matching","Stranger","Stranger","Stranger","Stranger",443,0.443,1
"227",1001,2,114,"M","shape1.jpg","You","Matching","Self","Self","Self","Self",560,0.56,1
"228",1001,2,114,"F","shape1.jpg","Friend","Nonmatching","Friend","Self","Self","Self",400,0.4,1
"229",1001,2,115,"M","shape3.jpg","Stranger","Matching","Stranger","Stranger","Stranger","Stranger",535,0.535,1
"230",1001,2,115,"F","shape1.jpg","You","Matching","Self","Self","Self","Self",489,0.489,1
"231",1001,2,116,"M","shape2.jpg","Stranger","Nonmatching","Stranger","Friend","Friend","Close",801,0.801,1
"232",1001,2,116,"F","shape3.jpg","Stranger","Matching","Stranger","Stranger","Stranger","Stranger",647,0.647,1
"233",1001,2,117,"M","shape1.jpg","You","Matching","Self","Self","Self","Self",554,0.554,1
"234",1001,2,117,"F","shape2.jpg","Friend","Matching","Friend","Friend","Friend","Close",521,0.521,1
"235",1001,2,118,"M","shape2.jpg","Friend","Matching","Friend","Friend","Friend","Close",412,0.412,1
"236",1001,2,118,"F","shape1.jpg","Stranger","Nonmatching","Stranger","Self","Self","Self",455,0.455,1
"237",1001,2,119,"M","shape3.jpg","Stranger","Matching","Stranger","Stranger","Stranger","Stranger",494,0.494,1
"238",1001,2,119,"F","shape2.jpg","Friend","Matching","Friend","Friend","Friend","Close",545,0.545,1
"239",1001,2,120,"M","shape3.jpg","You","Nonmatching","Self","Stranger","Stranger","Stranger",452,0.452,1
"240",1001,2,120,"F","shape2.jpg","You","Nonmatching","Self","Friend","Friend","Close",583,0.583,1
"241",1001,2,121,"M","shape3.jpg","Stranger","Matching","Stranger","Stranger","Stranger","Stranger",358,0.358,1
"242",1001,2,121,"F","shape2.jpg","You","Nonmatching","Self","Friend","Friend","Close",1001,1.001,1
"243",1001,2,122,"M","shape1.jpg","You","Matching","Self","Self","Self","Self",466,0.466,1
"244",1001,2,122,"F","shape3.jpg","Stranger","Matching","Stranger","Stranger","Stranger","Stranger",542,0.542,1
"245",1001,2,123,"M","shape2.jpg","Friend","Matching","Friend","Friend","Friend","Close",648,0.648,1
"246",1001,2,123,"F","shape1.jpg","You","Matching","Self","Self","Self","Self",449,0.449,1
"247",1001,2,124,"M","shape2.jpg","You","Nonmatching","Self","Friend","Friend","Close",446,0.446,1
"248",1001,2,124,"F","shape3.jpg","You","Nonmatching","Self","Stranger","Stranger","Stranger",483,0.483,1
"249",1001,2,125,"M","shape3.jpg","You","Nonmatching","Self","Stranger","Stranger","Stranger",463,0.463,1
"250",1001,2,125,"F","shape3.jpg","Stranger","Matching","Stranger","Stranger","Stranger","Stranger",584,0.584,0
"251",1001,2,126,"M","shape2.jpg","Friend","Matching","Friend","Friend","Friend","Close",584,0.584,1
"252",1001,2,126,"F","shape3.jpg","Friend","Nonmatching","Friend","Stranger","Stranger","Stranger",653,0.653,1
"253",1001,2,127,"M","shape1.jpg","You","Matching","Self","Self","Self","Self",983,0.983,1
"254",1001,2,127,"F","shape1.jpg","Friend","Nonmatching","Friend","Self","Self","Self",1011,1.011,1
"255",1001,2,128,"M","shape2.jpg","You","Nonmatching","Self","Friend","Friend","Close",657,0.657,1
"256",1001,2,128,"F","shape1.jpg","Stranger","Nonmatching","Stranger","Self","Self","Self",730,0.73,1
"257",1001,2,129,"M","shape1.jpg","Friend","Nonmatching","Friend","Self","Self","Self",388,0.388,1
"258",1001,2,129,"F","shape3.jpg","Stranger","Matching","Stranger","Stranger","Stranger","Stranger",506,0.506,1
"259",1001,2,130,"M","shape3.jpg","Stranger","Matching","Stranger","Stranger","Stranger","Stranger",511,0.511,1
"260",1001,2,130,"F","shape3.jpg","Stranger","Matching","Stranger","Stranger","Stranger","Stranger",1144,1.144,1
"261",1001,2,131,"M","shape1.jpg","You","Matching","Self","Self","Self","Self",475,0.475,1
"262",1001,2,131,"F","shape1.jpg","Stranger","Nonmatching","Stranger","Self","Self","Self",417,0.417,1
"263",1001,2,132,"M","shape2.jpg","Friend","Matching","Friend","Friend","Friend","Close",512,0.512,1
"264",1001,2,132,"F","shape2.jpg","You","Nonmatching","Self","Friend","Friend","Close",1246,1.246,1
"265",1001,2,133,"M","shape3.jpg","Stranger","Matching","Stranger","Stranger","Stranger","Stranger",479,0.479,1
"266",1001,2,133,"F","shape2.jpg","Friend","Matching","Friend","Friend","Friend","Close",474,0.474,1
"267",1001,2,134,"M","shape3.jpg","Friend","Nonmatching","Friend","Stranger","Stranger","Stranger",762,0.762,1
"268",1001,2,134,"F","shape1.jpg","You","Matching","Self","Self","Self","Self",456,0.456,1
"269",1001,2,135,"M","shape2.jpg","Stranger","Nonmatching","Stranger","Friend","Friend","Close",557,0.557,1
"270",1001,2,135,"F","shape2.jpg","You","Nonmatching","Self","Friend","Friend","Close",589,0.589,1
"271",1001,2,136,"M","shape3.jpg","Friend","Nonmatching","Friend","Stranger","Stranger","Stranger",424,0.424,1
"272",1001,2,136,"F","shape3.jpg","You","Nonmatching","Self","Stranger","Stranger","Stranger",468,0.468,1
"273",1001,2,137,"M","shape1.jpg","Stranger","Nonmatching","Stranger","Self","Self","Self",426,0.426,1
"274",1001,2,137,"F","shape2.jpg","Stranger","Nonmatching","Stranger","Friend","Friend","Close",838,0.838,1
"275",1001,2,138,"M","shape2.jpg","Stranger","Nonmatching","Stranger","Friend","Friend","Close",545,0.545,1
"276",1001,2,138,"F","shape2.jpg","Friend","Matching","Friend","Friend","Friend","Close",502,0.502,1
"277",1001,2,139,"M","shape1.jpg","Friend","Nonmatching","Friend","Self","Self","Self",437,0.437,1
"278",1001,2,139,"F","shape1.jpg","Stranger","Nonmatching","Stranger","Self","Self","Self",624,0.624,1
"279",1001,2,140,"M","shape3.jpg","Stranger","Matching","Stranger","Stranger","Stranger","Stranger",645,0.645,1
"280",1001,2,140,"F","shape2.jpg","You","Nonmatching","Self","Friend","Friend","Close",518,0.518,1
"281",1001,2,141,"M","shape1.jpg","You","Matching","Self","Self","Self","Self",439,0.439,1
"282",1001,2,141,"F","shape3.jpg","Stranger","Matching","Stranger","Stranger","Stranger","Stranger",722,0.722,1
"283",1001,2,142,"M","shape3.jpg","Stranger","Matching","Stranger","Stranger","Stranger","Stranger",523,0.523,1
"284",1001,2,142,"F","shape1.jpg","Friend","Nonmatching","Friend","Self","Self","Self",454,0.454,1
"285",1001,2,143,"M","shape1.jpg","Friend","Nonmatching","Friend","Self","Self","Self",525,0.525,1
"286",1001,2,143,"F","shape2.jpg","Stranger","Nonmatching","Stranger","Friend","Friend","Close",642,0.642,1
"287",1001,2,144,"M","shape3.jpg","Stranger","Matching","Stranger","Stranger","Stranger","Stranger",501,0.501,1
"288",1001,2,144,"F","shape1.jpg","You","Matching","Self","Self","Self","Self",684,0.684,1
"289",1001,2,145,"M","shape2.jpg","Stranger","Nonmatching","Stranger","Friend","Friend","Close",435,0.435,1
"290",1001,2,145,"F","shape1.jpg","Stranger","Nonmatching","Stranger","Self","Self","Self",378,0.378,1
"291",1001,2,146,"M","shape2.jpg","Friend","Matching","Friend","Friend","Friend","Close",447,0.447,1
"292",1001,2,146,"F","shape1.jpg","You","Matching","Self","Self","Self","Self",555,0.555,1
"293",1001,2,147,"M","shape2.jpg","Friend","Matching","Friend","Friend","Friend","Close",376,0.376,1
"294",1001,2,147,"F","shape3.jpg","You","Nonmatching","Self","Stranger","Stranger","Stranger",475,0.475,1
"295",1001,2,148,"M","shape3.jpg","You","Nonmatching","Self","Stranger","Stranger","Stranger",431,0.431,1
"296",1001,2,148,"F","shape2.jpg","Stranger","Nonmatching","Stranger","Friend","Friend","Close",583,0.583,1
"297",1001,2,149,"M","shape1.jpg","Stranger","Nonmatching","Stranger","Self","Self","Self",391,0.391,1
"298",1001,2,149,"F","shape3.jpg","Stranger","Matching","Stranger","Stranger","Stranger","Stranger",522,0.522,1
"299",1001,2,150,"M","shape1.jpg","Stranger","Nonmatching","Stranger","Self","Self","Self",1021,1.021,1
"300",1001,2,150,"F","shape3.jpg","Friend","Nonmatching","Friend","Stranger","Stranger","Stranger",537,0.537,1
"301",1001,2,151,"M","shape1.jpg","You","Matching","Self","Self","Self","Self",680,0.68,1
"302",1001,2,151,"F","shape1.jpg","You","Matching","Self","Self","Self","Self",704,0.704,1
"303",1001,2,152,"M","shape3.jpg","Friend","Nonmatching","Friend","Stranger","Stranger","Stranger",425,0.425,1
"304",1001,2,152,"F","shape2.jpg","You","Nonmatching","Self","Friend","Friend","Close",477,0.477,1
"305",1001,2,153,"M","shape3.jpg","Stranger","Matching","Stranger","Stranger","Stranger","Stranger",478,0.478,1
"306",1001,2,153,"F","shape2.jpg","Friend","Matching","Friend","Friend","Friend","Close",511,0.511,1
"307",1001,2,154,"M","shape1.jpg","Stranger","Nonmatching","Stranger","Self","Self","Self",388,0.388,1
"308",1001,2,154,"F","shape2.jpg","Friend","Matching","Friend","Friend","Friend","Close",473,0.473,1
"309",1001,2,155,"M","shape2.jpg","You","Nonmatching","Self","Friend","Friend","Close",385,0.385,1
"310",1001,2,155,"F","shape1.jpg","You","Matching","Self","Self","Self","Self",518,0.518,1
"311",1001,2,156,"M","shape3.jpg","Stranger","Matching","Stranger","Stranger","Stranger","Stranger",573,0.573,1
"312",1001,2,156,"F","shape3.jpg","Friend","Nonmatching","Friend","Stranger","Stranger","Stranger",479,0.479,1
"313",1001,2,157,"M","shape2.jpg","Friend","Matching","Friend","Friend","Friend","Close",499,0.499,1
"314",1001,2,157,"F","shape3.jpg","Stranger","Matching","Stranger","Stranger","Stranger","Stranger",440,0.44,1
"315",1001,2,158,"M","shape1.jpg","You","Matching","Self","Self","Self","Self",468,0.468,1
"316",1001,2,158,"F","shape2.jpg","Stranger","Nonmatching","Stranger","Friend","Friend","Close",651,0.651,1
"317",1001,2,159,"M","shape3.jpg","You","Nonmatching","Self","Stranger","Stranger","Stranger",451,0.451,1
"318",1001,2,159,"F","shape3.jpg","Stranger","Matching","Stranger","Stranger","Stranger","Stranger",821,0.821,1
"319",1001,2,160,"M","shape3.jpg","Stranger","Matching","Stranger","Stranger","Stranger","Stranger",622,0.622,1
"320",1001,2,160,"F","shape2.jpg","Friend","Matching","Friend","Friend","Friend","Close",407,0.407,1
"321",1001,2,161,"M","shape2.jpg","Friend","Matching","Friend","Friend","Friend","Close",976,0.976,1
"322",1001,2,161,"F","shape3.jpg","Stranger","Matching","Stranger","Stranger","Stranger","Stranger",554,0.554,1
"323",1001,2,162,"M","shape3.jpg","Stranger","Matching","Stranger","Stranger","Stranger","Stranger",402,0.402,1
"324",1001,2,162,"F","shape2.jpg","Friend","Matching","Friend","Friend","Friend","Close",515,0.515,1
"325",1001,2,163,"M","shape1.jpg","Stranger","Nonmatching","Stranger","Self","Self","Self",362,0.362,1
"326",1001,2,163,"F","shape2.jpg","Friend","Matching","Friend","Friend","Friend","Close",497,0.497,1
"327",1001,2,164,"M","shape3.jpg","You","Nonmatching","Self","Stranger","Stranger","Stranger",418,0.418,1
"328",1001,2,164,"F","shape2.jpg","Friend","Matching","Friend","Friend","Friend","Close",494,0.494,1
"329",1001,2,165,"M","shape3.jpg","You","Nonmatching","Self","Stranger","Stranger","Stranger",417,0.417,1
"330",1001,2,165,"F","shape1.jpg","You","Matching","Self","Self","Self","Self",920,0.92,1
"331",1001,2,166,"M","shape2.jpg","Friend","Matching","Friend","Friend","Friend","Close",491,0.491,1
"332",1001,2,166,"F","shape1.jpg","Friend","Nonmatching","Friend","Self","Self","Self",385,0.385,1
"333",1001,2,167,"M","shape1.jpg","Stranger","Nonmatching","Stranger","Self","Self","Self",419,0.419,1
"334",1001,2,167,"F","shape2.jpg","Friend","Matching","Friend","Friend","Friend","Close",526,0.526,1
"335",1001,2,168,"M","shape2.jpg","Friend","Matching","Friend","Friend","Friend","Close",613,0.613,1
"336",1001,2,168,"F","shape1.jpg","Friend","Nonmatching","Friend","Self","Self","Self",425,0.425,1
"337",1001,3,169,"M","shape3.jpg","You","Nonmatching","Self","Stranger","Stranger","Stranger",498,0.498,1
"338",1001,3,169,"F","shape1.jpg","You","Matching","Self","Self","Self","Self",460,0.46,1
"339",1001,3,170,"M","shape3.jpg","You","Nonmatching","Self","Stranger","Stranger","Stranger",489,0.489,1
"340",1001,3,170,"F","shape2.jpg","You","Nonmatching","Self","Friend","Friend","Close",481,0.481,1
"341",1001,3,171,"M","shape2.jpg","You","Nonmatching","Self","Friend","Friend","Close",414,0.414,1
"342",1001,3,171,"F","shape1.jpg","Friend","Nonmatching","Friend","Self","Self","Self",392,0.392,1
"343",1001,3,172,"M","shape2.jpg","Friend","Matching","Friend","Friend","Friend","Close",318,0.318,1
"344",1001,3,172,"F","shape2.jpg","Friend","Matching","Friend","Friend","Friend","Close",418,0.418,1
"345",1001,3,173,"M","shape3.jpg","You","Nonmatching","Self","Stranger","Stranger","Stranger",459,0.459,1
"346",1001,3,173,"F","shape3.jpg","Stranger","Matching","Stranger","Stranger","Stranger","Stranger",599,0.599,1
"347",1001,3,174,"M","shape2.jpg","Friend","Matching","Friend","Friend","Friend","Close",524,0.524,1
"348",1001,3,174,"F","shape3.jpg","Stranger","Matching","Stranger","Stranger","Stranger","Stranger",479,0.479,1
"349",1001,3,175,"M","shape3.jpg","Stranger","Matching","Stranger","Stranger","Stranger","Stranger",442,0.442,1
"350",1001,3,175,"F","shape2.jpg","Friend","Matching","Friend","Friend","Friend","Close",444,0.444,1
"351",1001,3,176,"M","shape2.jpg","You","Nonmatching","Self","Friend","Friend","Close",390,0.39,1
"352",1001,3,176,"F","shape3.jpg","Friend","Nonmatching","Friend","Stranger","Stranger","Stranger",621,0.621,1
"353",1001,3,177,"M","shape3.jpg","Friend","Nonmatching","Friend","Stranger","Stranger","Stranger",426,0.426,1
"354",1001,3,177,"F","shape3.jpg","Stranger","Matching","Stranger","Stranger","Stranger","Stranger",432,0.432,1
"355",1001,3,178,"M","shape2.jpg","Stranger","Nonmatching","Stranger","Friend","Friend","Close",498,0.498,1
"356",1001,3,178,"F","shape2.jpg","You","Nonmatching","Self","Friend","Friend","Close",535,0.535,1
"357",1001,3,179,"M","shape1.jpg","You","Matching","Self","Self","Self","Self",474,0.474,1
"358",1001,3,179,"F","shape1.jpg","Stranger","Nonmatching","Stranger","Self","Self","Self",431,0.431,1
"359",1001,3,180,"M","shape3.jpg","Stranger","Matching","Stranger","Stranger","Stranger","Stranger",519,0.519,1
"360",1001,3,180,"F","shape1.jpg","Friend","Nonmatching","Friend","Self","Self","Self",470,0.47,1
"361",1001,3,181,"M","shape1.jpg","Friend","Nonmatching","Friend","Self","Self","Self",905,0.905,1
"362",1001,3,181,"F","shape3.jpg","Stranger","Matching","Stranger","Stranger","Stranger","Stranger",558,0.558,1
"363",1001,3,182,"M","shape2.jpg","Stranger","Nonmatching","Stranger","Friend","Friend","Close",432,0.432,1
"364",1001,3,182,"F","shape3.jpg","Stranger","Matching","Stranger","Stranger","Stranger","Stranger",488,0.488,1
"365",1001,3,183,"M","shape1.jpg","Stranger","Nonmatching","Stranger","Self","Self","Self",494,0.494,1
"366",1001,3,183,"F","shape1.jpg","Friend","Nonmatching","Friend","Self","Self","Self",441,0.441,1
"367",1001,3,184,"M","shape2.jpg","Stranger","Nonmatching","Stranger","Friend","Friend","Close",551,0.551,1
"368",1001,3,184,"F","shape3.jpg","You","Nonmatching","Self","Stranger","Stranger","Stranger",549,0.549,1
"369",1001,3,185,"M","shape2.jpg","Stranger","Nonmatching","Stranger","Friend","Friend","Close",1069,1.069,1
"370",1001,3,185,"F","shape2.jpg","Stranger","Nonmatching","Stranger","Friend","Friend","Close",557,0.557,1
"371",1001,3,186,"M","shape1.jpg","You","Matching","Self","Self","Self","Self",504,0.504,1
"372",1001,3,186,"F","shape1.jpg","Friend","Nonmatching","Friend","Self","Self","Self",496,0.496,1
"373",1001,3,187,"M","shape3.jpg","Friend","Nonmatching","Friend","Stranger","Stranger","Stranger",540,0.54,1
"374",1001,3,187,"F","shape2.jpg","Stranger","Nonmatching","Stranger","Friend","Friend","Close",388,0.388,1
"375",1001,3,188,"M","shape1.jpg","Friend","Nonmatching","Friend","Self","Self","Self",405,0.405,1
"376",1001,3,188,"F","shape3.jpg","You","Nonmatching","Self","Stranger","Stranger","Stranger",519,0.519,1
"377",1001,3,189,"M","shape3.jpg","Stranger","Matching","Stranger","Stranger","Stranger","Stranger",695,0.695,1
"378",1001,3,189,"F","shape3.jpg","Friend","Nonmatching","Friend","Stranger","Stranger","Stranger",455,0.455,1
"379",1001,3,190,"M","shape1.jpg","Friend","Nonmatching","Friend","Self","Self","Self",542,0.542,1
"380",1001,3,190,"F","shape1.jpg","You","Matching","Self","Self","Self","Self",772,0.772,1
"381",1001,3,191,"M","shape3.jpg","You","Nonmatching","Self","Stranger","Stranger","Stranger",449,0.449,1
"382",1001,3,191,"F","shape1.jpg","Friend","Nonmatching","Friend","Self","Self","Self",385,0.385,1
"383",1001,3,192,"M","shape3.jpg","Stranger","Matching","Stranger","Stranger","Stranger","Stranger",420,0.42,1
"384",1001,3,192,"F","shape1.jpg","Stranger","Nonmatching","Stranger","Self","Self","Self",425,0.425,1
"385",1001,3,193,"M","shape2.jpg","Friend","Matching","Friend","Friend","Friend","Close",628,0.628,1
"386",1001,3,193,"F","shape3.jpg","Stranger","Matching","Stranger","Stranger","Stranger","Stranger",449,0.449,1
"387",1001,3,194,"M","shape2.jpg","Friend","Matching","Friend","Friend","Friend","Close",466,0.466,1
"388",1001,3,194,"F","shape1.jpg","You","Matching","Self","Self","Self","Self",539,0.539,1
"389",1001,3,195,"M","shape1.jpg","Stranger","Nonmatching","Stranger","Self","Self","Self",366,0.366,1
"390",1001,3,195,"F","shape1.jpg","You","Matching","Self","Self","Self","Self",460,0.46,1
"391",1001,3,196,"M","shape3.jpg","You","Nonmatching","Self","Stranger","Stranger","Stranger",504,0.504,1
"392",1001,3,196,"F","shape1.jpg","Stranger","Nonmatching","Stranger","Self","Self","Self",359,0.359,1
"393",1001,3,197,"M","shape1.jpg","Stranger","Nonmatching","Stranger","Self","Self","Self",587,0.587,1
"394",1001,3,197,"F","shape1.jpg","Stranger","Nonmatching","Stranger","Self","Self","Self",664,0.664,1
"395",1001,3,198,"M","shape3.jpg","Stranger","Matching","Stranger","Stranger","Stranger","Stranger",1153,1.153,1
"396",1001,3,198,"F","shape1.jpg","Stranger","Nonmatching","Stranger","Self","Self","Self",525,0.525,1
"397",1001,3,199,"M","shape2.jpg","Friend","Matching","Friend","Friend","Friend","Close",513,0.513,1
"398",1001,3,199,"F","shape2.jpg","Friend","Matching","Friend","Friend","Friend","Close",538,0.538,1
"399",1001,3,200,"M","shape1.jpg","Friend","Nonmatching","Friend","Self","Self","Self",393,0.393,1
"400",1001,3,200,"F","shape3.jpg","Friend","Nonmatching","Friend","Stranger","Stranger","Stranger",416,0.416,1
"401",1001,3,201,"M","shape3.jpg","Stranger","Matching","Stranger","Stranger","Stranger","Stranger",458,0.458,1
"402",1001,3,201,"F","shape2.jpg","Friend","Matching","Friend","Friend","Friend","Close",499,0.499,1
"403",1001,3,202,"M","shape1.jpg","Stranger","Nonmatching","Stranger","Self","Self","Self",377,0.377,1
"404",1001,3,202,"F","shape3.jpg","Friend","Nonmatching","Friend","Stranger","Stranger","Stranger",434,0.434,1
"405",1001,3,203,"M","shape2.jpg","You","Nonmatching","Self","Friend","Friend","Close",475,0.475,1
"406",1001,3,203,"F","shape2.jpg","Friend","Matching","Friend","Friend","Friend","Close",456,0.456,1
"407",1001,3,204,"M","shape1.jpg","You","Matching","Self","Self","Self","Self",418,0.418,1
"408",1001,3,204,"F","shape3.jpg","Stranger","Matching","Stranger","Stranger","Stranger","Stranger",550,0.55,1
"409",1001,3,205,"M","shape2.jpg","You","Nonmatching","Self","Friend","Friend","Close",557,0.557,1
"410",1001,3,205,"F","shape1.jpg","Stranger","Nonmatching","Stranger","Self","Self","Self",520,0.52,1
"411",1001,3,206,"M","shape2.jpg","You","Nonmatching","Self","Friend","Friend","Close",585,0.585,1
"412",1001,3,206,"F","shape1.jpg","Friend","Nonmatching","Friend","Self","Self","Self",439,0.439,1
"413",1001,3,207,"M","shape2.jpg","Friend","Matching","Friend","Friend","Friend","Close",679,0.679,1
"414",1001,3,207,"F","shape1.jpg","You","Matching","Self","Self","Self","Self",363,0.363,1
"415",1001,3,208,"M","shape1.jpg","Stranger","Nonmatching","Stranger","Self","Self","Self",482,0.482,1
"416",1001,3,208,"F","shape2.jpg","Stranger","Nonmatching","Stranger","Friend","Friend","Close",446,0.446,1
"417",1001,3,209,"M","shape2.jpg","Friend","Matching","Friend","Friend","Friend","Close",527,0.527,1
"418",1001,3,209,"F","shape3.jpg","Stranger","Matching","Stranger","Stranger","Stranger","Stranger",426,0.426,1
"419",1001,3,210,"M","shape2.jpg","Friend","Matching","Friend","Friend","Friend","Close",529,0.529,1
"420",1001,3,210,"F","shape3.jpg","Stranger","Matching","Stranger","Stranger","Stranger","Stranger",488,0.488,1
"421",1001,3,211,"M","shape3.jpg","Stranger","Matching","Stranger","Stranger","Stranger","Stranger",574,0.574,1
"422",1001,3,211,"F","shape1.jpg","You","Matching","Self","Self","Self","Self",488,0.488,1
"423",1001,3,212,"M","shape2.jpg","You","Nonmatching","Self","Friend","Friend","Close",393,0.393,1
"424",1001,3,212,"F","shape3.jpg","Stranger","Matching","Stranger","Stranger","Stranger","Stranger",442,0.442,1
"425",1001,3,213,"M","shape2.jpg","You","Nonmatching","Self","Friend","Friend","Close",459,0.459,1
"426",1001,3,213,"F","shape3.jpg","Friend","Nonmatching","Friend","Stranger","Stranger","Stranger",666,0.666,1
"427",1001,3,214,"M","shape2.jpg","Stranger","Nonmatching","Stranger","Friend","Friend","Close",492,0.492,1
"428",1001,3,214,"F","shape1.jpg","You","Matching","Self","Self","Self","Self",604,0.604,1
"429",1001,3,215,"M","shape3.jpg","Stranger","Matching","Stranger","Stranger","Stranger","Stranger",648,0.648,1
"430",1001,3,215,"F","shape3.jpg","You","Nonmatching","Self","Stranger","Stranger","Stranger",436,0.436,1
"431",1001,3,216,"M","shape1.jpg","You","Matching","Self","Self","Self","Self",373,0.373,1
"432",1001,3,216,"F","shape3.jpg","You","Nonmatching","Self","Stranger","Stranger","Stranger",544,0.544,1
"433",1001,3,217,"M","shape3.jpg","Stranger","Matching","Stranger","Stranger","Stranger","Stranger",544,0.544,1
"434",1001,3,217,"F","shape1.jpg","Stranger","Nonmatching","Stranger","Self","Self","Self",409,0.409,1
"435",1001,3,218,"M","shape1.jpg","Friend","Nonmatching","Friend","Self","Self","Self",430,0.43,1
"436",1001,3,218,"F","shape2.jpg","Stranger","Nonmatching","Stranger","Friend","Friend","Close",476,0.476,1
"437",1001,3,219,"M","shape3.jpg","Stranger","Matching","Stranger","Stranger","Stranger","Stranger",516,0.516,1
"438",1001,3,219,"F","shape3.jpg","You","Nonmatching","Self","Stranger","Stranger","Stranger",470,0.47,1
"439",1001,3,220,"M","shape2.jpg","Friend","Matching","Friend","Friend","Friend","Close",452,0.452,1
"440",1001,3,220,"F","shape1.jpg","You","Matching","Self","Self","Self","Self",392,0.392,1
"441",1001,3,221,"M","shape1.jpg","You","Matching","Self","Self","Self","Self",446,0.446,1
"442",1001,3,221,"F","shape2.jpg","Friend","Matching","Friend","Friend","Friend","Close",562,0.562,1
"443",1001,3,222,"M","shape1.jpg","You","Matching","Self","Self","Self","Self",495,0.495,1
"444",1001,3,222,"F","shape2.jpg","Stranger","Nonmatching","Stranger","Friend","Friend","Close",391,0.391,1
"445",1001,3,223,"M","shape3.jpg","Stranger","Matching","Stranger","Stranger","Stranger","Stranger",410,0.41,1
"446",1001,3,223,"F","shape2.jpg","Stranger","Nonmatching","Stranger","Friend","Friend","Close",425,0.425,1
"447",1001,3,224,"M","shape1.jpg","Friend","Nonmatching","Friend","Self","Self","Self",396,0.396,1
"448",1001,3,224,"F","shape1.jpg","You","Matching","Self","Self","Self","Self",458,0.458,1
"449",1001,3,225,"M","shape3.jpg","Stranger","Matching","Stranger","Stranger","Stranger","Stranger",536,0.536,1
"450",1001,3,225,"F","shape3.jpg","Stranger","Matching","Stranger","Stranger","Stranger","Stranger",489,0.489,1
"451",1001,3,226,"M","shape3.jpg","You","Nonmatching","Self","Stranger","Stranger","Stranger",636,0.636,1
"452",1001,3,226,"F","shape3.jpg","Stranger","Matching","Stranger","Stranger","Stranger","Stranger",663,0.663,1
"453",1001,3,227,"M","shape3.jpg","Friend","Nonmatching","Friend","Stranger","Stranger","Stranger",566,0.566,1
"454",1001,3,227,"F","shape2.jpg","Friend","Matching","Friend","Friend","Friend","Close",363,0.363,1
"455",1001,3,228,"M","shape2.jpg","Friend","Matching","Friend","Friend","Friend","Close",498,0.498,1
"456",1001,3,228,"F","shape2.jpg","Friend","Matching","Friend","Friend","Friend","Close",427,0.427,1
"457",1001,3,229,"M","shape2.jpg","Friend","Matching","Friend","Friend","Friend","Close",463,0.463,1
"458",1001,3,229,"F","shape3.jpg","Stranger","Matching","Stranger","Stranger","Stranger","Stranger",725,0.725,1
"459",1001,3,230,"M","shape1.jpg","Stranger","Nonmatching","Stranger","Self","Self","Self",723,0.723,1
"460",1001,3,230,"F","shape1.jpg","You","Matching","Self","Self","Self","Self",473,0.473,1
"461",1001,3,231,"M","shape2.jpg","Friend","Matching","Friend","Friend","Friend","Close",693,0.693,1
"462",1001,3,231,"F","shape1.jpg","You","Matching","Self","Self","Self","Self",482,0.482,1
"463",1001,3,232,"M","shape3.jpg","Friend","Nonmatching","Friend","Stranger","Stranger","Stranger",589,0.589,1
"464",1001,3,232,"F","shape2.jpg","Friend","Matching","Friend","Friend","Friend","Close",370,0.37,1
"465",1001,3,233,"M","shape3.jpg","Stranger","Matching","Stranger","Stranger","Stranger","Stranger",795,0.795,1
"466",1001,3,233,"F","shape1.jpg","You","Matching","Self","Self","Self","Self",450,0.45,1
"467",1001,3,234,"M","shape1.jpg","You","Matching","Self","Self","Self","Self",515,0.515,1
"468",1001,3,234,"F","shape3.jpg","You","Nonmatching","Self","Stranger","Stranger","Stranger",413,0.413,1
"469",1001,3,235,"M","shape2.jpg","Friend","Matching","Friend","Friend","Friend","Close",477,0.477,1
"470",1001,3,235,"F","shape2.jpg","Friend","Matching","Friend","Friend","Friend","Close",489,0.489,1
"471",1001,3,236,"M","shape3.jpg","You","Nonmatching","Self","Stranger","Stranger","Stranger",418,0.418,1
"472",1001,3,236,"F","shape2.jpg","Friend","Matching","Friend","Friend","Friend","Close",516,0.516,1
"473",1001,3,237,"M","shape1.jpg","You","Matching","Self","Self","Self","Self",531,0.531,1
"474",1001,3,237,"F","shape2.jpg","Friend","Matching","Friend","Friend","Friend","Close",411,0.411,1
"475",1001,3,238,"M","shape3.jpg","Stranger","Matching","Stranger","Stranger","Stranger","Stranger",439,0.439,1
"476",1001,3,238,"F","shape3.jpg","Stranger","Matching","Stranger","Stranger","Stranger","Stranger",520,0.52,1
"477",1001,3,239,"M","shape3.jpg","Friend","Nonmatching","Friend","Stranger","Stranger","Stranger",442,0.442,1
"478",1001,3,239,"F","shape1.jpg","You","Matching","Self","Self","Self","Self",355,0.355,1
"479",1001,3,240,"M","shape1.jpg","You","Matching","Self","Self","Self","Self",421,0.421,1
"480",1001,3,240,"F","shape1.jpg","You","Matching","Self","Self","Self","Self",529,0.529,1
"481",1001,3,241,"M","shape1.jpg","Stranger","Nonmatching","Stranger","Self","Self","Self",441,0.441,1
"482",1001,3,241,"F","shape3.jpg","Friend","Nonmatching","Friend","Stranger","Stranger","Stranger",605,0.605,1
"483",1001,3,242,"M","shape3.jpg","Friend","Nonmatching","Friend","Stranger","Stranger","Stranger",541,0.541,1
"484",1001,3,242,"F","shape2.jpg","You","Nonmatching","Self","Friend","Friend","Close",503,0.503,1
"485",1001,3,243,"M","shape2.jpg","Friend","Matching","Friend","Friend","Friend","Close",457,0.457,1
"486",1001,3,243,"F","shape2.jpg","You","Nonmatching","Self","Friend","Friend","Close",515,0.515,1
"487",1001,3,244,"M","shape1.jpg","You","Matching","Self","Self","Self","Self",561,0.561,1
"488",1001,3,244,"F","shape2.jpg","You","Nonmatching","Self","Friend","Friend","Close",843,0.843,1
"489",1001,3,245,"M","shape1.jpg","You","Matching","Self","Self","Self","Self",439,0.439,1
"490",1001,3,245,"F","shape2.jpg","Stranger","Nonmatching","Stranger","Friend","Friend","Close",929,0.929,1
"491",1001,3,246,"M","shape3.jpg","Friend","Nonmatching","Friend","Stranger","Stranger","Stranger",451,0.451,1
"492",1001,3,246,"F","shape1.jpg","Friend","Nonmatching","Friend","Self","Self","Self",477,0.477,1
"493",1001,3,247,"M","shape1.jpg","You","Matching","Self","Self","Self","Self",454,0.454,1
"494",1001,3,247,"F","shape3.jpg","You","Nonmatching","Self","Stranger","Stranger","Stranger",535,0.535,1
"495",1001,3,248,"M","shape2.jpg","Stranger","Nonmatching","Stranger","Friend","Friend","Close",733,0.733,1
"496",1001,3,248,"F","shape2.jpg","You","Nonmatching","Self","Friend","Friend","Close",480,0.48,1
"497",1001,3,249,"M","shape2.jpg","Stranger","Nonmatching","Stranger","Friend","Friend","Close",504,0.504,1
"498",1001,3,249,"F","shape2.jpg","You","Nonmatching","Self","Friend","Friend","Close",459,0.459,1
"499",1001,3,250,"M","shape1.jpg","You","Matching","Self","Self","Self","Self",557,0.557,1
"500",1001,3,250,"F","shape2.jpg","Friend","Matching","Friend","Friend","Friend","Close",399,0.399,1
"501",1001,3,251,"M","shape1.jpg","You","Matching","Self","Self","Self","Self",780,0.78,1
"502",1001,3,251,"F","shape2.jpg","Friend","Matching","Friend","Friend","Friend","Close",485,0.485,1
"503",1001,3,252,"M","shape1.jpg","Friend","Nonmatching","Friend","Self","Self","Self",463,0.463,1
"504",1001,3,252,"F","shape3.jpg","Friend","Nonmatching","Friend","Stranger","Stranger","Stranger",456,0.456,1
"505",1001,4,253,"M","shape3.jpg","You","Nonmatching","Self","Stranger","Stranger","Stranger",515,0.515,1
"506",1001,4,253,"F","shape1.jpg","You","Matching","Self","Self","Self","Self",393,0.393,1
"507",1001,4,254,"M","shape1.jpg","You","Matching","Self","Self","Self","Self",429,0.429,1
"508",1001,4,254,"F","shape3.jpg","Stranger","Matching","Stranger","Stranger","Stranger","Stranger",524,0.524,1
"509",1001,4,255,"M","shape1.jpg","You","Matching","Self","Self","Self","Self",444,0.444,1
"510",1001,4,255,"F","shape2.jpg","Friend","Matching","Friend","Friend","Friend","Close",395,0.395,1
"511",1001,4,256,"M","shape1.jpg","You","Matching","Self","Self","Self","Self",475,0.475,1
"512",1001,4,256,"F","shape2.jpg","Friend","Matching","Friend","Friend","Friend","Close",467,0.467,1
"513",1001,4,257,"M","shape1.jpg","Friend","Nonmatching","Friend","Self","Self","Self",552,0.552,1
"514",1001,4,257,"F","shape3.jpg","Stranger","Matching","Stranger","Stranger","Stranger","Stranger",659,0.659,1
"515",1001,4,258,"M","shape2.jpg","You","Nonmatching","Self","Friend","Friend","Close",408,0.408,1
"516",1001,4,258,"F","shape1.jpg","Friend","Nonmatching","Friend","Self","Self","Self",720,0.72,1
"517",1001,4,259,"M","shape2.jpg","You","Nonmatching","Self","Friend","Friend","Close",429,0.429,1
"518",1001,4,259,"F","shape3.jpg","Stranger","Matching","Stranger","Stranger","Stranger","Stranger",423,0.423,1
"519",1001,4,260,"M","shape2.jpg","Stranger","Nonmatching","Stranger","Friend","Friend","Close",480,0.48,1
"520",1001,4,260,"F","shape1.jpg","Friend","Nonmatching","Friend","Self","Self","Self",499,0.499,1
"521",1001,4,261,"M","shape2.jpg","You","Nonmatching","Self","Friend","Friend","Close",671,0.671,1
"522",1001,4,261,"F","shape1.jpg","You","Matching","Self","Self","Self","Self",476,0.476,1
"523",1001,4,262,"M","shape1.jpg","You","Matching","Self","Self","Self","Self",392,0.392,1
"524",1001,4,262,"F","shape3.jpg","Stranger","Matching","Stranger","Stranger","Stranger","Stranger",380,0.38,1
"525",1001,4,263,"M","shape2.jpg","You","Nonmatching","Self","Friend","Friend","Close",446,0.446,1
"526",1001,4,263,"F","shape2.jpg","You","Nonmatching","Self","Friend","Friend","Close",588,0.588,1
"527",1001,4,264,"M","shape2.jpg","Friend","Matching","Friend","Friend","Friend","Close",449,0.449,1
"528",1001,4,264,"F","shape1.jpg","Stranger","Nonmatching","Stranger","Self","Self","Self",430,0.43,1
"529",1001,4,265,"M","shape3.jpg","Stranger","Matching","Stranger","Stranger","Stranger","Stranger",401,0.401,1
"530",1001,4,265,"F","shape3.jpg","Stranger","Matching","Stranger","Stranger","Stranger","Stranger",474,0.474,1
"531",1001,4,266,"M","shape3.jpg","Stranger","Matching","Stranger","Stranger","Stranger","Stranger",406,0.406,1
"532",1001,4,266,"F","shape2.jpg","Stranger","Nonmatching","Stranger","Friend","Friend","Close",486,0.486,1
"533",1001,4,267,"M","shape3.jpg","Stranger","Matching","Stranger","Stranger","Stranger","Stranger",371,0.371,1
"534",1001,4,267,"F","shape3.jpg","You","Nonmatching","Self","Stranger","Stranger","Stranger",422,0.422,1
"535",1001,4,268,"M","shape3.jpg","Stranger","Matching","Stranger","Stranger","Stranger","Stranger",484,0.484,1
"536",1001,4,268,"F","shape3.jpg","Stranger","Matching","Stranger","Stranger","Stranger","Stranger",668,0.668,1
"537",1001,4,269,"M","shape3.jpg","Stranger","Matching","Stranger","Stranger","Stranger","Stranger",464,0.464,1
"538",1001,4,269,"F","shape2.jpg","You","Nonmatching","Self","Friend","Friend","Close",382,0.382,1
"539",1001,4,270,"M","shape2.jpg","Friend","Matching","Friend","Friend","Friend","Close",430,0.43,1
"540",1001,4,270,"F","shape3.jpg","You","Nonmatching","Self","Stranger","Stranger","Stranger",590,0.59,1
"541",1001,4,271,"M","shape3.jpg","Friend","Nonmatching","Friend","Stranger","Stranger","Stranger",406,0.406,1
"542",1001,4,271,"F","shape1.jpg","Stranger","Nonmatching","Stranger","Self","Self","Self",402,0.402,1
"543",1001,4,272,"M","shape1.jpg","Friend","Nonmatching","Friend","Self","Self","Self",514,0.514,1
"544",1001,4,272,"F","shape3.jpg","Stranger","Matching","Stranger","Stranger","Stranger","Stranger",512,0.512,1
"545",1001,4,273,"M","shape3.jpg","Stranger","Matching","Stranger","Stranger","Stranger","Stranger",821,0.821,1
"546",1001,4,273,"F","shape2.jpg","You","Nonmatching","Self","Friend","Friend","Close",687,0.687,1
"547",1001,4,274,"M","shape2.jpg","Friend","Matching","Friend","Friend","Friend","Close",525,0.525,1
"548",1001,4,274,"F","shape2.jpg","Friend","Matching","Friend","Friend","Friend","Close",765,0.765,1
"549",1001,4,275,"M","shape1.jpg","You","Matching","Self","Self","Self","Self",430,0.43,1
"550",1001,4,275,"F","shape2.jpg","Stranger","Nonmatching","Stranger","Friend","Friend","Close",466,0.466,1
"551",1001,4,276,"M","shape3.jpg","Stranger","Matching","Stranger","Stranger","Stranger","Stranger",494,0.494,1
"552",1001,4,276,"F","shape3.jpg","Friend","Nonmatching","Friend","Stranger","Stranger","Stranger",463,0.463,1
"553",1001,4,277,"M","shape2.jpg","Friend","Matching","Friend","Friend","Friend","Close",614,0.614,1
"554",1001,4,277,"F","shape1.jpg","You","Matching","Self","Self","Self","Self",516,0.516,1
"555",1001,4,278,"M","shape2.jpg","Friend","Matching","Friend","Friend","Friend","Close",459,0.459,1
"556",1001,4,278,"F","shape1.jpg","You","Matching","Self","Self","Self","Self",593,0.593,1
"557",1001,4,279,"M","shape2.jpg","Stranger","Nonmatching","Stranger","Friend","Friend","Close",468,0.468,1
"558",1001,4,279,"F","shape2.jpg","Stranger","Nonmatching","Stranger","Friend","Friend","Close",372,0.372,1
"559",1001,4,280,"M","shape3.jpg","You","Nonmatching","Self","Stranger","Stranger","Stranger",507,0.507,1
"560",1001,4,280,"F","shape3.jpg","You","Nonmatching","Self","Stranger","Stranger","Stranger",426,0.426,1
"561",1001,4,281,"M","shape2.jpg","Stranger","Nonmatching","Stranger","Friend","Friend","Close",500,0.5,1
"562",1001,4,281,"F","shape1.jpg","You","Matching","Self","Self","Self","Self",399,0.399,1
"563",1001,4,282,"M","shape2.jpg","Stranger","Nonmatching","Stranger","Friend","Friend","Close",433,0.433,1
"564",1001,4,282,"F","shape1.jpg","Stranger","Nonmatching","Stranger","Self","Self","Self",376,0.376,1
"565",1001,4,283,"M","shape1.jpg","You","Matching","Self","Self","Self","Self",468,0.468,1
"566",1001,4,283,"F","shape1.jpg","Friend","Nonmatching","Friend","Self","Self","Self",576,0.576,1
"567",1001,4,284,"M","shape2.jpg","Friend","Matching","Friend","Friend","Friend","Close",534,0.534,1
"568",1001,4,284,"F","shape2.jpg","Friend","Matching","Friend","Friend","Friend","Close",511,0.511,1
"569",1001,4,285,"M","shape2.jpg","Friend","Matching","Friend","Friend","Friend","Close",463,0.463,1
"570",1001,4,285,"F","shape3.jpg","Friend","Nonmatching","Friend","Stranger","Stranger","Stranger",378,0.378,1
"571",1001,4,286,"M","shape1.jpg","Stranger","Nonmatching","Stranger","Self","Self","Self",461,0.461,1
"572",1001,4,286,"F","shape2.jpg","Friend","Matching","Friend","Friend","Friend","Close",822,0.822,1
"573",1001,4,287,"M","shape1.jpg","Friend","Nonmatching","Friend","Self","Self","Self",655,0.655,1
"574",1001,4,287,"F","shape2.jpg","You","Nonmatching","Self","Friend","Friend","Close",433,0.433,1
"575",1001,4,288,"M","shape3.jpg","Friend","Nonmatching","Friend","Stranger","Stranger","Stranger",428,0.428,1
"576",1001,4,288,"F","shape1.jpg","Friend","Nonmatching","Friend","Self","Self","Self",397,0.397,1
"577",1001,4,289,"M","shape3.jpg","You","Nonmatching","Self","Stranger","Stranger","Stranger",461,0.461,1
"578",1001,4,289,"F","shape1.jpg","You","Matching","Self","Self","Self","Self",573,0.573,1
"579",1001,4,290,"M","shape3.jpg","Stranger","Matching","Stranger","Stranger","Stranger","Stranger",704,0.704,1
"580",1001,4,290,"F","shape2.jpg","Friend","Matching","Friend","Friend","Friend","Close",601,0.601,1
"581",1001,4,291,"M","shape3.jpg","Friend","Nonmatching","Friend","Stranger","Stranger","Stranger",420,0.42,1
"582",1001,4,291,"F","shape2.jpg","Friend","Matching","Friend","Friend","Friend","Close",536,0.536,1
"583",1001,4,292,"M","shape1.jpg","Stranger","Nonmatching","Stranger","Self","Self","Self",370,0.37,1
"584",1001,4,292,"F","shape3.jpg","Friend","Nonmatching","Friend","Stranger","Stranger","Stranger",427,0.427,1
"585",1001,4,293,"M","shape3.jpg","Friend","Nonmatching","Friend","Stranger","Stranger","Stranger",486,0.486,1
"586",1001,4,293,"F","shape3.jpg","Friend","Nonmatching","Friend","Stranger","Stranger","Stranger",471,0.471,1
"587",1001,4,294,"M","shape1.jpg","You","Matching","Self","Self","Self","Self",581,0.581,1
"588",1001,4,294,"F","shape3.jpg","You","Nonmatching","Self","Stranger","Stranger","Stranger",434,0.434,1
"589",1001,4,295,"M","shape2.jpg","You","Nonmatching","Self","Friend","Friend","Close",415,0.415,1
"590",1001,4,295,"F","shape3.jpg","Friend","Nonmatching","Friend","Stranger","Stranger","Stranger",393,0.393,1
"591",1001,4,296,"M","shape1.jpg","You","Matching","Self","Self","Self","Self",774,0.774,1
"592",1001,4,296,"F","shape1.jpg","You","Matching","Self","Self","Self","Self",443,0.443,1
"593",1001,4,297,"M","shape1.jpg","Stranger","Nonmatching","Stranger","Self","Self","Self",417,0.417,1
"594",1001,4,297,"F","shape1.jpg","Stranger","Nonmatching","Stranger","Self","Self","Self",380,0.38,1
"595",1001,4,298,"M","shape1.jpg","Stranger","Nonmatching","Stranger","Self","Self","Self",469,0.469,1
"596",1001,4,298,"F","shape3.jpg","You","Nonmatching","Self","Stranger","Stranger","Stranger",446,0.446,1
"597",1001,4,299,"M","shape1.jpg","You","Matching","Self","Self","Self","Self",611,0.611,1
"598",1001,4,299,"F","shape2.jpg","Stranger","Nonmatching","Stranger","Friend","Friend","Close",395,0.395,1
"599",1001,4,300,"M","shape2.jpg","Friend","Matching","Friend","Friend","Friend","Close",500,0.5,1
"600",1001,4,300,"F","shape1.jpg","You","Matching","Self","Self","Self","Self",550,0.55,1
"601",1001,4,301,"M","shape1.jpg","You","Matching","Self","Self","Self","Self",459,0.459,1
"602",1001,4,301,"F","shape1.jpg","You","Matching","Self","Self","Self","Self",497,0.497,1
"603",1001,4,302,"M","shape1.jpg","You","Matching","Self","Self","Self","Self",451,0.451,1
"604",1001,4,302,"F","shape1.jpg","You","Matching","Self","Self","Self","Self",483,0.483,1
"605",1001,4,303,"M","shape1.jpg","Friend","Nonmatching","Friend","Self","Self","Self",377,0.377,1
"606",1001,4,303,"F","shape2.jpg","Friend","Matching","Friend","Friend","Friend","Close",499,0.499,1
"607",1001,4,304,"M","shape1.jpg","Stranger","Nonmatching","Stranger","Self","Self","Self",413,0.413,1
"608",1001,4,304,"F","shape3.jpg","You","Nonmatching","Self","Stranger","Stranger","Stranger",395,0.395,1
"609",1001,4,305,"M","shape3.jpg","Stranger","Matching","Stranger","Stranger","Stranger","Stranger",543,0.543,1
"610",1001,4,305,"F","shape2.jpg","You","Nonmatching","Self","Friend","Friend","Close",406,0.406,1
"611",1001,4,306,"M","shape1.jpg","Friend","Nonmatching","Friend","Self","Self","Self",450,0.45,1
"612",1001,4,306,"F","shape2.jpg","Friend","Matching","Friend","Friend","Friend","Close",663,0.663,1
"613",1001,4,307,"M","shape2.jpg","Stranger","Nonmatching","Stranger","Friend","Friend","Close",541,0.541,1
"614",1001,4,307,"F","shape1.jpg","Friend","Nonmatching","Friend","Self","Self","Self",429,0.429,1
"615",1001,4,308,"M","shape2.jpg","Friend","Matching","Friend","Friend","Friend","Close",732,0.732,1
"616",1001,4,308,"F","shape1.jpg","You","Matching","Self","Self","Self","Self",690,0.69,1
"617",1001,4,309,"M","shape3.jpg","Friend","Nonmatching","Friend","Stranger","Stranger","Stranger",458,0.458,1
"618",1001,4,309,"F","shape3.jpg","Stranger","Matching","Stranger","Stranger","Stranger","Stranger",426,0.426,1
"619",1001,4,310,"M","shape3.jpg","Stranger","Matching","Stranger","Stranger","Stranger","Stranger",364,0.364,1
"620",1001,4,310,"F","shape3.jpg","You","Nonmatching","Self","Stranger","Stranger","Stranger",825,0.825,1
"621",1001,4,311,"M","shape2.jpg","Friend","Matching","Friend","Friend","Friend","Close",399,0.399,1
"622",1001,4,311,"F","shape2.jpg","Friend","Matching","Friend","Friend","Friend","Close",625,0.625,1
"623",1001,4,312,"M","shape3.jpg","Stranger","Matching","Stranger","Stranger","Stranger","Stranger",514,0.514,1
"624",1001,4,312,"F","shape3.jpg","Stranger","Matching","Stranger","Stranger","Stranger","Stranger",574,0.574,1
"625",1001,4,313,"M","shape2.jpg","Stranger","Nonmatching","Stranger","Friend","Friend","Close",779,0.779,1
"626",1001,4,313,"F","shape1.jpg","Stranger","Nonmatching","Stranger","Self","Self","Self",384,0.384,1
"627",1001,4,314,"M","shape1.jpg","Stranger","Nonmatching","Stranger","Self","Self","Self",419,0.419,1
"628",1001,4,314,"F","shape1.jpg","You","Matching","Self","Self","Self","Self",487,0.487,1
"629",1001,4,315,"M","shape2.jpg","Stranger","Nonmatching","Stranger","Friend","Friend","Close",459,0.459,1
"630",1001,4,315,"F","shape2.jpg","Stranger","Nonmatching","Stranger","Friend","Friend","Close",489,0.489,1
"631",1001,4,316,"M","shape1.jpg","You","Matching","Self","Self","Self","Self",459,0.459,1
"632",1001,4,316,"F","shape1.jpg","You","Matching","Self","Self","Self","Self",587,0.587,1
"633",1001,4,317,"M","shape1.jpg","You","Matching","Self","Self","Self","Self",327,0.327,1
"634",1001,4,317,"F","shape3.jpg","Stranger","Matching","Stranger","Stranger","Stranger","Stranger",560,0.56,1
"635",1001,4,318,"M","shape2.jpg","You","Nonmatching","Self","Friend","Friend","Close",438,0.438,1
"636",1001,4,318,"F","shape2.jpg","Stranger","Nonmatching","Stranger","Friend","Friend","Close",622,0.622,1
"637",1001,4,319,"M","shape2.jpg","Friend","Matching","Friend","Friend","Friend","Close",400,0.4,1
"638",1001,4,319,"F","shape3.jpg","Stranger","Matching","Stranger","Stranger","Stranger","Stranger",827,0.827,1
"639",1001,4,320,"M","shape3.jpg","Stranger","Matching","Stranger","Stranger","Stranger","Stranger",384,0.384,1
"640",1001,4,320,"F","shape2.jpg","You","Nonmatching","Self","Friend","Friend","Close",431,0.431,1
"641",1001,4,321,"M","shape1.jpg","Friend","Nonmatching","Friend","Self","Self","Self",385,0.385,1
"642",1001,4,321,"F","shape3.jpg","Friend","Nonmatching","Friend","Stranger","Stranger","Stranger",513,0.513,1
"643",1001,4,322,"M","shape2.jpg","Friend","Matching","Friend","Friend","Friend","Close",537,0.537,1
"644",1001,4,322,"F","shape2.jpg","Friend","Matching","Friend","Friend","Friend","Close",501,0.501,1
"645",1001,4,323,"M","shape3.jpg","Friend","Nonmatching","Friend","Stranger","Stranger","Stranger",441,0.441,1
"646",1001,4,323,"F","shape3.jpg","Stranger","Matching","Stranger","Stranger","Stranger","Stranger",403,0.403,1
"647",1001,4,324,"M","shape2.jpg","Friend","Matching","Friend","Friend","Friend","Close",392,0.392,1
"648",1001,4,324,"F","shape2.jpg","Stranger","Nonmatching","Stranger","Friend","Friend","Close",447,0.447,1
"649",1001,4,325,"M","shape2.jpg","Friend","Matching","Friend","Friend","Friend","Close",711,0.711,1
"650",1001,4,325,"F","shape2.jpg","Friend","Matching","Friend","Friend","Friend","Close",529,0.529,1
"651",1001,4,326,"M","shape1.jpg","Stranger","Nonmatching","Stranger","Self","Self","Self",484,0.484,1
"652",1001,4,326,"F","shape1.jpg","You","Matching","Self","Self","Self","Self",472,0.472,1
"653",1001,4,327,"M","shape2.jpg","You","Nonmatching","Self","Friend","Friend","Close",487,0.487,1
"654",1001,4,327,"F","shape2.jpg","Friend","Matching","Friend","Friend","Friend","Close",479,0.479,1
"655",1001,4,328,"M","shape3.jpg","You","Nonmatching","Self","Stranger","Stranger","Stranger",675,0.675,1
"656",1001,4,328,"F","shape3.jpg","Friend","Nonmatching","Friend","Stranger","Stranger","Stranger",384,0.384,1
"657",1001,4,329,"M","shape1.jpg","Friend","Nonmatching","Friend","Self","Self","Self",436,0.436,1
"658",1001,4,329,"F","shape1.jpg","Friend","Nonmatching","Friend","Self","Self","Self",569,0.569,1
"659",1001,4,330,"M","shape3.jpg","Stranger","Matching","Stranger","Stranger","Stranger","Stranger",583,0.583,1
"660",1001,4,330,"F","shape2.jpg","You","Nonmatching","Self","Friend","Friend","Close",470,0.47,1
"661",1001,4,331,"M","shape3.jpg","Friend","Nonmatching","Friend","Stranger","Stranger","Stranger",543,0.543,1
"662",1001,4,331,"F","shape2.jpg","Friend","Matching","Friend","Friend","Friend","Close",523,0.523,1
"663",1001,4,332,"M","shape3.jpg","You","Nonmatching","Self","Stranger","Stranger","Stranger",463,0.463,1
"664",1001,4,332,"F","shape1.jpg","Friend","Nonmatching","Friend","Self","Self","Self",511,0.511,1
"665",1001,4,333,"M","shape1.jpg","You","Matching","Self","Self","Self","Self",395,0.395,1
"666",1001,4,333,"F","shape1.jpg","Stranger","Nonmatching","Stranger","Self","Self","Self",437,0.437,1
"667",1001,4,334,"M","shape3.jpg","You","Nonmatching","Self","Stranger","Stranger","Stranger",375,0.375,1
"668",1001,4,334,"F","shape3.jpg","Stranger","Matching","Stranger","Stranger","Stranger","Stranger",457,0.457,1
"669",1001,4,335,"M","shape3.jpg","Stranger","Matching","Stranger","Stranger","Stranger","Stranger",371,0.371,1
"670",1001,4,335,"F","shape3.jpg","Stranger","Matching","Stranger","Stranger","Stranger","Stranger",446,0.446,1
"671",1001,4,336,"M","shape3.jpg","You","Nonmatching","Self","Stranger","Stranger","Stranger",935,0.935,1
"672",1001,4,336,"F","shape1.jpg","Stranger","Nonmatching","Stranger","Self","Self","Self",395,0.395,1
"673",1002,1,1,"M","shape1.jpg","Stranger","Nonmatching","Stranger","Self","Self","Self",2048,2.048,1
"674",1002,1,1,"F","shape2.jpg","Friend","Matching","Friend","Friend","Friend","Close",771,0.771,1
"675",1002,1,2,"M","shape3.jpg","Friend","Nonmatching","Friend","Stranger","Stranger","Stranger",667,0.667,1
"676",1002,1,2,"F","shape3.jpg","You","Nonmatching","Self","Stranger","Stranger","Stranger",629,0.629,1
"677",1002,1,3,"M","shape3.jpg","You","Nonmatching","Self","Stranger","Stranger","Stranger",590,0.59,1
"678",1002,1,3,"F","shape1.jpg","You","Matching","Self","Self","Self","Self",455,0.455,1
"679",1002,1,4,"M","shape1.jpg","You","Matching","Self","Self","Self","Self",392,0.392,1
"680",1002,1,4,"F","shape3.jpg","Stranger","Matching","Stranger","Stranger","Stranger","Stranger",369,0.369,1
"681",1002,1,5,"M","shape2.jpg","You","Nonmatching","Self","Friend","Friend","Close",450,0.45,1
"682",1002,1,5,"F","shape3.jpg","Friend","Nonmatching","Friend","Stranger","Stranger","Stranger",415,0.415,1
"683",1002,1,6,"M","shape2.jpg","Friend","Matching","Friend","Friend","Friend","Close",341,0.341,1
"684",1002,1,6,"F","shape2.jpg","Stranger","Nonmatching","Stranger","Friend","Friend","Close",423,0.423,1
"685",1002,1,7,"M","shape2.jpg","Stranger","Nonmatching","Stranger","Friend","Friend","Close",387,0.387,1
"686",1002,1,7,"F","shape2.jpg","Friend","Matching","Friend","Friend","Friend","Close",455,0.455,1
"687",1002,1,8,"M","shape3.jpg","You","Nonmatching","Self","Stranger","Stranger","Stranger",386,0.386,1
"688",1002,1,8,"F","shape1.jpg","Friend","Nonmatching","Friend","Self","Self","Self",427,0.427,1
"689",1002,1,9,"M","shape1.jpg","Stranger","Nonmatching","Stranger","Self","Self","Self",531,0.531,1
"690",1002,1,9,"F","shape3.jpg","Stranger","Matching","Stranger","Stranger","Stranger","Stranger",396,0.396,1
"691",1002,1,10,"M","shape3.jpg","You","Nonmatching","Self","Stranger","Stranger","Stranger",392,0.392,1
"692",1002,1,10,"F","shape1.jpg","You","Matching","Self","Self","Self","Self",383,0.383,1
"693",1002,1,11,"M","shape3.jpg","Friend","Nonmatching","Friend","Stranger","Stranger","Stranger",451,0.451,1
"694",1002,1,11,"F","shape3.jpg","Stranger","Matching","Stranger","Stranger","Stranger","Stranger",569,0.569,1
"695",1002,1,12,"M","shape2.jpg","Stranger","Nonmatching","Stranger","Friend","Friend","Close",1096,1.096,1
"696",1002,1,12,"F","shape2.jpg","Friend","Matching","Friend","Friend","Friend","Close",423,0.423,1
"697",1002,1,13,"M","shape2.jpg","Friend","Matching","Friend","Friend","Friend","Close",352,0.352,1
"698",1002,1,13,"F","shape3.jpg","You","Nonmatching","Self","Stranger","Stranger","Stranger",484,0.484,1
"699",1002,1,14,"M","shape2.jpg","Stranger","Nonmatching","Stranger","Friend","Friend","Close",438,0.438,1
"700",1002,1,14,"F","shape3.jpg","Stranger","Matching","Stranger","Stranger","Stranger","Stranger",397,0.397,1
"701",1002,1,15,"M","shape1.jpg","Stranger","Nonmatching","Stranger","Self","Self","Self",366,0.366,1
"702",1002,1,15,"F","shape2.jpg","You","Nonmatching","Self","Friend","Friend","Close",488,0.488,1
"703",1002,1,16,"M","shape1.jpg","Friend","Nonmatching","Friend","Self","Self","Self",713,0.713,1
"704",1002,1,16,"F","shape2.jpg","Stranger","Nonmatching","Stranger","Friend","Friend","Close",480,0.48,1
"705",1002,1,17,"M","shape1.jpg","Friend","Nonmatching","Friend","Self","Self","Self",594,0.594,1
"706",1002,1,17,"F","shape2.jpg","Friend","Matching","Friend","Friend","Friend","Close",333,0.333,1
"707",1002,1,18,"M","shape1.jpg","You","Matching","Self","Self","Self","Self",345,0.345,1
"708",1002,1,18,"F","shape1.jpg","Friend","Nonmatching","Friend","Self","Self","Self",344,0.344,1
"709",1002,1,19,"M","shape3.jpg","You","Nonmatching","Self","Stranger","Stranger","Stranger",369,0.369,1
"710",1002,1,19,"F","shape1.jpg","You","Matching","Self","Self","Self","Self",596,0.596,1
"711",1002,1,20,"M","shape2.jpg","You","Nonmatching","Self","Friend","Friend","Close",360,0.36,1
"712",1002,1,20,"F","shape1.jpg","Stranger","Nonmatching","Stranger","Self","Self","Self",360,0.36,1
"713",1002,1,21,"M","shape1.jpg","You","Matching","Self","Self","Self","Self",512,0.512,1
"714",1002,1,21,"F","shape2.jpg","Stranger","Nonmatching","Stranger","Friend","Friend","Close",412,0.412,1
"715",1002,1,22,"M","shape1.jpg","Friend","Nonmatching","Friend","Self","Self","Self",320,0.32,1
"716",1002,1,22,"F","shape2.jpg","Friend","Matching","Friend","Friend","Friend","Close",412,0.412,1
"717",1002,1,23,"M","shape3.jpg","Stranger","Matching","Stranger","Stranger","Stranger","Stranger",381,0.381,1
"718",1002,1,23,"F","shape3.jpg","Stranger","Matching","Stranger","Stranger","Stranger","Stranger",372,0.372,1
"719",1002,1,24,"M","shape1.jpg","Friend","Nonmatching","Friend","Self","Self","Self",414,0.414,1
"720",1002,1,24,"F","shape3.jpg","Stranger","Matching","Stranger","Stranger","Stranger","Stranger",377,0.377,1
"721",1002,1,25,"M","shape1.jpg","You","Matching","Self","Self","Self","Self",351,0.351,1
"722",1002,1,25,"F","shape3.jpg","You","Nonmatching","Self","Stranger","Stranger","Stranger",617,0.617,1
"723",1002,1,26,"M","shape1.jpg","You","Matching","Self","Self","Self","Self",384,0.384,1
"724",1002,1,26,"F","shape1.jpg","You","Matching","Self","Self","Self","Self",419,0.419,1
"725",1002,1,27,"M","shape1.jpg","Friend","Nonmatching","Friend","Self","Self","Self",393,0.393,1
"726",1002,1,27,"F","shape1.jpg","You","Matching","Self","Self","Self","Self",363,0.363,1
"727",1002,1,28,"M","shape1.jpg","You","Matching","Self","Self","Self","Self",465,0.465,1
"728",1002,1,28,"F","shape2.jpg","Friend","Matching","Friend","Friend","Friend","Close",385,0.385,1
"729",1002,1,29,"M","shape3.jpg","Stranger","Matching","Stranger","Stranger","Stranger","Stranger",410,0.41,1
"730",1002,1,29,"F","shape3.jpg","You","Nonmatching","Self","Stranger","Stranger","Stranger",398,0.398,1
"731",1002,1,30,"M","shape1.jpg","You","Matching","Self","Self","Self","Self",472,0.472,1
"732",1002,1,30,"F","shape3.jpg","Stranger","Matching","Stranger","Stranger","Stranger","Stranger",319,0.319,1
"733",1002,1,31,"M","shape2.jpg","Friend","Matching","Friend","Friend","Friend","Close",389,0.389,1
"734",1002,1,31,"F","shape2.jpg","Stranger","Nonmatching","Stranger","Friend","Friend","Close",476,0.476,1
"735",1002,1,32,"M","shape3.jpg","Stranger","Matching","Stranger","Stranger","Stranger","Stranger",346,0.346,1
"736",1002,1,32,"F","shape3.jpg","Stranger","Matching","Stranger","Stranger","Stranger","Stranger",407,0.407,1
"737",1002,1,33,"M","shape3.jpg","Stranger","Matching","Stranger","Stranger","Stranger","Stranger",362,0.362,1
"738",1002,1,33,"F","shape1.jpg","You","Matching","Self","Self","Self","Self",609,0.609,1
"739",1002,1,34,"M","shape2.jpg","Friend","Matching","Friend","Friend","Friend","Close",373,0.373,0
"740",1002,1,34,"F","shape3.jpg","Stranger","Matching","Stranger","Stranger","Stranger","Stranger",342,0.342,1
"741",1002,1,35,"M","shape3.jpg","Friend","Nonmatching","Friend","Stranger","Stranger","Stranger",659,0.659,1
"742",1002,1,35,"F","shape1.jpg","Stranger","Nonmatching","Stranger","Self","Self","Self",478,0.478,1
"743",1002,1,36,"M","shape1.jpg","You","Matching","Self","Self","Self","Self",391,0.391,1
"744",1002,1,36,"F","shape1.jpg","You","Matching","Self","Self","Self","Self",396,0.396,1
"745",1002,1,37,"M","shape3.jpg","Stranger","Matching","Stranger","Stranger","Stranger","Stranger",363,0.363,1
"746",1002,1,37,"F","shape1.jpg","Friend","Nonmatching","Friend","Self","Self","Self",377,0.377,1
"747",1002,1,38,"M","shape1.jpg","Friend","Nonmatching","Friend","Self","Self","Self",588,0.588,1
"748",1002,1,38,"F","shape1.jpg","Stranger","Nonmatching","Stranger","Self","Self","Self",411,0.411,1
"749",1002,1,39,"M","shape3.jpg","Stranger","Matching","Stranger","Stranger","Stranger","Stranger",347,0.347,1
"750",1002,1,39,"F","shape2.jpg","Friend","Matching","Friend","Friend","Friend","Close",413,0.413,1
"751",1002,1,40,"M","shape1.jpg","Stranger","Nonmatching","Stranger","Self","Self","Self",838,0.838,1
"752",1002,1,40,"F","shape1.jpg","You","Matching","Self","Self","Self","Self",493,0.493,0
"753",1002,1,41,"M","shape3.jpg","You","Nonmatching","Self","Stranger","Stranger","Stranger",431,0.431,1
"754",1002,1,41,"F","shape1.jpg","Stranger","Nonmatching","Stranger","Self","Self","Self",575,0.575,1
"755",1002,1,42,"M","shape2.jpg","You","Nonmatching","Self","Friend","Friend","Close",457,0.457,1
"756",1002,1,42,"F","shape3.jpg","You","Nonmatching","Self","Stranger","Stranger","Stranger",432,0.432,1
"757",1002,1,43,"M","shape1.jpg","You","Matching","Self","Self","Self","Self",357,0.357,1
"758",1002,1,43,"F","shape1.jpg","Friend","Nonmatching","Friend","Self","Self","Self",426,0.426,1
"759",1002,1,44,"M","shape3.jpg","Stranger","Matching","Stranger","Stranger","Stranger","Stranger",571,0.571,1
"760",1002,1,44,"F","shape2.jpg","You","Nonmatching","Self","Friend","Friend","Close",437,0.437,1
"761",1002,1,45,"M","shape2.jpg","Stranger","Nonmatching","Stranger","Friend","Friend","Close",563,0.563,0
"762",1002,1,45,"F","shape1.jpg","Stranger","Nonmatching","Stranger","Self","Self","Self",430,0.43,1
"763",1002,1,46,"M","shape2.jpg","Friend","Matching","Friend","Friend","Friend","Close",370,0.37,1
"764",1002,1,46,"F","shape2.jpg","Friend","Matching","Friend","Friend","Friend","Close",346,0.346,1
"765",1002,1,47,"M","shape3.jpg","Stranger","Matching","Stranger","Stranger","Stranger","Stranger",418,0.418,1
"766",1002,1,47,"F","shape3.jpg","Stranger","Matching","Stranger","Stranger","Stranger","Stranger",318,0.318,1
"767",1002,1,48,"M","shape3.jpg","Stranger","Matching","Stranger","Stranger","Stranger","Stranger",375,0.375,1
"768",1002,1,48,"F","shape1.jpg","Friend","Nonmatching","Friend","Self","Self","Self",435,0.435,1
"769",1002,1,49,"M","shape1.jpg","You","Matching","Self","Self","Self","Self",378,0.378,1
"770",1002,1,49,"F","shape2.jpg","Friend","Matching","Friend","Friend","Friend","Close",407,0.407,1
"771",1002,1,50,"M","shape2.jpg","Stranger","Nonmatching","Stranger","Friend","Friend","Close",420,0.42,1
"772",1002,1,50,"F","shape3.jpg","Friend","Nonmatching","Friend","Stranger","Stranger","Stranger",380,0.38,1
"773",1002,1,51,"M","shape3.jpg","Stranger","Matching","Stranger","Stranger","Stranger","Stranger",753,0.753,1
"774",1002,1,51,"F","shape1.jpg","Friend","Nonmatching","Friend","Self","Self","Self",369,0.369,1
"775",1002,1,52,"M","shape3.jpg","Stranger","Matching","Stranger","Stranger","Stranger","Stranger",678,0.678,0
"776",1002,1,52,"F","shape2.jpg","Stranger","Nonmatching","Stranger","Friend","Friend","Close",385,0.385,1
"777",1002,1,53,"M","shape1.jpg","You","Matching","Self","Self","Self","Self",433,0.433,1
"778",1002,1,53,"F","shape3.jpg","Stranger","Matching","Stranger","Stranger","Stranger","Stranger",424,0.424,1
"779",1002,1,54,"M","shape3.jpg","Stranger","Matching","Stranger","Stranger","Stranger","Stranger",677,0.677,1
"780",1002,1,54,"F","shape1.jpg","Stranger","Nonmatching","Stranger","Self","Self","Self",608,0.608,1
"781",1002,1,55,"M","shape2.jpg","Friend","Matching","Friend","Friend","Friend","Close",479,0.479,1
"782",1002,1,55,"F","shape3.jpg","Friend","Nonmatching","Friend","Stranger","Stranger","Stranger",418,0.418,1
"783",1002,1,56,"M","shape2.jpg","You","Nonmatching","Self","Friend","Friend","Close",465,0.465,1
"784",1002,1,56,"F","shape1.jpg","Friend","Nonmatching","Friend","Self","Self","Self",792,0.792,1
"785",1002,1,57,"M","shape3.jpg","Stranger","Matching","Stranger","Stranger","Stranger","Stranger",345,0.345,1
"786",1002,1,57,"F","shape3.jpg","Stranger","Matching","Stranger","Stranger","Stranger","Stranger",387,0.387,1
"787",1002,1,58,"M","shape3.jpg","Friend","Nonmatching","Friend","Stranger","Stranger","Stranger",427,0.427,1
"788",1002,1,58,"F","shape2.jpg","You","Nonmatching","Self","Friend","Friend","Close",444,0.444,1
"789",1002,1,59,"M","shape1.jpg","You","Matching","Self","Self","Self","Self",333,0.333,1
"790",1002,1,59,"F","shape3.jpg","Friend","Nonmatching","Friend","Stranger","Stranger","Stranger",415,0.415,1
"791",1002,1,60,"M","shape1.jpg","You","Matching","Self","Self","Self","Self",427,0.427,1
"792",1002,1,60,"F","shape2.jpg","You","Nonmatching","Self","Friend","Friend","Close",858,0.858,1
"793",1002,1,61,"M","shape2.jpg","Stranger","Nonmatching","Stranger","Friend","Friend","Close",452,0.452,1
"794",1002,1,61,"F","shape1.jpg","Stranger","Nonmatching","Stranger","Self","Self","Self",513,0.513,1
"795",1002,1,62,"M","shape2.jpg","Friend","Matching","Friend","Friend","Friend","Close",1022,1.022,1
"796",1002,1,62,"F","shape2.jpg","Friend","Matching","Friend","Friend","Friend","Close",1049,1.049,1
"797",1002,1,63,"M","shape1.jpg","Friend","Nonmatching","Friend","Self","Self","Self",431,0.431,1
"798",1002,1,63,"F","shape3.jpg","Friend","Nonmatching","Friend","Stranger","Stranger","Stranger",423,0.423,1
"799",1002,1,64,"M","shape1.jpg","Stranger","Nonmatching","Stranger","Self","Self","Self",399,0.399,1
"800",1002,1,64,"F","shape1.jpg","You","Matching","Self","Self","Self","Self",427,0.427,1
"801",1002,1,65,"M","shape2.jpg","Friend","Matching","Friend","Friend","Friend","Close",426,0.426,1
"802",1002,1,65,"F","shape2.jpg","Friend","Matching","Friend","Friend","Friend","Close",402,0.402,1
"803",1002,1,66,"M","shape3.jpg","Friend","Nonmatching","Friend","Stranger","Stranger","Stranger",527,0.527,1
"804",1002,1,66,"F","shape3.jpg","Stranger","Matching","Stranger","Stranger","Stranger","Stranger",353,0.353,1
"805",1002,1,67,"M","shape2.jpg","Friend","Matching","Friend","Friend","Friend","Close",388,0.388,1
"806",1002,1,67,"F","shape3.jpg","You","Nonmatching","Self","Stranger","Stranger","Stranger",400,0.4,1
"807",1002,1,68,"M","shape1.jpg","Stranger","Nonmatching","Stranger","Self","Self","Self",564,0.564,1
"808",1002,1,68,"F","shape2.jpg","Friend","Matching","Friend","Friend","Friend","Close",610,0.61,1
"809",1002,1,69,"M","shape2.jpg","Friend","Matching","Friend","Friend","Friend","Close",406,0.406,1
"810",1002,1,69,"F","shape1.jpg","You","Matching","Self","Self","Self","Self",335,0.335,1
"811",1002,1,70,"M","shape2.jpg","You","Nonmatching","Self","Friend","Friend","Close",367,0.367,1
"812",1002,1,70,"F","shape2.jpg","You","Nonmatching","Self","Friend","Friend","Close",492,0.492,1
"813",1002,1,71,"M","shape2.jpg","Friend","Matching","Friend","Friend","Friend","Close",420,0.42,1
"814",1002,1,71,"F","shape1.jpg","You","Matching","Self","Self","Self","Self",348,0.348,1
"815",1002,1,72,"M","shape2.jpg","Friend","Matching","Friend","Friend","Friend","Close",345,0.345,1
"816",1002,1,72,"F","shape1.jpg","You","Matching","Self","Self","Self","Self",394,0.394,1
"817",1002,1,73,"M","shape2.jpg","Stranger","Nonmatching","Stranger","Friend","Friend","Close",505,0.505,1
"818",1002,1,73,"F","shape2.jpg","You","Nonmatching","Self","Friend","Friend","Close",604,0.604,1
"819",1002,1,74,"M","shape3.jpg","Stranger","Matching","Stranger","Stranger","Stranger","Stranger",347,0.347,1
"820",1002,1,74,"F","shape2.jpg","Friend","Matching","Friend","Friend","Friend","Close",392,0.392,1
"821",1002,1,75,"M","shape2.jpg","Friend","Matching","Friend","Friend","Friend","Close",1025,1.025,1
"822",1002,1,75,"F","shape1.jpg","You","Matching","Self","Self","Self","Self",437,0.437,1
"823",1002,1,76,"M","shape1.jpg","Stranger","Nonmatching","Stranger","Self","Self","Self",922,0.922,1
"824",1002,1,76,"F","shape3.jpg","Friend","Nonmatching","Friend","Stranger","Stranger","Stranger",543,0.543,1
"825",1002,1,77,"M","shape2.jpg","You","Nonmatching","Self","Friend","Friend","Close",386,0.386,1
"826",1002,1,77,"F","shape3.jpg","Friend","Nonmatching","Friend","Stranger","Stranger","Stranger",548,0.548,1
"827",1002,1,78,"M","shape3.jpg","Friend","Nonmatching","Friend","Stranger","Stranger","Stranger",446,0.446,1
"828",1002,1,78,"F","shape2.jpg","You","Nonmatching","Self","Friend","Friend","Close",580,0.58,1
"829",1002,1,79,"M","shape3.jpg","You","Nonmatching","Self","Stranger","Stranger","Stranger",391,0.391,1
"830",1002,1,79,"F","shape3.jpg","Stranger","Matching","Stranger","Stranger","Stranger","Stranger",950,0.95,1
"831",1002,1,80,"M","shape2.jpg","You","Nonmatching","Self","Friend","Friend","Close",453,0.453,1
"832",1002,1,80,"F","shape2.jpg","Friend","Matching","Friend","Friend","Friend","Close",1190,1.19,1
"833",1002,1,81,"M","shape2.jpg","Friend","Matching","Friend","Friend","Friend","Close",397,0.397,1
"834",1002,1,81,"F","shape1.jpg","You","Matching","Self","Self","Self","Self",427,0.427,1
"835",1002,1,82,"M","shape3.jpg","Friend","Nonmatching","Friend","Stranger","Stranger","Stranger",468,0.468,1
"836",1002,1,82,"F","shape2.jpg","Stranger","Nonmatching","Stranger","Friend","Friend","Close",548,0.548,1
"837",1002,1,83,"M","shape3.jpg","You","Nonmatching","Self","Stranger","Stranger","Stranger",909,0.909,1
"838",1002,1,83,"F","shape3.jpg","You","Nonmatching","Self","Stranger","Stranger","Stranger",735,0.735,1
"839",1002,1,84,"M","shape1.jpg","You","Matching","Self","Self","Self","Self",549,0.549,1
"840",1002,1,84,"F","shape2.jpg","Stranger","Nonmatching","Stranger","Friend","Friend","Close",459,0.459,1
"841",1002,2,85,"M","shape3.jpg","Stranger","Matching","Stranger","Stranger","Stranger","Stranger",1336,1.336,1
"842",1002,2,85,"F","shape2.jpg","Friend","Matching","Friend","Friend","Friend","Close",427,0.427,1
"843",1002,2,86,"M","shape1.jpg","You","Matching","Self","Self","Self","Self",372,0.372,1
"844",1002,2,86,"F","shape3.jpg","Stranger","Matching","Stranger","Stranger","Stranger","Stranger",513,0.513,1
"845",1002,2,87,"M","shape1.jpg","You","Matching","Self","Self","Self","Self",335,0.335,1
"846",1002,2,87,"F","shape2.jpg","Friend","Matching","Friend","Friend","Friend","Close",411,0.411,1
"847",1002,2,88,"M","shape1.jpg","Friend","Nonmatching","Friend","Self","Self","Self",622,0.622,1
"848",1002,2,88,"F","shape2.jpg","Stranger","Nonmatching","Stranger","Friend","Friend","Close",433,0.433,1
"849",1002,2,89,"M","shape3.jpg","Stranger","Matching","Stranger","Stranger","Stranger","Stranger",560,0.56,1
"850",1002,2,89,"F","shape2.jpg","Friend","Matching","Friend","Friend","Friend","Close",333,0.333,1
"851",1002,2,90,"M","shape2.jpg","Friend","Matching","Friend","Friend","Friend","Close",481,0.481,1
"852",1002,2,90,"F","shape2.jpg","You","Nonmatching","Self","Friend","Friend","Close",355,0.355,1
"853",1002,2,91,"M","shape1.jpg","You","Matching","Self","Self","Self","Self",402,0.402,1
"854",1002,2,91,"F","shape2.jpg","You","Nonmatching","Self","Friend","Friend","Close",439,0.439,1
"855",1002,2,92,"M","shape1.jpg","You","Matching","Self","Self","Self","Self",313,0.313,1
"856",1002,2,92,"F","shape3.jpg","You","Nonmatching","Self","Stranger","Stranger","Stranger",413,0.413,1
"857",1002,2,93,"M","shape3.jpg","Friend","Nonmatching","Friend","Stranger","Stranger","Stranger",961,0.961,1
"858",1002,2,93,"F","shape2.jpg","Friend","Matching","Friend","Friend","Friend","Close",395,0.395,1
"859",1002,2,94,"M","shape1.jpg","You","Matching","Self","Self","Self","Self",274,0.274,1
"860",1002,2,94,"F","shape2.jpg","You","Nonmatching","Self","Friend","Friend","Close",1194,1.194,1
"861",1002,2,95,"M","shape2.jpg","You","Nonmatching","Self","Friend","Friend","Close",657,0.657,1
"862",1002,2,95,"F","shape2.jpg","Stranger","Nonmatching","Stranger","Friend","Friend","Close",406,0.406,1
"863",1002,2,96,"M","shape3.jpg","Stranger","Matching","Stranger","Stranger","Stranger","Stranger",418,0.418,1
"864",1002,2,96,"F","shape3.jpg","You","Nonmatching","Self","Stranger","Stranger","Stranger",420,0.42,1
"865",1002,2,97,"M","shape2.jpg","You","Nonmatching","Self","Friend","Friend","Close",474,0.474,0
"866",1002,2,97,"F","shape3.jpg","You","Nonmatching","Self","Stranger","Stranger","Stranger",361,0.361,1
"867",1002,2,98,"M","shape1.jpg","Stranger","Nonmatching","Stranger","Self","Self","Self",1011,1.011,1
"868",1002,2,98,"F","shape2.jpg","Stranger","Nonmatching","Stranger","Friend","Friend","Close",329,0.329,1
"869",1002,2,99,"M","shape2.jpg","Friend","Matching","Friend","Friend","Friend","Close",421,0.421,1
"870",1002,2,99,"F","shape1.jpg","You","Matching","Self","Self","Self","Self",405,0.405,1
"871",1002,2,100,"M","shape3.jpg","Friend","Nonmatching","Friend","Stranger","Stranger","Stranger",460,0.46,1
"872",1002,2,100,"F","shape2.jpg","Stranger","Nonmatching","Stranger","Friend","Friend","Close",324,0.324,1
"873",1002,2,101,"M","shape1.jpg","You","Matching","Self","Self","Self","Self",383,0.383,1
"874",1002,2,101,"F","shape3.jpg","Friend","Nonmatching","Friend","Stranger","Stranger","Stranger",415,0.415,1
"875",1002,2,102,"M","shape3.jpg","Friend","Nonmatching","Friend","Stranger","Stranger","Stranger",390,0.39,1
"876",1002,2,102,"F","shape3.jpg","Friend","Nonmatching","Friend","Stranger","Stranger","Stranger",440,0.44,1
"877",1002,2,103,"M","shape1.jpg","You","Matching","Self","Self","Self","Self",351,0.351,1
"878",1002,2,103,"F","shape2.jpg","Friend","Matching","Friend","Friend","Friend","Close",471,0.471,1
"879",1002,2,104,"M","shape2.jpg","Stranger","Nonmatching","Stranger","Friend","Friend","Close",379,0.379,1
"880",1002,2,104,"F","shape3.jpg","Friend","Nonmatching","Friend","Stranger","Stranger","Stranger",382,0.382,1
"881",1002,2,105,"M","shape3.jpg","You","Nonmatching","Self","Stranger","Stranger","Stranger",419,0.419,1
"882",1002,2,105,"F","shape3.jpg","Stranger","Matching","Stranger","Stranger","Stranger","Stranger",380,0.38,1
"883",1002,2,106,"M","shape2.jpg","Stranger","Nonmatching","Stranger","Friend","Friend","Close",689,0.689,1
"884",1002,2,106,"F","shape2.jpg","You","Nonmatching","Self","Friend","Friend","Close",386,0.386,1
"885",1002,2,107,"M","shape2.jpg","Stranger","Nonmatching","Stranger","Friend","Friend","Close",593,0.593,1
"886",1002,2,107,"F","shape2.jpg","Friend","Matching","Friend","Friend","Friend","Close",434,0.434,1
"887",1002,2,108,"M","shape2.jpg","Stranger","Nonmatching","Stranger","Friend","Friend","Close",890,0.89,1
"888",1002,2,108,"F","shape1.jpg","You","Matching","Self","Self","Self","Self",288,0.288,1
"889",1002,2,109,"M","shape2.jpg","Stranger","Nonmatching","Stranger","Friend","Friend","Close",660,0.66,1
"890",1002,2,109,"F","shape1.jpg","You","Matching","Self","Self","Self","Self",222,0.222,0
"891",1002,2,110,"M","shape1.jpg","You","Matching","Self","Self","Self","Self",361,0.361,0
"892",1002,2,110,"F","shape1.jpg","Friend","Nonmatching","Friend","Self","Self","Self",369,0.369,1
"893",1002,2,111,"M","shape3.jpg","Stranger","Matching","Stranger","Stranger","Stranger","Stranger",778,0.778,1
"894",1002,2,111,"F","shape2.jpg","You","Nonmatching","Self","Friend","Friend","Close",439,0.439,1
"895",1002,2,112,"M","shape1.jpg","Stranger","Nonmatching","Stranger","Self","Self","Self",399,0.399,1
"896",1002,2,112,"F","shape3.jpg","Friend","Nonmatching","Friend","Stranger","Stranger","Stranger",518,0.518,1
"897",1002,2,113,"M","shape3.jpg","Stranger","Matching","Stranger","Stranger","Stranger","Stranger",538,0.538,1
"898",1002,2,113,"F","shape2.jpg","Friend","Matching","Friend","Friend","Friend","Close",640,0.64,1
"899",1002,2,114,"M","shape1.jpg","Stranger","Nonmatching","Stranger","Self","Self","Self",502,0.502,1
"900",1002,2,114,"F","shape3.jpg","You","Nonmatching","Self","Stranger","Stranger","Stranger",407,0.407,1
"901",1002,2,115,"M","shape3.jpg","You","Nonmatching","Self","Stranger","Stranger","Stranger",487,0.487,1
"902",1002,2,115,"F","shape1.jpg","You","Matching","Self","Self","Self","Self",478,0.478,1
"903",1002,2,116,"M","shape2.jpg","Friend","Matching","Friend","Friend","Friend","Close",483,0.483,1
"904",1002,2,116,"F","shape3.jpg","Stranger","Matching","Stranger","Stranger","Stranger","Stranger",539,0.539,1
"905",1002,2,117,"M","shape3.jpg","Stranger","Matching","Stranger","Stranger","Stranger","Stranger",409,0.409,1
"906",1002,2,117,"F","shape1.jpg","Friend","Nonmatching","Friend","Self","Self","Self",614,0.614,0
"907",1002,2,118,"M","shape1.jpg","Friend","Nonmatching","Friend","Self","Self","Self",421,0.421,1
"908",1002,2,118,"F","shape3.jpg","Stranger","Matching","Stranger","Stranger","Stranger","Stranger",416,0.416,1
"909",1002,2,119,"M","shape3.jpg","Stranger","Matching","Stranger","Stranger","Stranger","Stranger",454,0.454,1
"910",1002,2,119,"F","shape1.jpg","You","Matching","Self","Self","Self","Self",401,0.401,1
"911",1002,2,120,"M","shape3.jpg","You","Nonmatching","Self","Stranger","Stranger","Stranger",426,0.426,1
"912",1002,2,120,"F","shape3.jpg","Friend","Nonmatching","Friend","Stranger","Stranger","Stranger",434,0.434,1
"913",1002,2,121,"M","shape2.jpg","Stranger","Nonmatching","Stranger","Friend","Friend","Close",432,0.432,1
"914",1002,2,121,"F","shape3.jpg","Stranger","Matching","Stranger","Stranger","Stranger","Stranger",330,0.33,1
"915",1002,2,122,"M","shape3.jpg","Friend","Nonmatching","Friend","Stranger","Stranger","Stranger",468,0.468,1
"916",1002,2,122,"F","shape1.jpg","You","Matching","Self","Self","Self","Self",380,0.38,1
"917",1002,2,123,"M","shape3.jpg","Stranger","Matching","Stranger","Stranger","Stranger","Stranger",644,0.644,1
"918",1002,2,123,"F","shape1.jpg","Stranger","Nonmatching","Stranger","Self","Self","Self",856,0.856,1
"919",1002,2,124,"M","shape2.jpg","Friend","Matching","Friend","Friend","Friend","Close",454,0.454,1
"920",1002,2,124,"F","shape1.jpg","Stranger","Nonmatching","Stranger","Self","Self","Self",1537,1.537,0
"921",1002,2,125,"M","shape2.jpg","Friend","Matching","Friend","Friend","Friend","Close",417,0.417,1
"922",1002,2,125,"F","shape3.jpg","Stranger","Matching","Stranger","Stranger","Stranger","Stranger",465,0.465,1
"923",1002,2,126,"M","shape2.jpg","You","Nonmatching","Self","Friend","Friend","Close",410,0.41,1
"924",1002,2,126,"F","shape1.jpg","You","Matching","Self","Self","Self","Self",364,0.364,1
"925",1002,2,127,"M","shape1.jpg","Stranger","Nonmatching","Stranger","Self","Self","Self",486,0.486,1
"926",1002,2,127,"F","shape1.jpg","Stranger","Nonmatching","Stranger","Self","Self","Self",344,0.344,1
"927",1002,2,128,"M","shape3.jpg","Friend","Nonmatching","Friend","Stranger","Stranger","Stranger",831,0.831,1
"928",1002,2,128,"F","shape3.jpg","Stranger","Matching","Stranger","Stranger","Stranger","Stranger",1027,1.027,1
"929",1002,2,129,"M","shape1.jpg","Stranger","Nonmatching","Stranger","Self","Self","Self",524,0.524,1
"930",1002,2,129,"F","shape2.jpg","Friend","Matching","Friend","Friend","Friend","Close",854,0.854,1
"931",1002,2,130,"M","shape3.jpg","Stranger","Matching","Stranger","Stranger","Stranger","Stranger",399,0.399,1
"932",1002,2,130,"F","shape2.jpg","You","Nonmatching","Self","Friend","Friend","Close",596,0.596,1
"933",1002,2,131,"M","shape2.jpg","Friend","Matching","Friend","Friend","Friend","Close",668,0.668,1
"934",1002,2,131,"F","shape3.jpg","You","Nonmatching","Self","Stranger","Stranger","Stranger",438,0.438,1
"935",1002,2,132,"M","shape2.jpg","Friend","Matching","Friend","Friend","Friend","Close",666,0.666,1
"936",1002,2,132,"F","shape2.jpg","Friend","Matching","Friend","Friend","Friend","Close",307,0.307,1
"937",1002,2,133,"M","shape2.jpg","Friend","Matching","Friend","Friend","Friend","Close",680,0.68,1
"938",1002,2,133,"F","shape3.jpg","You","Nonmatching","Self","Stranger","Stranger","Stranger",400,0.4,1
"939",1002,2,134,"M","shape3.jpg","Stranger","Matching","Stranger","Stranger","Stranger","Stranger",730,0.73,0
"940",1002,2,134,"F","shape3.jpg","Stranger","Matching","Stranger","Stranger","Stranger","Stranger",378,0.378,1
"941",1002,2,135,"M","shape1.jpg","You","Matching","Self","Self","Self","Self",488,0.488,1
"942",1002,2,135,"F","shape3.jpg","Stranger","Matching","Stranger","Stranger","Stranger","Stranger",305,0.305,1
"943",1002,2,136,"M","shape1.jpg","You","Matching","Self","Self","Self","Self",359,0.359,1
"944",1002,2,136,"F","shape3.jpg","You","Nonmatching","Self","Stranger","Stranger","Stranger",325,0.325,1
"945",1002,2,137,"M","shape3.jpg","Friend","Nonmatching","Friend","Stranger","Stranger","Stranger",672,0.672,1
"946",1002,2,137,"F","shape2.jpg","Friend","Matching","Friend","Friend","Friend","Close",401,0.401,1
"947",1002,2,138,"M","shape3.jpg","Stranger","Matching","Stranger","Stranger","Stranger","Stranger",930,0.93,0
"948",1002,2,138,"F","shape2.jpg","Stranger","Nonmatching","Stranger","Friend","Friend","Close",498,0.498,1
"949",1002,2,139,"M","shape1.jpg","You","Matching","Self","Self","Self","Self",358,0.358,1
"950",1002,2,139,"F","shape3.jpg","Stranger","Matching","Stranger","Stranger","Stranger","Stranger",532,0.532,0
"951",1002,2,140,"M","shape1.jpg","Friend","Nonmatching","Friend","Self","Self","Self",419,0.419,1
"952",1002,2,140,"F","shape2.jpg","You","Nonmatching","Self","Friend","Friend","Close",0,0,0
"953",1002,2,141,"M","shape2.jpg","Friend","Matching","Friend","Friend","Friend","Close",376,0.376,1
"954",1002,2,141,"F","shape1.jpg","You","Matching","Self","Self","Self","Self",448,0.448,1
"955",1002,2,142,"M","shape2.jpg","Friend","Matching","Friend","Friend","Friend","Close",865,0.865,1
"956",1002,2,142,"F","shape1.jpg","You","Matching","Self","Self","Self","Self",536,0.536,1
"957",1002,2,143,"M","shape1.jpg","You","Matching","Self","Self","Self","Self",372,0.372,1
"958",1002,2,143,"F","shape2.jpg","Friend","Matching","Friend","Friend","Friend","Close",405,0.405,0
"959",1002,2,144,"M","shape2.jpg","You","Nonmatching","Self","Friend","Friend","Close",816,0.816,1
"960",1002,2,144,"F","shape1.jpg","Stranger","Nonmatching","Stranger","Self","Self","Self",386,0.386,1
"961",1002,2,145,"M","shape1.jpg","Stranger","Nonmatching","Stranger","Self","Self","Self",598,0.598,1
"962",1002,2,145,"F","shape3.jpg","Stranger","Matching","Stranger","Stranger","Stranger","Stranger",375,0.375,1
"963",1002,2,146,"M","shape2.jpg","Friend","Matching","Friend","Friend","Friend","Close",352,0.352,1
"964",1002,2,146,"F","shape2.jpg","Stranger","Nonmatching","Stranger","Friend","Friend","Close",462,0.462,1
"965",1002,2,147,"M","shape3.jpg","You","Nonmatching","Self","Stranger","Stranger","Stranger",484,0.484,1
"966",1002,2,147,"F","shape3.jpg","Friend","Nonmatching","Friend","Stranger","Stranger","Stranger",443,0.443,1
"967",1002,2,148,"M","shape3.jpg","You","Nonmatching","Self","Stranger","Stranger","Stranger",413,0.413,1
"968",1002,2,148,"F","shape1.jpg","You","Matching","Self","Self","Self","Self",311,0.311,1
"969",1002,2,149,"M","shape1.jpg","Friend","Nonmatching","Friend","Self","Self","Self",410,0.41,1
"970",1002,2,149,"F","shape3.jpg","Friend","Nonmatching","Friend","Stranger","Stranger","Stranger",419,0.419,1
"971",1002,2,150,"M","shape2.jpg","Friend","Matching","Friend","Friend","Friend","Close",300,0.3,1
"972",1002,2,150,"F","shape1.jpg","You","Matching","Self","Self","Self","Self",311,0.311,1
"973",1002,2,151,"M","shape3.jpg","You","Nonmatching","Self","Stranger","Stranger","Stranger",514,0.514,1
"974",1002,2,151,"F","shape1.jpg","You","Matching","Self","Self","Self","Self",403,0.403,1
"975",1002,2,152,"M","shape1.jpg","Friend","Nonmatching","Friend","Self","Self","Self",551,0.551,1
"976",1002,2,152,"F","shape3.jpg","Stranger","Matching","Stranger","Stranger","Stranger","Stranger",479,0.479,1
